id,accelerationx,accelerationy,accelerationz,angularvelocityx,angularvelocityy,angularvelocityz,pitch,roll,yaw,mdlcircle_id,hallsensor,timestamp,starttime,endtime,train_mode,blemac,training_id,training_handle_id,accelerationWorldx,accelerationWorldy,accelerationWorldz
16454,29439,-17413,30702,10496,-1537,-12801,30142,-24320,-12053,15,1,50289,2020-11-02 15:14:15,2020-11-02 15:14:45,3,DF:DC:EF:28:D6:3E,15,15,22285.264312552485,-10182.823891831527,-38886.46533316727
16455,19199,-28677,19182,7424,-1281,-15617,31934,-24320,-10005,15,1,50314,2020-11-02 15:14:15,2020-11-02 15:14:45,3,DF:DC:EF:28:D6:3E,15,15,15322.008452385657,-4874.161314882851,-36061.05464987847
16456,-21506,-10245,25326,5888,8192,-14081,-32578,-24832,-7957,15,1,50340,2020-11-02 15:14:15,2020-11-02 15:14:45,3,DF:DC:EF:28:D6:3E,15,15,-16365.53381516795,-24839.267328813527,18001.51211738424
16457,-15875,-6662,14574,2304,-17153,-14593,-31554,-24832,-6165,15,1,50366,2020-11-02 15:14:15,2020-11-02 15:14:45,3,DF:DC:EF:28:D6:3E,15,15,-8665.31324789608,-15867.987408169465,13487.722822256246
16458,-255,-12804,1774,4352,22528,-5121,-30786,-25600,-4885,15,1,50391,2020-11-02 15:14:15,2020-11-02 15:14:45,3,DF:DC:EF:28:D6:3E,15,15,-8744.556508318145,-5333.142285923556,7889.540026574731
16459,10242,14333,1774,9728,2816,-16129,-29762,-24576,-2581,15,1,50417,2020-11-02 15:14:15,2020-11-02 15:14:45,3,DF:DC:EF:28:D6:3E,15,15,4087.9091990306124,2364.5984409920143,-17063.944491041308
16460,-20224,-2567,-29970,8192,-2049,-9217,-27970,-23040,236,15,1,50443,2020-11-02 15:14:15,2020-11-02 15:14:45,3,DF:DC:EF:28:D6:3E,15,15,26574.572620603707,24359.2739591355,3770.732981270723
16461,-4099,-5891,4846,-3073,-12033,-1,-27714,-22272,1004,15,1,50468,2020-11-02 15:14:15,2020-11-02 15:14:45,3,DF:DC:EF:28:D6:3E,15,15,5134.143559292731,183.14967824531777,6971.113548632786
16462,6397,29433,19439,-2305,14592,15360,-28226,-23040,-1045,15,1,50494,2020-11-02 15:14:15,2020-11-02 15:14:45,3,DF:DC:EF:28:D6:3E,15,15,3060.3255268239755,-33950.176399169504,-11095.843777520633
16463,-15870,-28678,-10515,3328,27392,9216,-27970,-25088,-3349,15,1,50519,2020-11-02 15:14:15,2020-11-02 15:14:45,3,DF:DC:EF:28:D6:3E,15,15,-850.4497400537584,26702.96999728953,21704.329926618277
16464,-3069,-1796,5357,-1,14592,-513,-27714,-27648,-4117,15,1,50545,2020-11-02 15:14:15,2020-11-02 15:14:45,3,DF:DC:EF:28:D6:3E,15,15,-1672.6228215104381,-2880.247024293524,5499.848723011457
16465,3587,9982,20717,-6913,1792,-3585,-28482,-28672,-3861,15,1,50571,2020-11-02 15:14:15,2020-11-02 15:14:45,3,DF:DC:EF:28:D6:3E,15,15,-4723.710320598431,-22203.347918754924,-5137.984430279375
16466,-6399,30718,-22803,256,-1025,-6145,-28994,-29184,-3605,15,1,50596,2020-11-02 15:14:15,2020-11-02 15:14:45,3,DF:DC:EF:28:D6:3E,15,15,20228.488594500894,30579.88524820293,12656.950714484428
16467,-17152,-25346,4078,768,-14849,-18433,-28482,-28928,-1557,15,1,50622,2020-11-02 15:14:15,2020-11-02 15:14:45,3,DF:DC:EF:28:D6:3E,15,15,-25815.447665627944,13481.010638543377,10250.166729702743
16468,-30977,29182,15854,256,-11009,-18945,-28226,-28416,1772,15,1,50647,2020-11-02 15:14:15,2020-11-02 15:14:45,3,DF:DC:EF:28:D6:3E,15,15,29119.266615810044,-31072.974904653816,15781.36595267105
16469,-23042,10238,28654,7936,-14081,-12801,-26946,-27904,3564,15,1,50673,2020-11-02 15:14:15,2020-11-02 15:14:45,3,DF:DC:EF:28:D6:3E,15,15,6750.535385632447,-28377.422090955035,24616.139248044186
16470,7934,-12547,494,11776,-12545,-5889,-24898,-26880,4844,15,1,50699,2020-11-02 15:14:15,2020-11-02 15:14:45,3,DF:DC:EF:28:D6:3E,15,15,-12616.674436946209,7827.406078293621,413.32945406795557
16471,-23043,-10499,-13587,14080,-19201,-3585,-22338,-25088,5612,15,1,50724,2020-11-02 15:14:15,2020-11-02 15:14:45,3,DF:DC:EF:28:D6:3E,15,15,26362.974478769123,8476.53367229866,7678.3704348093725
16472,18941,-17667,238,-8961,-15873,2560,-22082,-23040,5868,15,1,50750,2020-11-02 15:14:15,2020-11-02 15:14:45,3,DF:DC:EF:28:D6:3E,15,15,-20511.94040199492,487.84042953001904,-15810.228545480437
16473,12541,-26371,-3858,-5121,-10241,3584,-23106,-22016,4844,15,1,50775,2020-11-02 15:14:15,2020-11-02 15:14:45,3,DF:DC:EF:28:D6:3E,15,15,-9954.944160012787,20156.979952692298,19031.177892022028
16474,9725,-20739,9967,16128,-18689,-6913,-21570,-21248,5356,15,1,50801,2020-11-02 15:14:15,2020-11-02 15:14:45,3,DF:DC:EF:28:D6:3E,15,15,-8648.224106744015,21937.99750732933,8243.501693330545
16475,28412,-11783,-11025,32512,28415,-12801,-16962,-17408,7660,15,1,50827,2020-11-02 15:14:15,2020-11-02 15:14:45,3,DF:DC:EF:28:D6:3E,15,15,-12054.570261295023,-28252.91859600448,-11139.63126064081
16476,-10501,-27141,-18962,-16128,-4354,-12801,-9794,-11008,11244,15,1,50852,2020-11-02 15:14:15,2020-11-02 15:14:45,3,DF:DC:EF:28:D6:3E,15,15,16975.12764657181,-30235.370351132333,-2032.1779234263495
16477,28671,-19974,-31762,2305,-5378,13824,-322,-2304,12780,15,-1,50878,2020-11-02 15:14:15,2020-11-02 15:14:45,3,DF:DC:EF:28:D6:3E,15,15,6230.960852773047,34382.58343771174,-31762.0
16478,-14083,24315,-25875,7169,-11010,18688,10687,8193,12012,15,-1,50903,2020-11-02 15:14:15,2020-11-02 15:14:45,3,DF:DC:EF:28:D6:3E,15,15,-30846.69838815967,-16488.624269259195,15351.619043511484
16479,1791,-18694,-30228,-5888,-13826,-2049,20927,18433,12524,15,-1,50929,2020-11-02 15:14:15,2020-11-02 15:14:45,3,DF:DC:EF:28:D6:3E,15,15,-21571.790269683774,-7587.5188119517625,-27267.06298520349
16480,20480,23291,-9492,-20224,28926,11775,29119,28929,20460,15,-1,50955,2020-11-02 15:14:15,2020-11-02 15:14:45,3,DF:DC:EF:28:D6:3E,15,15,-29157.785798076395,6676.899312883092,12539.604775235764
16481,13311,28923,-17427,17664,16126,16382,-31041,-24575,-27156,15,-1,50980,2020-11-02 15:14:15,2020-11-02 15:14:45,3,DF:DC:EF:28:D6:3E,15,15,-24443.536053558506,-9816.67293983107,-24971.372741416795
16482,-7938,-28164,21999,17408,1022,-15619,-27201,-11007,-2324,15,-1,51006,2020-11-02 15:14:15,2020-11-02 15:14:45,3,DF:DC:EF:28:D6:3E,15,15,25746.62261665103,1760.3208437236535,-25965.19661706619
16483,-20994,1021,16111,27136,1278,-16131,-21057,2818,25325,15,-1,51031,2020-11-02 15:14:15,2020-11-02 15:14:45,3,DF:DC:EF:28:D6:3E,15,15,14678.285964961986,15062.889042341782,-16093.852640958901
16484,13054,-27396,21742,17920,28414,25342,-15425,14594,-16915,15,-1,51057,2020-11-02 15:14:15,2020-11-02 15:14:45,3,DF:DC:EF:28:D6:3E,15,15,24601.435716030526,-21148.018974039558,-18471.408992918772
16485,32254,-4613,-8723,30975,22271,-11521,-16705,22786,-6419,15,-1,51083,2020-11-02 15:14:15,2020-11-02 15:14:45,3,DF:DC:EF:28:D6:3E,15,15,-21714.92315053724,22691.67008569835,-12298.017534874652
16486,13055,3835,-2322,-11266,-13056,-8704,-27457,21762,-12051,15,-1,51108,2020-11-02 15:14:15,2020-11-02 15:14:45,3,DF:DC:EF:28:D6:3E,15,15,4437.397834315527,11496.76485384004,-6218.185616039473
16487,-513,7418,8175,-22530,-26623,1025,24511,10498,-25875,15,-1,51134,2020-11-02 15:14:15,2020-11-02 15:14:45,3,DF:DC:EF:28:D6:3E,15,15,5195.338318168497,-8062.462256989541,-5488.686556398467
16488,29440,-28423,496,31742,-14847,14336,9407,-5375,29677,15,-1,51159,2020-11-02 15:14:15,2020-11-02 15:14:45,3,DF:DC:EF:28:D6:3E,15,15,-6775.423123748746,-32705.326332194287,-23649.139857484246
16489,23296,21241,-5137,-13314,-25087,4607,-2882,-23807,30445,15,-1,51211,2020-11-02 15:14:15,2020-11-02 15:14:45,3,DF:DC:EF:28:D6:3E,15,15,14946.31459130347,24355.083178835856,-14272.703650317122
16490,-20225,3065,-4881,-7170,27905,8958,-12098,23041,-23571,15,-1,51213,2020-11-02 15:14:15,2020-11-02 15:14:45,3,DF:DC:EF:28:D6:3E,15,15,-4690.8054323870565,14172.530343596234,-14812.317139979554
16491,-28418,16633,26864,5375,32001,-10755,-19778,4097,-6163,15,-1,51236,2020-11-02 15:14:15,2020-11-02 15:14:45,3,DF:DC:EF:28:D6:3E,15,15,-26020.374123646143,17064.32202736073,-28942.40752273414
16492,-24579,-22279,-32271,24831,-23039,27134,-25410,-14848,8686,15,-1,51262,2020-11-02 15:14:15,2020-11-02 15:14:45,3,DF:DC:EF:28:D6:3E,15,15,-29358.15050019187,26431.994804873193,-24111.142089151253
16493,22269,-20487,5618,-4097,-15871,7679,-26946,32000,16110,15,-1,51288,2020-11-02 15:14:15,2020-11-02 15:14:45,3,DF:DC:EF:28:D6:3E,15,15,-18591.811289118737,18661.695923649524,15914.556614717225
16494,-32004,-12807,31729,-7680,-24575,23551,-20802,14848,19182,15,-1,51313,2020-11-02 15:14:15,2020-11-02 15:14:45,3,DF:DC:EF:28:D6:3E,15,15,11043.38842277071,-18904.056108696226,41420.82737926753
16495,16379,24570,-11024,-23807,2561,-24833,-6210,2560,21230,15,-1,51339,2020-11-02 15:14:15,2020-11-02 15:14:45,3,DF:DC:EF:28:D6:3E,15,15,-16779.405060361914,-1647.4283864780955,-26631.23471662039
16496,-31750,32763,7409,27394,22528,-3072,15551,-257,17134,15,-1,51364,2020-11-02 15:14:15,2020-11-02 15:14:45,3,DF:DC:EF:28:D6:3E,15,15,31736.14493074785,-20392.78143302443,26708.07968311203
16497,2044,3836,-10255,5635,-1,12291,-21569,6656,-5395,15,-1,51390,2020-11-02 15:14:15,2020-11-02 15:14:45,3,DF:DC:EF:28:D6:3E,15,15,9191.786431615574,-5244.796899613247,3472.8985987752512
16498,26621,30971,6641,-12797,20223,-16125,13760,20992,25325,15,-1,51415,2020-11-02 15:14:15,2020-11-02 15:14:45,3,DF:DC:EF:28:D6:3E,15,15,559.6247225158795,29604.28688513828,-28900.802431634635
16499,-27395,-27142,-9746,12548,-23299,-3326,-11840,-16896,-788,15,1,51441,2020-11-02 15:14:15,2020-11-02 15:14:45,3,DF:DC:EF:28:D6:3E,15,15,-14729.153551166646,2433.044715719445,-36868.56430724506
16500,-14853,-22279,24042,-28412,-14340,12035,30657,22273,-18708,15,1,51467,2020-11-02 15:14:15,2020-11-02 15:14:45,3,DF:DC:EF:28:D6:3E,15,15,-16133.075439250833,-19203.62768689385,-25805.57642321918
16501,762,32248,-14109,-253,-20994,22278,4546,-1279,10988,15,1,51492,2020-11-02 15:14:15,2020-11-02 15:14:45,3,DF:DC:EF:28:D6:3E,15,15,-26724.045961013522,18064.869650059387,-14109.0
16502,29178,16885,24546,-17664,-28671,25099,12226,-31998,-12310,15,1,51518,2020-11-02 15:14:15,2020-11-02 15:14:45,3,DF:DC:EF:28:D6:3E,15,15,-32179.427656431297,205.65627737467003,-26521.824337704995
16503,-27397,32495,-3363,-32256,-11261,16653,4290,-15870,-14360,15,1,51543,2020-11-02 15:14:15,2020-11-02 15:14:45,3,DF:DC:EF:28:D6:3E,15,15,23530.493629240435,-26670.352184057214,-23512.519791435163
16504,-2053,-21011,-6949,-3842,-27135,-758,-14911,1027,-6426,15,1,51569,2020-11-02 15:14:15,2020-11-02 15:14:45,3,DF:DC:EF:28:D6:3E,15,15,931.2872611020312,3037.747825829805,21997.052602200492
16505,-17156,-26127,-15392,31744,8447,30984,-29759,-31741,-29211,15,1,51595,2020-11-02 15:14:15,2020-11-02 15:14:45,3,DF:DC:EF:28:D6:3E,15,15,-16429.65413394549,-29634.80537109654,8105.979561789899
16506,-18689,-11016,23275,17667,29439,-4601,-19007,1028,26852,15,1,51620,2020-11-02 15:14:15,2020-11-02 15:14:45,3,DF:DC:EF:28:D6:3E,15,15,22955.219400764756,4868.466074053247,-21487.497349587873
16507,-30461,513,-26891,-4094,-22274,7685,3010,30724,-31773,15,1,51646,2020-11-02 15:14:15,2020-11-02 15:14:45,3,DF:DC:EF:28:D6:3E,15,15,4371.68661715974,16587.04141593953,-36837.75215980548
16508,-13309,15108,5116,-11264,22269,-3585,15298,-11260,20195,15,1,51672,2020-11-02 15:14:15,2020-11-02 15:14:45,3,DF:DC:EF:28:D6:3E,15,15,18333.240530508523,8436.351810185839,-4926.952484578445
16509,-29439,14084,-15361,27135,12539,5628,21698,15109,-4637,15,1,51697,2020-11-02 15:14:15,2020-11-02 15:14:45,3,DF:DC:EF:28:D6:3E,15,15,27886.14223937001,-11775.309878313054,19613.24160549007
16510,-5377,23812,-20480,8191,-20231,-8965,27074,-14843,-7708,15,1,51723,2020-11-02 15:14:15,2020-11-02 15:14:45,3,DF:DC:EF:28:D6:3E,15,15,-22653.51906536863,-22212.746227922784,-2960.718150868547
16511,10240,7425,31996,-30208,-23559,3839,-25662,32518,-24859,15,1,51749,2020-11-02 15:14:15,2020-11-02 15:14:45,3,DF:DC:EF:28:D6:3E,15,15,10513.411193580867,32297.99852003688,5480.8500868372685
16512,24324,9471,17916,-15873,-4614,27394,-20286,23815,-12059,15,1,51774,2020-11-02 15:14:15,2020-11-02 15:14:45,3,DF:DC:EF:28:D6:3E,15,15,-5617.325096995728,4181.441408995483,30875.574156569128
16513,1544,26365,9214,-27649,29691,14083,-28478,9736,-24091,15,1,51800,2020-11-02 15:14:15,2020-11-02 15:14:45,3,DF:DC:EF:28:D6:3E,15,15,10112.204296699032,25325.039949384027,6227.409800545061
16514,-248,510,24318,-8449,25853,31488,-32062,-19448,-26395,15,1,51825,2020-11-02 15:14:15,2020-11-02 15:14:45,3,DF:DC:EF:28:D6:3E,15,15,18059.40910778188,14544.694718438355,-7348.219255383994
16515,29444,15615,-14085,-11521,-14336,-6915,-26174,-24568,-11803,15,-1,51851,2020-11-02 15:14:15,2020-11-02 15:14:45,3,DF:DC:EF:28:D6:3E,15,15,1799.6185494353485,2843.8772224293753,-36025.52319426153
16516,26877,252,21748,6654,22784,-6914,31938,23560,2278,15,-1,51876,2020-11-02 15:14:15,2020-11-02 15:14:45,3,DF:DC:EF:28:D6:3E,15,15,-22053.87817469665,20926.16799611067,16466.149745893614
16517,-17415,25847,-30488,5630,-5378,-5631,10690,-31992,-1051,15,-1,51902,2020-11-02 15:14:15,2020-11-02 15:14:45,3,DF:DC:EF:28:D6:3E,15,15,120.03998089631932,39619.96108459696,18196.484607143466
16518,-16902,31471,25310,22270,-6911,12550,-23871,-20216,17893,15,-1,51928,2020-11-02 15:14:15,2020-11-02 15:14:45,3,DF:DC:EF:28:D6:3E,15,15,-9943.157826663415,41544.42402575191,-9586.030972336206
16519,10491,31469,-3878,29696,-23290,1536,17601,3080,28900,15,-1,51953,2020-11-02 15:14:15,2020-11-02 15:14:45,3,DF:DC:EF:28:D6:3E,15,15,-26373.713555679573,-18742.06931751589,8280.09643545249
16520,14321,32497,19163,26879,-23550,13556,-26943,-5114,19429,15,-1,51979,2020-11-02 15:14:15,2020-11-02 15:14:45,3,DF:DC:EF:28:D6:3E,15,15,-9133.480090131325,37407.33376858194,12068.037983412347
16521,-12058,-22545,10717,-25604,-4867,24307,-12607,20486,20967,15,-1,52004,2020-11-02 15:14:15,2020-11-02 15:14:45,3,DF:DC:EF:28:D6:3E,15,15,-16758.014249124804,-16931.52211244219,-14178.116778402236
16522,-24347,26092,-4383,13310,-9217,5628,-16703,11270,-29976,15,-1,52030,2020-11-02 15:14:15,2020-11-02 15:14:45,3,DF:DC:EF:28:D6:3E,15,15,5274.615955303794,-34497.36025236713,8653.908027154857
16523,-12566,27882,26343,-22014,10754,-7679,-5695,4870,31208,15,-1,52056,2020-11-02 15:14:15,2020-11-02 15:14:45,3,DF:DC:EF:28:D6:3E,15,15,23172.227603626725,19958.911490502673,26343.0
16524,13040,28651,28136,-29434,12800,1027,-23358,7174,232,15,-1,52081,2020-11-02 15:14:15,2020-11-02 15:14:45,3,DF:DC:EF:28:D6:3E,15,15,9815.859247076427,-40020.93838934721,-9193.981437748209
16525,17143,-26127,-21526,-29945,-2822,-5375,-14141,-19194,-9497,15,-1,52132,2020-11-02 15:14:15,2020-11-02 15:14:45,3,DF:DC:EF:28:D6:3E,15,15,-18985.687260643084,13464.752724673916,-29968.57299412905
16526,-8452,-17924,23282,5383,22522,22272,-60,-27641,10728,15,-1,52134,2020-11-02 15:14:15,2020-11-02 15:14:45,3,DF:DC:EF:28:D6:3E,15,15,27587.537294091308,9791.022762310085,-8821.636090604003
16527,20219,9223,-7430,19973,-19202,7937,-2107,1800,23016,15,-1,52158,2020-11-02 15:14:15,2020-11-02 15:14:45,3,DF:DC:EF:28:D6:3E,15,15,-6236.030956016348,-21330.34476785609,-7430.0
16528,-6153,-22777,20732,20482,21249,20998,14022,21256,-18713,15,-1,52184,2020-11-02 15:14:15,2020-11-02 15:14:45,3,DF:DC:EF:28:D6:3E,15,15,-3254.3455038248408,9003.830356083938,29913.328739219185
16529,-16393,3847,-25093,-23807,-29183,27916,-10043,521,11494,15,-1,52209,2020-11-02 15:14:15,2020-11-02 15:14:45,3,DF:DC:EF:28:D6:3E,15,15,24131.725055908268,-6984.1382700578415,-16794.94463970521
16530,-23562,-7165,-3080,15360,27654,-22509,-11836,-14327,27619,15,-1,52235,2020-11-02 15:14:15,2020-11-02 15:14:45,3,DF:DC:EF:28:D6:3E,15,15,-1638.0094400006742,-2173.517181871296,-24669.499734177403
16531,-26889,27901,31738,18430,21259,31773,-24382,11786,-12322,15,-1,52260,2020-11-02 15:14:15,2020-11-02 15:14:45,3,DF:DC:EF:28:D6:3E,15,15,-43220.590530866524,7104.070598552782,24296.038794296255
16532,-24325,-22281,-4359,-6658,-30194,-22234,-23617,5130,28888,15,-1,52286,2020-11-02 15:14:15,2020-11-02 15:14:45,3,DF:DC:EF:28:D6:3E,15,15,10228.928111112444,28392.81559798748,-14013.083854611463
16533,-21763,-30470,-1033,-25087,13842,-4050,-31044,-10744,-13872,15,1,52312,2020-11-02 15:14:15,2020-11-02 15:14:45,3,DF:DC:EF:28:D6:3E,15,15,-12399.386965290267,-8703.929306468568,-34258.035196330035
16534,-1014,-28955,19701,-29701,-18412,21049,13638,16390,-2361,15,1,52363,2020-11-02 15:14:15,2020-11-02 15:14:45,3,DF:DC:EF:28:D6:3E,15,15,-30973.53560882489,-5864.536953670249,15290.419229304764
16535,21543,-8219,15114,12537,7958,-2777,-21949,16898,30144,15,1,52365,2020-11-02 15:14:15,2020-11-02 15:14:45,3,DF:DC:EF:28:D6:3E,15,15,3744.534688684521,23545.29882145316,-13844.969099774644
16536,-6625,-5142,8700,265,23322,20998,3140,5374,6078,15,1,52388,2020-11-02 15:14:15,2020-11-02 15:14:45,3,DF:DC:EF:28:D6:3E,15,15,747.3410275057781,-8352.979731126288,8700.0
16537,-762,-12559,-27675,-11507,10774,-22032,-9147,14586,31679,15,1,52414,2020-11-02 15:14:15,2020-11-02 15:14:45,3,DF:DC:EF:28:D6:3E,15,15,-29879.124676270792,-5011.4124442517195,2517.618695010202
16538,-9226,3325,-21020,25097,30218,15597,10426,-5385,32194,15,1,52440,2020-11-02 15:14:15,2020-11-02 15:14:45,3,DF:DC:EF:28:D6:3E,15,15,16066.829259093327,14373.973279528209,-8559.263444862041
16539,25078,23553,-8475,-26619,-16376,6904,28858,-18954,-29244,15,1,52465,2020-11-02 15:14:15,2020-11-02 15:14:45,3,DF:DC:EF:28:D6:3E,15,15,-4655.745966186168,-20835.683781904158,28278.504713630762
16540,-13316,24061,-24347,8964,11270,-4609,-5446,-23307,-5180,15,1,52491,2020-11-02 15:14:15,2020-11-02 15:14:45,3,DF:DC:EF:28:D6:3E,15,15,-9721.951897842273,24061.0,25991.84326468673
16541,-7937,32765,5088,23306,515,-31998,14524,10485,-25660,15,1,52516,2020-11-02 15:14:15,2020-11-02 15:14:45,3,DF:DC:EF:28:D6:3E,15,15,1401.174220473924,26315.783879316004,21632.040301853427
16542,12288,-30975,-3884,-12019,13570,8455,-24130,2037,-19261,15,1,52542,2020-11-02 15:14:15,2020-11-02 15:14:45,3,DF:DC:EF:28:D6:3E,15,15,-8893.014768732453,-24688.08041252321,-20903.205468728807
16543,-25593,13822,-21542,28680,4609,-8948,4545,24053,-8767,15,1,52593,2020-11-02 15:14:15,2020-11-02 15:14:45,3,DF:DC:EF:28:D6:3E,15,15,29477.937534066004,-20327.192772663322,-5288.055381771877
16544,530,9460,-21533,-31740,-11523,11272,-20286,6134,9152,15,1,52595,2020-11-02 15:14:15,2020-11-02 15:14:45,3,DF:DC:EF:28:D6:3E,15,15,19677.40674414008,7688.104668347496,10350.618311685728
16545,-29423,-18195,6627,7685,-11532,6646,4803,-4618,-5696,15,1,52619,2020-11-02 15:14:15,2020-11-02 15:14:45,3,DF:DC:EF:28:D6:3E,15,15,-29423.0,-18195.0,6627.0
16546,-3326,4074,27352,-15869,23269,25568,11970,25592,-23099,15,1,52644,2020-11-02 15:14:15,2020-11-02 15:14:45,3,DF:DC:EF:28:D6:3E,15,15,14886.417278057548,23407.874260571494,2501.5313759423934
16547,2543,25091,-28184,-3590,10452,-8242,-18753,-3845,-1587,15,1,52670,2020-11-02 15:14:15,2020-11-02 15:14:45,3,DF:DC:EF:28:D6:3E,15,15,2543.0,-28817.22803936107,24361.106401956826
16548,-6954,21517,6142,-32006,30415,4312,958,-22783,-21546,15,1,52696,2020-11-02 15:14:15,2020-11-02 15:14:45,3,DF:DC:EF:28:D6:3E,15,15,-2920.947878290258,-22150.879186892722,-7061.882450168252
16549,-22545,8712,6133,775,-6437,-16904,8895,-24569,-2086,15,1,52721,2020-11-02 15:14:15,2020-11-02 15:14:45,3,DF:DC:EF:28:D6:3E,15,15,22792.232010978416,-453.62786110359593,10104.357462073545
16550,13056,15362,7412,-13815,24302,22016,-3136,17163,17884,15,1,52747,2020-11-02 15:14:15,2020-11-02 15:14:45,3,DF:DC:EF:28:D6:3E,15,15,-3461.3101960041777,-15023.891522730453,-14956.26755712352
16551,-30728,-30970,9970,-31223,4852,-5379,451,-756,16349,15,1,52773,2020-11-02 15:14:15,2020-11-02 15:14:45,3,DF:DC:EF:28:D6:3E,15,15,40948.301302211956,-15052.823803634548,9970.0
16552,2541,19464,-4116,-22268,-22027,-10235,21956,-22002,-4643,15,1,52798,2020-11-02 15:14:15,2020-11-02 15:14:45,3,DF:DC:EF:28:D6:3E,15,15,-3478.230799473759,-18688.364000656657,-6394.716137918276
16553,6136,-11008,-10513,-7425,5369,-25836,9667,-7152,-8741,15,1,52824,2020-11-02 15:14:15,2020-11-02 15:14:45,3,DF:DC:EF:28:D6:3E,15,15,11024.330387933118,-11804.349896017822,-2910.531228157247
16554,9731,-30724,-17930,19967,-2305,11801,-25921,32530,6871,15,1,52849,2020-11-02 15:14:15,2020-11-02 15:14:45,3,DF:DC:EF:28:D6:3E,15,15,-20850.868107178416,29810.37588236499,6060.0516441002155
16555,7687,20732,25588,19710,28163,21527,26299,-20718,-25135,15,1,52875,2020-11-02 15:14:15,2020-11-02 15:14:45,3,DF:DC:EF:28:D6:3E,15,15,-2415.637952293764,-6097.453941143919,33175.853956139035
16556,28168,-14083,18672,-9479,-2557,-9965,-6333,-4591,-7732,15,1,52901,2020-11-02 15:14:15,2020-11-02 15:14:45,3,DF:DC:EF:28:D6:3E,15,15,22037.564386704842,-19324.555973677558,21938.960534219514
16557,-4596,-1546,18928,-31245,16384,27407,-1217,-496,24009,15,1,52926,2020-11-02 15:14:15,2020-11-02 15:14:45,3,DF:DC:EF:28:D6:3E,15,15,1834.1294237431036,4488.797306290382,18928.0
16558,-23533,-22028,5105,25327,12030,-1270,1084,27152,-6202,15,1,52952,2020-11-02 15:14:15,2020-11-02 15:14:45,3,DF:DC:EF:28:D6:3E,15,15,-12312.332637857104,-21594.446670356105,-21146.683806590216
16559,27669,758,25582,24560,-20985,-18425,-9416,14095,-18491,15,-1,52977,2020-11-02 15:14:15,2020-11-02 15:14:45,3,DF:DC:EF:28:D6:3E,15,15,2626.387392823819,-21783.42173825959,-30645.90471230921
16560,-18935,-19200,15854,-5387,-23273,27142,-25801,20236,-13882,15,-1,53003,2020-11-02 15:14:15,2020-11-02 15:14:45,3,DF:DC:EF:28:D6:3E,15,15,-5837.395375753063,-14080.461125509622,27316.459703265886
16561,-3330,30981,-13342,22267,-16615,-24314,-27593,27912,-19256,15,-1,53029,2020-11-02 15:14:15,2020-11-02 15:14:45,3,DF:DC:EF:28:D6:3E,15,15,20513.06998079142,13179.977395187476,-23546.175503157636
16562,-21251,21767,13789,22015,-17387,-30713,-21705,6149,-567,15,-1,53054,2020-11-02 15:14:15,2020-11-02 15:14:45,3,DF:DC:EF:28:D6:3E,15,15,-25553.686467262305,-19603.262882364386,8846.751002360694
16563,14842,-22000,-19753,15624,-12008,32767,-19400,-25087,-13365,15,-1,53080,2020-11-02 15:14:15,2020-11-02 15:14:45,3,DF:DC:EF:28:D6:3E,15,15,14170.289456391887,-14675.79020089261,-26044.002221268784
16564,-19222,20253,-4140,1537,-31732,6648,-22215,4352,3278,15,-1,53105,2020-11-02 15:14:15,2020-11-02 15:14:45,3,DF:DC:EF:28:D6:3E,15,15,-19222.0,-20634.55486701667,1240.4654126893533
16565,-32271,-32746,30183,2564,24846,4359,-10439,11006,3023,15,-1,53131,2020-11-02 15:14:15,2020-11-02 15:14:45,3,DF:DC:EF:28:D6:3E,15,15,19473.1385590554,7705.379426498635,50854.25693640132
16566,-22275,25102,-13083,24845,-19703,-17142,23611,4604,-27442,15,-1,53157,2020-11-02 15:14:15,2020-11-02 15:14:45,3,DF:DC:EF:28:D6:3E,15,15,34470.635479266064,338.94046297084424,-10445.63674546098
16567,-32250,28422,11743,-5100,-30713,-8959,16446,29690,14542,15,-1,53182,2020-11-02 15:14:15,2020-11-02 15:14:45,3,DF:DC:EF:28:D6:3E,15,15,32634.299455299355,-17226.32210516274,-24980.531595445078
16568,-25345,-28666,31448,26900,-14847,11760,9537,13306,-17201,15,-1,53208,2020-11-02 15:14:15,2020-11-02 15:14:45,3,DF:DC:EF:28:D6:3E,15,15,-9943.227868773245,40957.580155920354,26013.345273551633
16569,-2321,-22012,1239,-10231,-24068,-26134,-19134,6907,-7982,15,-1,53234,2020-11-02 15:14:15,2020-11-02 15:14:45,3,DF:DC:EF:28:D6:3E,15,15,18661.281555666606,11592.835138222787,2968.67818365756
16570,-29716,-11009,12787,-3590,-11277,-15634,15938,3581,-27947,15,-1,53259,2020-11-02 15:14:15,2020-11-02 15:14:45,3,DF:DC:EF:28:D6:3E,15,15,24755.97228862039,-17883.68394551876,-15331.72497085224
16571,31983,-24064,8970,24574,-10764,31736,29505,30719,-1322,15,-1,53285,2020-11-02 15:14:15,2020-11-02 15:14:45,3,DF:DC:EF:28:D6:3E,15,15,-15495.275642516332,1775.5039127412756,37936.701274864165
16572,-9740,-23291,22278,18952,-29702,-27132,5954,-17664,-17450,15,-1,53310,2020-11-02 15:14:15,2020-11-02 15:14:45,3,DF:DC:EF:28:D6:3E,15,15,-15023.834176377857,29505.585250161446,6111.661859605454
16573,3831,28425,-18702,-14328,-31236,30729,31299,8193,24533,15,-1,53336,2020-11-02 15:14:15,2020-11-02 15:14:45,3,DF:DC:EF:28:D6:3E,15,15,9086.931710431438,25622.091643727075,-20817.254427287156
16574,16375,-13044,16109,30463,16889,25864,-9405,-7935,-3117,15,-1,53362,2020-11-02 15:14:15,2020-11-02 15:14:45,3,DF:DC:EF:28:D6:3E,15,15,-7712.595533737127,6507.552816526389,24412.170499017448
16575,-27910,3085,-7949,-9478,10747,1290,1347,-23294,28882,15,-1,53387,2020-11-02 15:14:15,2020-11-02 15:14:45,3,DF:DC:EF:28:D6:3E,15,15,6426.724004020936,-10850.024471855284,26318.170786289127
16576,12539,-18423,24302,11770,18429,5135,-7615,-14590,28368,15,-1,53413,2020-11-02 15:14:15,2020-11-02 15:14:45,3,DF:DC:EF:28:D6:3E,15,15,28371.846471443903,16792.70685727345,-513.7880949354958
16577,25097,24066,-21268,-2827,31738,-18925,16192,-12286,-32307,15,-1,53438,2020-11-02 15:14:15,2020-11-02 15:14:45,3,DF:DC:EF:28:D6:3E,15,15,-19830.799102377663,-34168.41312149218,10030.879359267481
16578,-30444,-3,-18192,16370,-29184,-16883,5182,16130,-4662,15,-1,53464,2020-11-02 15:14:15,2020-11-02 15:14:45,3,DF:DC:EF:28:D6:3E,15,15,-3872.7644969715966,-3.0,35253.19411274667
16579,-21486,-11788,2801,18415,27396,31235,-17605,6913,7114,15,-1,53490,2020-11-02 15:14:15,2020-11-02 15:14:45,3,DF:DC:EF:28:D6:3E,15,15,-16929.350068076074,-4035.237602654156,17480.40917034434
16580,-28146,18676,-16140,22508,-19455,6398,-1224,-16896,25802,15,-1,53515,2020-11-02 15:14:15,2020-11-02 15:14:45,3,DF:DC:EF:28:D6:3E,15,15,-3114.9119158803824,-32178.655829017043,-18876.47543356476
16581,-27377,249,-14599,-1550,7946,-7933,-28618,-13313,-12598,15,-1,53541,2020-11-02 15:14:15,2020-11-02 15:14:45,3,DF:DC:EF:28:D6:3E,15,15,8839.550423524475,-6843.79085187664,-28943.355128349198
16582,-19956,-25863,17144,-29447,27154,-7931,16181,22013,-14645,15,-1,53566,2020-11-02 15:14:15,2020-11-02 15:14:45,3,DF:DC:EF:28:D6:3E,15,15,-10809.894847308211,-12022.72774327825,33161.025798384864
16583,27395,32511,-31501,1790,18449,31234,30516,-9990,24013,15,-1,53592,2020-11-02 15:14:15,2020-11-02 15:14:45,3,DF:DC:EF:28:D6:3E,15,15,-47618.47293454797,-23029.134523124605,1379.9077858873852
16584,-23556,32004,748,-28161,19469,28675,1588,4601,-18738,15,-1,53618,2020-11-02 15:14:15,2020-11-02 15:14:45,3,DF:DC:EF:28:D6:3E,15,15,27836.66798786808,-28359.496951342422,748.0
16585,29186,-24312,18159,23811,2058,23298,-3021,29687,-15921,15,-1,53643,2020-11-02 15:14:15,2020-11-02 15:14:45,3,DF:DC:EF:28:D6:3E,15,15,-18305.69500999762,18423.013123842262,33138.185506145084
16586,-25344,25106,20971,-29429,-4346,-18948,-12492,-7178,-16688,15,1,53669,2020-11-02 15:14:15,2020-11-02 15:14:45,3,DF:DC:EF:28:D6:3E,15,15,2487.53209999496,-15281.114172825684,-38375.93186736396
16587,26619,-12000,-3357,-12271,-25851,-24838,-17354,-17930,6098,15,1,53694,2020-11-02 15:14:15,2020-11-02 15:14:45,3,DF:DC:EF:28:D6:3E,15,15,-24218.858983560443,-16607.919178234504,-1210.1653207905888
16588,-27912,14879,-31519,22540,30206,-4098,-18120,-266,-17454,15,1,53720,2020-11-02 15:14:15,2020-11-02 15:14:45,3,DF:DC:EF:28:D6:3E,15,15,24926.262598727164,22925.077056368384,29103.848900426674
16589,14086,-32241,-30230,-21238,9462,-16898,31546,-1289,11474,15,1,53746,2020-11-02 15:14:15,2020-11-02 15:14:45,3,DF:DC:EF:28:D6:3E,15,15,28813.15219562888,28677.63766603218,22341.56967286092
16590,-2558,-5882,-6684,20498,-20748,-32015,-20420,8186,-31022,15,1,53771,2020-11-02 15:14:15,2020-11-02 15:14:45,3,DF:DC:EF:28:D6:3E,15,15,-3293.8994185535203,6068.096872239063,6176.210081399053
16591,-9744,-16638,24276,-25076,32753,21995,-8642,2557,-21548,15,1,53797,2020-11-02 15:14:15,2020-11-02 15:14:45,3,DF:DC:EF:28:D6:3E,15,15,11260.617519611855,-9948.460681122344,27116.773022488742
16592,-11786,-1796,-18208,29442,4844,30445,-18369,-20480,-24106,15,1,53823,2020-11-02 15:14:15,2020-11-02 15:14:45,3,DF:DC:EF:28:D6:3E,15,15,-5341.631736902482,7395.538877862232,-19759.54582204116
16593,11525,-18932,13052,-1020,-10772,-26904,30016,-30204,-12584,15,1,53848,2020-11-02 15:14:15,2020-11-02 15:14:45,3,DF:DC:EF:28:D6:3E,15,15,-3584.9996322418574,-25004.198433461508,-4851.679228566825
16594,25588,282,22516,11531,-17927,-20502,-14014,3847,7644,15,1,53874,2020-11-02 15:14:15,2020-11-02 15:14:45,3,DF:DC:EF:28:D6:3E,15,15,-3304.0539959158978,32530.162640076487,-9626.3840460603
16595,11250,16906,22776,3066,25082,-11267,18243,1544,-32547,15,1,53899,2020-11-02 15:14:15,2020-11-02 15:14:45,3,DF:DC:EF:28:D6:3E,15,15,22322.661783712596,5128.564478986896,-20162.29424631163
16596,-13826,-6655,-3071,-17411,8179,1284,7490,-29431,-16932,15,1,53925,2020-11-02 15:14:15,2020-11-02 15:14:45,3,DF:DC:EF:28:D6:3E,15,15,3609.118784492427,10316.831699784545,11198.910093296787
16597,-8455,-26619,-7697,-12025,-23815,-19709,25410,-5878,-9509,15,1,53950,2020-11-02 15:14:15,2020-11-02 15:14:45,3,DF:DC:EF:28:D6:3E,15,15,-4175.287133094373,27924.392602548214,6488.240912217063
16598,-12297,7175,7145,-17406,-13571,5132,-29374,12299,22490,15,1,53976,2020-11-02 15:14:15,2020-11-02 15:14:45,3,DF:DC:EF:28:D6:3E,15,15,-12404.581647987936,6633.153732439975,7474.990615393343
16599,-22270,-18432,-29958,-14342,-17154,23056,-10944,-6646,-25385,15,1,54002,2020-11-02 15:14:15,2020-11-02 15:14:45,3,DF:DC:EF:28:D6:3E,15,15,34107.91983414332,14311.592320038875,-19105.01028140673
16600,15624,-11770,-4613,16636,-18683,20495,9791,-25847,9941,15,1,54027,2020-11-02 15:14:15,2020-11-02 15:14:45,3,DF:DC:EF:28:D6:3E,15,15,-8501.946468478403,-17826.675270777665,-3721.3707202281857
16601,7176,-24058,4084,13051,8708,25356,-10435,6664,23507,15,1,54053,2020-11-02 15:14:15,2020-11-02 15:14:45,3,DF:DC:EF:28:D6:3E,15,15,-22119.261871021426,-10981.346679792649,6091.771120075398
16602,24334,3332,-25869,18420,-30720,-30712,1084,7175,-2863,15,-1,54081,2020-11-02 15:14:15,2020-11-02 15:14:45,3,DF:DC:EF:28:D6:3E,15,15,-8620.296595000162,3332.0,-34453.435294818264
16603,20753,-12545,24313,3825,28162,19202,-21191,-31994,24785,15,-1,54104,2020-11-02 15:14:15,2020-11-02 15:14:45,3,DF:DC:EF:28:D6:3E,15,15,22124.913749931296,1367.2332752636667,-26226.034159382787
16604,14344,-15873,-32517,20467,1539,-3589,-18377,5638,-6959,15,-1,54130,2020-11-02 15:14:15,2020-11-02 15:14:45,3,DF:DC:EF:28:D6:3E,15,15,17111.756839576672,-6059.006684925409,34431.58389989095
16605,-1801,7677,-16400,10229,28422,-29695,21046,-13051,-22062,15,-1,54155,2020-11-02 15:14:15,2020-11-02 15:14:45,3,DF:DC:EF:28:D6:3E,15,15,14102.839756530793,7349.547748405797,-8844.997947739601
16606,-1029,30473,-16913,-15620,-16120,26638,20533,-12285,31698,15,-1,54181,2020-11-02 15:14:15,2020-11-02 15:14:45,3,DF:DC:EF:28:D6:3E,15,15,-31946.646332167726,10058.217681520295,-9693.099824026716
16607,11010,16392,17649,-30720,27392,-2035,4149,-5375,14033,15,-1,54207,2020-11-02 15:14:15,2020-11-02 15:14:45,3,DF:DC:EF:28:D6:3E,15,15,-19486.980090910612,3189.885724669998,17649.0
16608,-12031,-26870,-5653,8458,521,-28147,-9163,-7169,9936,15,-1,54232,2020-11-02 15:14:15,2020-11-02 15:14:45,3,DF:DC:EF:28:D6:3E,15,15,3815.872643240513,-29731.156336592067,442.41254467972885
16609,2813,-26093,17626,-3569,11785,18952,10040,-25603,-5681,15,-1,54258,2020-11-02 15:14:15,2020-11-02 15:14:45,3,DF:DC:EF:28:D6:3E,15,15,-11248.126313458402,-28929.875645241355,5997.953283192178
16610,31478,-3815,31180,25865,-23041,-23807,12858,-2564,-19249,15,-1,54283,2020-11-02 15:14:15,2020-11-02 15:14:45,3,DF:DC:EF:28:D6:3E,15,15,-34939.96113470255,22054.274214230354,-16444.428046879875
16611,32252,27155,-32038,-19199,-22276,-14850,-10182,23293,32207,15,-1,54309,2020-11-02 15:14:15,2020-11-02 15:14:45,3,DF:DC:EF:28:D6:3E,15,15,-9140.933496741181,-12415.032573229884,50658.95058145003
16612,17667,14083,23783,-1533,1019,14068,12859,31998,5072,15,-1,54335,2020-11-02 15:14:15,2020-11-02 15:14:45,3,DF:DC:EF:28:D6:3E,15,15,2222.5096563167926,-27486.416601288598,17766.322642797673
16613,-511,6643,5866,-5364,30459,-4382,-24772,-24064,-18222,15,-1,54360,2020-11-02 15:14:15,2020-11-02 15:14:45,3,DF:DC:EF:28:D6:3E,15,15,-2463.876745606641,8519.110734309535,-393.1789402178747
16614,4598,-7693,-29209,-18670,9210,-15405,-6593,23811,728,15,-1,54411,2020-11-02 15:14:15,2020-11-02 15:14:45,3,DF:DC:EF:28:D6:3E,15,15,4039.0563083186735,-28735.07163429745,9564.058568935332
16615,20710,-30462,-13068,-3321,19177,-22321,-22717,17415,2271,15,1,54413,2020-11-02 15:14:15,2020-11-02 15:14:45,3,DF:DC:EF:28:D6:3E,15,15,-18070.397375335167,28312.995166116423,-19986.12547296118
16616,-29465,-13808,-16384,11521,32492,233,8262,17675,30436,15,1,54437,2020-11-02 15:14:15,2020-11-02 15:14:45,3,DF:DC:EF:28:D6:3E,15,15,13521.300715685888,-23407.198583001584,24424.57832700333
16617,-28432,27652,-8710,-17143,24320,-3326,-4166,-30708,-22555,15,1,54463,2020-11-02 15:14:15,2020-11-02 15:14:45,3,DF:DC:EF:28:D6:3E,15,15,20155.267829719545,-25058.46107582512,24793.43734183765
16618,19707,-24317,29177,-16885,26374,-10226,-28229,-10997,32739,15,1,54488,2020-11-02 15:14:15,2020-11-02 15:14:45,3,DF:DC:EF:28:D6:3E,15,15,6032.82982465289,-42203.727018744205,-3664.7042219119794
16619,-4354,-29689,-30731,16906,28420,-1269,-1349,22539,2273,15,1,54514,2020-11-02 15:14:15,2020-11-02 15:14:45,3,DF:DC:EF:28:D6:3E,15,15,-26.331637489440254,-29689.0,31037.89592812095
16620,13054,-14588,-5901,17414,-31739,-27128,20668,-28662,11231,15,1,54539,2020-11-02 15:14:15,2020-11-02 15:14:45,3,DF:DC:EF:28:D6:3E,15,15,-8892.41249133452,14421.65344648542,-11444.622010072377
16621,5887,3590,17143,30206,-24577,18949,-1349,22538,734,15,1,54565,2020-11-02 15:14:15,2020-11-02 15:14:45,3,DF:DC:EF:28:D6:3E,15,15,-3408.865529316519,3590.0,-17802.214856669874
16622,21247,12805,11513,-2310,-28675,4101,-2374,-19702,13277,15,1,54591,2020-11-02 15:14:15,2020-11-02 15:14:45,3,DF:DC:EF:28:D6:3E,15,15,-2214.046913792389,-25932.608134087583,-8399.40680211293
16623,-31488,31235,-12551,-25094,26110,-15097,12870,-502,3548,15,1,54642,2020-11-02 15:14:15,2020-11-02 15:14:45,3,DF:DC:EF:28:D6:3E,15,15,-31488.0,-1585.7544354608617,33624.96407240335
16624,-6396,-23550,-29703,7162,-6148,-21495,-29628,18187,28122,15,1,54644,2020-11-02 15:14:15,2020-11-02 15:14:45,3,DF:DC:EF:28:D6:3E,15,15,15221.731084686257,-15731.568191972005,31600.572621502142
16625,-31736,-12031,-6151,25337,-9732,-14073,-12734,-29685,-10536,15,1,54667,2020-11-02 15:14:15,2020-11-02 15:14:45,3,DF:DC:EF:28:D6:3E,15,15,1636.7747465245325,-3634.491873244081,34261.71179687994
16626,17672,-21247,-14087,11000,-17411,15364,9025,-17653,-15145,15,1,54693,2020-11-02 15:14:15,2020-11-02 15:14:45,3,DF:DC:EF:28:D6:3E,15,15,6123.685703943232,12481.7793310028,27728.754391993025
16627,-9723,-15363,14584,-28937,-9730,-4352,-22209,-14069,20183,15,1,54719,2020-11-02 15:14:15,2020-11-02 15:14:45,3,DF:DC:EF:28:D6:3E,15,15,-17487.91821328096,-14949.056497326366,-3734.967256260824
16628,11772,16130,-10508,-10248,-15622,28665,-26818,28428,-22057,15,1,54744,2020-11-02 15:14:15,2020-11-02 15:14:45,3,DF:DC:EF:28:D6:3E,15,15,21544.14781413305,5688.024218713301,-3559.6381066221893
16629,9451,-32265,21738,-29443,-9221,-20231,-28866,-29683,-25128,15,1,54770,2020-11-02 15:14:15,2020-11-02 15:14:45,3,DF:DC:EF:28:D6:3E,15,15,36477.66599708293,3658.060096781217,-16090.082340796042
16630,22758,-24322,25826,-18684,-17663,-6399,7743,-13811,-1576,15,1,54795,2020-11-02 15:14:15,2020-11-02 15:14:45,3,DF:DC:EF:28:D6:3E,15,15,-3548.952104220836,-34873.06233697363,23403.909635005384
16631,-13333,17417,-19238,19720,-18176,-23293,-12481,14093,23256,15,1,54821,2020-11-02 15:14:15,2020-11-02 15:14:45,3,DF:DC:EF:28:D6:3E,15,15,-17696.21005065162,17361.99522699178,15382.675111342993
16632,4329,7433,-18993,-249,18689,17409,6721,11789,10200,15,1,54847,2020-11-02 15:14:15,2020-11-02 15:14:45,3,DF:DC:EF:28:D6:3E,15,15,-19769.96904494207,6222.942407589481,-2268.720069523084
16633,7665,14343,16347,-3069,-27127,30720,-12991,3852,4056,15,-1,54872,2020-11-02 15:14:15,2020-11-02 15:14:45,3,DF:DC:EF:28:D6:3E,15,15,7665.0,8895.490959723757,-19844.80532999689
16634,21233,-24067,29411,-25341,-29428,1778,12099,31498,-16423,15,-1,54898,2020-11-02 15:14:15,2020-11-02 15:14:45,3,DF:DC:EF:28:D6:3E,15,15,-31334.163343422784,-28269.18856894208,10681.333447715899
16635,-11537,7152,-31259,-14072,-760,10471,-16315,7177,32733,15,-1,54923,2020-11-02 15:14:15,2020-11-02 15:14:45,3,DF:DC:EF:28:D6:3E,15,15,-30325.720845786018,-8178.533104997623,13222.738197284152
16636,31986,-2585,32479,20238,15620,-27934,-6724,-2041,5346,15,-1,54949,2020-11-02 15:14:15,2020-11-02 15:14:45,3,DF:DC:EF:28:D6:3E,15,15,31986.0,25933.45465490653,19723.681088019723
16637,-23567,21224,-5397,-20985,25340,13532,27328,-16378,18151,15,-1,54975,2020-11-02 15:14:15,2020-11-02 15:14:45,3,DF:DC:EF:28:D6:3E,15,15,-18458.710424063087,20770.145946372293,-16213.152711517256
16638,-3351,-12796,-23290,24830,-28945,4567,-32062,-25082,750,15,-1,55000,2020-11-02 15:14:15,2020-11-02 15:14:45,3,DF:DC:EF:28:D6:3E,15,15,-12095.715652416256,18703.605031717052,14874.802138967123
16639,23769,28162,26378,-24322,-4621,18153,-10813,1799,-15117,15,-1,55026,2020-11-02 15:14:15,2020-11-02 15:14:45,3,DF:DC:EF:28:D6:3E,15,15,24127.527762440124,-37182.107146250986,-9445.411649970192
16640,28902,-31490,8197,-16883,-31487,268,8389,-21753,10996,15,-1,55052,2020-11-02 15:14:15,2020-11-02 15:14:45,3,DF:DC:EF:28:D6:3E,15,15,6344.13404400618,-34375.66775261486,25926.857557241994
16641,-5394,18438,-7694,2578,22523,-18412,-5946,30985,-24847,15,-1,55077,2020-11-02 15:14:15,2020-11-02 15:14:45,3,DF:DC:EF:28:D6:3E,15,15,-13969.85120612474,10838.631124450501,-10752.676347162505
16642,20727,26874,7147,21250,1537,18206,-23354,2828,1518,15,-1,55105,2020-11-02 15:14:15,2020-11-02 15:14:45,3,DF:DC:EF:28:D6:3E,15,15,20727.0,-22974.88610105447,15666.719300593028
16643,30471,-28692,-8188,-30211,-21502,-8421,27587,-10483,-8216,15,-1,55128,2020-11-02 15:14:15,2020-11-02 15:14:45,3,DF:DC:EF:28:D6:3E,15,15,7156.569801140482,12096.187687602265,40264.39868056772
16644,17152,-9221,25329,-28668,18678,26123,12738,24079,6886,15,-1,55154,2020-11-02 15:14:15,2020-11-02 15:14:45,3,DF:DC:EF:28:D6:3E,15,15,17832.522302391757,-7752.61255665709,25351.022324179812
16645,18686,-1038,8178,2555,-18943,28942,-17216,4880,-14621,15,-1,55180,2020-11-02 15:14:15,2020-11-02 15:14:45,3,DF:DC:EF:28:D6:3E,15,15,-5792.313195718745,-17899.03579088375,-7949.6760688323
16646,-26627,-27142,-21517,-13317,1782,-6649,-18754,17937,5602,15,-1,55205,2020-11-02 15:14:15,2020-11-02 15:14:45,3,DF:DC:EF:28:D6:3E,15,15,29907.15088422109,23833.89712930513,-21122.8373003755
16647,-7679,12548,-15887,32757,31491,-754,-13637,-17903,21215,15,-1,55231,2020-11-02 15:14:15,2020-11-02 15:14:45,3,DF:DC:EF:28:D6:3E,15,15,-5420.94420591024,20639.370990353924,3666.8573791388453
16648,23047,-28417,14335,-8968,-30972,4880,25412,-8176,-20261,15,-1,55256,2020-11-02 15:14:15,2020-11-02 15:14:45,3,DF:DC:EF:28:D6:3E,15,15,1934.4506707372548,-29445.03614944008,25950.531203824154
16649,9990,7169,-30471,-9986,4350,30473,11842,-29680,11737,15,-1,55282,2020-11-02 15:14:15,2020-11-02 15:14:45,3,DF:DC:EF:28:D6:3E,15,15,-31322.0892220252,9028.663877317287,-4133.576823759178
16650,-4609,-30717,29940,-23040,-25599,-19449,10561,17424,-24873,15,-1,55308,2020-11-02 15:14:15,2020-11-02 15:14:45,3,DF:DC:EF:28:D6:3E,15,15,29536.42002844908,29736.189896301916,10224.454623797985
16651,5885,-31742,-13072,-5379,-1018,-21750,-1985,-3058,726,15,-1,55333,2020-11-02 15:14:15,2020-11-02 15:14:45,3,DF:DC:EF:28:D6:3E,15,15,5885.0,-31742.0,-13072.0
16652,1529,4860,-17687,-19461,-26114,-30463,-450,23310,8405,15,-1,55359,2020-11-02 15:14:15,2020-11-02 15:14:45,3,DF:DC:EF:28:D6:3E,15,15,2602.713522675248,13048.4505332075,12718.145737540526
16653,24573,-772,15853,5884,8184,-8707,13886,6671,-2348,15,-1,55384,2020-11-02 15:14:15,2020-11-02 15:14:45,3,DF:DC:EF:28:D6:3E,15,15,7134.822751151671,-14093.826749653137,-24621.21592977102
16654,-17415,12032,-22559,-2045,2048,17139,13119,9488,17366,15,-1,55410,2020-11-02 15:14:15,2020-11-02 15:14:45,3,DF:DC:EF:28:D6:3E,15,15,-9807.648236455425,-14264.458129471896,25637.76511988703
16655,31982,1020,5854,26622,-27388,29675,6978,2064,2522,15,-1,55436,2020-11-02 15:14:15,2020-11-02 15:14:45,3,DF:DC:EF:28:D6:3E,15,15,31982.0,-4374.862793079923,4021.2301030561443
16656,-1308,10492,-24600,-29452,-21003,13280,-21180,10769,-30497,15,-1,55461,2020-11-02 15:14:15,2020-11-02 15:14:45,3,DF:DC:EF:28:D6:3E,15,15,18548.515278866384,13847.697326472575,13459.078263538873
16657,16095,11003,-29711,-2570,-19200,-16656,-10823,2834,-24860,15,1,55487,2020-11-02 15:14:15,2020-11-02 15:14:45,3,DF:DC:EF:28:D6:3E,15,15,3901.232878879142,24636.5677972513,-25311.627055489585
16658,-11291,-30982,28396,-15102,-15606,1274,-1350,-752,28390,15,1,55512,2020-11-02 15:14:15,2020-11-02 15:14:45,3,DF:DC:EF:28:D6:3E,15,15,-16066.96478645919,28796.24363611824,28396.0
16659,29413,-9482,-29720,9219,-1270,-5127,14780,3087,26599,15,1,55538,2020-11-02 15:14:15,2020-11-02 15:14:45,3,DF:DC:EF:28:D6:3E,15,15,4212.722853873005,-42503.321037297144,3745.925781019958
16660,-30745,13559,-32274,-31490,-5376,22008,2237,13326,-24088,15,1,55564,2020-11-02 15:14:15,2020-11-02 15:14:45,3,DF:DC:EF:28:D6:3E,15,15,557.774950530089,-21389.523324513106,41387.07239047806
16661,31466,-26640,10739,29182,-29956,-19976,-20803,30478,14314,15,1,55589,2020-11-02 15:14:15,2020-11-02 15:14:45,3,DF:DC:EF:28:D6:3E,15,15,-31816.032940021647,2502.359544079013,28224.15847588045
16662,-28943,-1559,-26641,21001,-9470,15867,8383,20238,23787,15,1,55615,2020-11-02 15:14:15,2020-11-02 15:14:45,3,DF:DC:EF:28:D6:3E,15,15,-952.0823075209009,-34110.07889594519,19633.30507051984
16663,-21781,-12302,-8994,19718,-9981,12541,-6208,-28659,1004,15,1,55640,2020-11-02 15:14:15,2020-11-02 15:14:45,3,DF:DC:EF:28:D6:3E,15,15,-911.7490332563766,-14214.989004152078,22444.28662961226
16664,-13578,-30730,28917,7426,14591,-20990,10689,29709,-14613,15,1,55666,2020-11-02 15:14:15,2020-11-02 15:14:45,3,DF:DC:EF:28:D6:3E,15,15,-39704.56503693667,11613.80330510078,-15923.409214678131
16665,3577,16631,-2828,-16123,-5634,26882,-13887,-17395,27883,15,1,55692,2020-11-02 15:14:15,2020-11-02 15:14:45,3,DF:DC:EF:28:D6:3E,15,15,-6155.589203321973,7395.262094239221,14310.887258218985
16666,13816,-4599,-22275,-26107,-9471,-22011,7362,-4339,-18198,15,1,55717,2020-11-02 15:14:15,2020-11-02 15:14:45,3,DF:DC:EF:28:D6:3E,15,15,-11383.277992732148,-18045.918757302174,-15905.15892234433
16667,27640,25095,26615,-21500,-8188,-25331,-23103,14,-26392,15,1,55743,2020-11-02 15:14:15,2020-11-02 15:14:45,3,DF:DC:EF:28:D6:3E,15,15,9591.004618744772,44805.74416303821,1595.2336504674277
16668,15869,-29430,-2826,11778,12041,-15344,6848,-18419,17381,15,1,55769,2020-11-02 15:14:15,2020-11-02 15:14:45,3,DF:DC:EF:28:D6:3E,15,15,13788.24082563204,11694.334292374117,28267.707678419498
16669,-15359,8713,-11784,-26115,13574,8973,10942,3597,7138,15,1,55794,2020-11-02 15:14:15,2020-11-02 15:14:45,3,DF:DC:EF:28:D6:3E,15,15,-20603.794516730602,-5023.01611022519,964.8143182810436
16670,-9981,-31231,5115,32505,-18177,29188,-27972,-15092,-32032,15,1,55820,2020-11-02 15:14:15,2020-11-02 15:14:45,3,DF:DC:EF:28:D6:3E,15,15,-7726.374704848197,32199.889051666865,2151.563612962971
16671,-19711,15873,-24584,-13067,-22018,-11010,13243,-8436,28896,15,1,55845,2020-11-02 15:14:15,2020-11-02 15:14:45,3,DF:DC:EF:28:D6:3E,15,15,6193.7113186876395,34581.1658145602,-3260.309342171936
16672,-3072,-23808,-11526,4597,-27138,6398,-17991,4109,-13600,15,1,55871,2020-11-02 15:14:15,2020-11-02 15:14:45,3,DF:DC:EF:28:D6:3E,15,15,21231.291236722504,-6338.228300164326,14770.438667706052
16673,4354,22784,-30980,4856,19455,14847,2629,13837,993,15,1,55897,2020-11-02 15:14:15,2020-11-02 15:14:45,3,DF:DC:EF:28:D6:3E,15,15,-29981.937609385877,22784.0,8933.147999831453
16674,-7426,-767,-9222,4090,26625,9729,2628,16397,6369,15,1,55922,2020-11-02 15:14:15,2020-11-02 15:14:45,3,DF:DC:EF:28:D6:3E,15,15,-2215.619144576551,-4870.198026118077,10590.14881824526
16675,-1536,-11520,15351,-4361,5892,19717,-20670,-24564,28896,15,1,55948,2020-11-02 15:14:15,2020-11-02 15:14:45,3,DF:DC:EF:28:D6:3E,15,15,10384.886366235674,12736.019686454974,10033.485670822658
16676,4612,27649,-31494,8439,23811,-8189,-4288,-5365,-18721,15,-1,55973,2020-11-02 15:14:15,2020-11-02 15:14:45,3,DF:DC:EF:28:D6:3E,15,15,-664.0182914739858,-28023.148015677823,-31494.0
16677,-5119,21761,-15113,19449,21509,-8960,-21185,9483,-27169,15,-1,55999,2020-11-02 15:14:15,2020-11-02 15:14:45,3,DF:DC:EF:28:D6:3E,15,15,13185.660641940009,20954.893594969122,10732.14046027707
16678,-15622,-30208,5871,-26117,-27387,17919,6207,20746,-3361,15,-1,56025,2020-11-02 15:14:15,2020-11-02 15:14:45,3,DF:DC:EF:28:D6:3E,15,15,12326.160223046567,-21261.728207471926,24228.98010208802
16679,24567,18426,15595,-4613,1286,-32001,-23234,30729,23776,15,-1,56050,2020-11-02 15:14:15,2020-11-02 15:14:45,3,DF:DC:EF:28:D6:3E,15,15,-20250.7826314341,13035.435783332085,24621.98624711322
16680,14071,-15625,-12565,-26368,28418,-21511,-9922,-248,14305,15,-1,56076,2020-11-02 15:14:15,2020-11-02 15:14:45,3,DF:DC:EF:28:D6:3E,15,15,11434.967091233451,20707.883719379803,6359.085664390207
16681,-28944,-10501,31459,4098,14335,-27405,-5313,-28151,-4638,15,-1,56101,2020-11-02 15:14:15,2020-11-02 15:14:45,3,DF:DC:EF:28:D6:3E,15,15,42727.3106621685,-10501.0,1341.9167554443047
16682,8167,4611,12508,27395,-16892,-29451,15937,-22007,-796,15,-1,56129,2020-11-02 15:14:15,2020-11-02 15:14:45,3,DF:DC:EF:28:D6:3E,15,15,-7942.399642574683,-13292.3452780545,2154.789763900827
16683,14310,3077,-20775,20482,17154,-4357,16194,23305,15078,15,-1,56153,2020-11-02 15:14:15,2020-11-02 15:14:45,3,DF:DC:EF:28:D6:3E,15,15,-8516.412259582765,-23708.502880100612,3349.9652847588577
16684,29677,-13308,-9760,-21758,18692,-18175,-23486,1801,24038,15,-1,56178,2020-11-02 15:14:15,2020-11-02 15:14:45,3,DF:DC:EF:28:D6:3E,15,15,-7224.951798351393,-32973.538671812974,-3691.965867929055
16685,757,4099,-9496,2821,-21242,11777,12867,2568,11238,15,-1,56204,2020-11-02 15:14:15,2020-11-02 15:14:45,3,DF:DC:EF:28:D6:3E,15,15,-5421.461549733574,4380.695523729859,7678.940512410134
16686,30964,18688,-17949,-250,-9726,-21000,25412,23815,-10522,15,-1,56230,2020-11-02 15:14:15,2020-11-02 15:14:45,3,DF:DC:EF:28:D6:3E,15,15,-31658.821389707387,1556.2392174546715,25009.485974578973
16687,-21011,4351,-27173,-27900,28413,-25616,-2235,-27129,-8984,15,-1,56255,2020-11-02 15:14:15,2020-11-02 15:14:45,3,DF:DC:EF:28:D6:3E,15,15,-29.504329654129833,8098.849458543815,33662.635338641805
16688,-19995,-26627,-804,-14336,18170,13294,-21062,15624,-19221,15,-1,56281,2020-11-02 15:14:15,2020-11-02 15:14:45,3,DF:DC:EF:28:D6:3E,15,15,-8632.699009420961,-27742.953980561982,16286.453949376533
16689,-28702,23549,-9507,21245,-12042,-6667,25787,27145,7150,15,-1,56306,2020-11-02 15:14:15,2020-11-02 15:14:45,3,DF:DC:EF:28:D6:3E,15,15,33889.76981278106,10974.750550317396,-14134.4121347519
16690,-6420,-19465,-26137,18168,-29449,-6144,-11590,-14070,-15890,15,-1,56332,2020-11-02 15:14:15,2020-11-02 15:14:45,3,DF:DC:EF:28:D6:3E,15,15,-4543.556157810253,27717.53558028358,-17729.62810654918
16691,20734,-15625,12802,-14854,-3076,-29690,-443,-19701,-2067,15,-1,56383,2020-11-02 15:14:15,2020-11-02 15:14:45,3,DF:DC:EF:28:D6:3E,15,15,-22333.122767696055,-15625.0,-9747.901694365615
16692,4087,15111,15364,-7682,-19207,-18428,18757,6412,-3604,15,-1,56385,2020-11-02 15:14:15,2020-11-02 15:14:45,3,DF:DC:EF:28:D6:3E,15,15,-8796.35712384422,-17127.94441996113,-10505.046753656903
16693,24817,-26623,-30975,2556,-31495,-22517,-9917,19213,31467,15,-1,56409,2020-11-02 15:14:15,2020-11-02 15:14:45,3,DF:DC:EF:28:D6:3E,15,15,-45529.91685854425,11318.782058515506,-9112.084644354214
16694,9977,-29438,30462,774,-1282,2586,-3519,21517,-20761,15,1,56434,2020-11-02 15:14:15,2020-11-02 15:14:45,3,DF:DC:EF:28:D6:3E,15,15,1368.2412246211388,29930.616963660977,-31565.105751856063
16695,-23296,20999,24558,31497,11521,-24543,27456,9740,11746,15,1,56460,2020-11-02 15:14:15,2020-11-02 15:14:45,3,DF:DC:EF:28:D6:3E,15,15,12005.187065243645,-37909.64536253771,2343.342274429795
16696,11277,-16125,-15639,-26114,25345,26909,26430,32266,-8484,15,1,56485,2020-11-02 15:14:15,2020-11-02 15:14:45,3,DF:DC:EF:28:D6:3E,15,15,-10980.87981092155,14703.733122318372,17175.132775199527
16697,-17647,31488,19696,10739,-12286,8719,-13509,-22776,-15399,15,1,56511,2020-11-02 15:14:15,2020-11-02 15:14:45,3,DF:DC:EF:28:D6:3E,15,15,-5063.0743137927875,-22611.564353091577,33969.48049351078
16698,32524,-6916,4086,1008,17922,-12798,12857,-17657,-1064,15,1,56537,2020-11-02 15:14:15,2020-11-02 15:14:45,3,DF:DC:EF:28:D6:3E,15,15,-31071.097351898436,-837.3177644496986,12498.913405179941
16699,12294,-4100,-22793,-1294,6149,-10496,9015,6919,15833,15,1,56562,2020-11-02 15:14:15,2020-11-02 15:14:45,3,DF:DC:EF:28:D6:3E,15,15,-12669.372660960957,-13082.355227618893,-18862.98658951142
16700,-23293,-31748,-29449,-6155,-29687,4869,-25547,-8955,-20263,15,1,56588,2020-11-02 15:14:15,2020-11-02 15:14:45,3,DF:DC:EF:28:D6:3E,15,15,14552.813856643232,-41399.56746288277,-22181.847910850673
16701,-12027,31996,23032,21240,-10229,20488,28980,-12541,7642,15,1,56614,2020-11-02 15:14:15,2020-11-02 15:14:45,3,DF:DC:EF:28:D6:3E,15,15,-11653.689485151055,39525.57185202751,-886.8258870207633
16702,-9977,30206,14583,-8967,28427,-9723,-30413,-16639,-23078,15,1,56639,2020-11-02 15:14:15,2020-11-02 15:14:45,3,DF:DC:EF:28:D6:3E,15,15,21059.084277704143,-16097.265346297316,-22847.316511035817
16703,1799,17151,-27916,-10503,-1780,31745,-18126,8704,-17189,15,1,56665,2020-11-02 15:14:15,2020-11-02 15:14:45,3,DF:DC:EF:28:D6:3E,15,15,-24920.769396120588,17577.95976829329,12110.60861763941
16704,4610,-14081,12788,761,-26867,-259,-19407,-5634,26589,15,1,56690,2020-11-02 15:14:15,2020-11-02 15:14:45,3,DF:DC:EF:28:D6:3E,15,15,8902.351595188582,-13780.299874191976,-10672.913213035506
16705,8445,-27135,19445,-11528,12044,-1028,-29904,7166,15839,15,1,56716,2020-11-02 15:14:15,2020-11-02 15:14:45,3,DF:DC:EF:28:D6:3E,15,15,29235.427822014255,-577.3043220260533,-18184.904585495213
16706,-26885,-25344,-7,10746,-23032,5374,31535,-26115,-14624,15,1,56742,2020-11-02 15:14:15,2020-11-02 15:14:45,3,DF:DC:EF:28:D6:3E,15,15,-21509.5778930265,-29707.67970870403,4462.447219730504
16707,32259,-9207,-25083,-29441,7170,25085,-9170,-29955,-31007,15,-1,56767,2020-11-02 15:14:15,2020-11-02 15:14:45,3,DF:DC:EF:28:D6:3E,15,15,26026.55676019569,-3961.342175305381,-32580.591314131467
16708,-3586,4879,-23306,-18935,-1530,-14337,-21457,31485,14818,15,-1,56793,2020-11-02 15:14:15,2020-11-02 15:14:45,3,DF:DC:EF:28:D6:3E,15,15,16738.50652078887,-17064.08408248691,2910.8601614171193
16709,-6662,16653,-12310,3850,9484,13832,9265,-1029,8931,15,-1,56818,2020-11-02 15:14:15,2020-11-02 15:14:45,3,DF:DC:EF:28:D6:3E,15,15,-19887.14276510525,4852.2993268120845,7361.894924769099
16710,-9473,-6635,13796,785,8455,-12793,9779,6394,30947,15,-1,56844,2020-11-02 15:14:15,2020-11-02 15:14:45,3,DF:DC:EF:28:D6:3E,15,15,-15575.045198425032,-911.4735743761776,8982.079547088817
16711,15363,26647,-7467,-12009,-15608,15368,-27594,-32008,28131,15,-1,56870,2020-11-02 15:14:15,2020-11-02 15:14:45,3,DF:DC:EF:28:D6:3E,15,15,-27453.004015861516,-13784.123829297174,-7626.98942989259
16712,10762,23060,-15917,-1009,-32507,22022,-11719,-266,7651,15,-1,56895,2020-11-02 15:14:15,2020-11-02 15:14:45,3,DF:DC:EF:28:D6:3E,15,15,26068.631363103934,-3948.9675773790023,-14344.589465279354
16713,-14322,20498,22491,-24310,32509,-4871,-21957,5111,13795,15,-1,56921,2020-11-02 15:14:15,2020-11-02 15:14:45,3,DF:DC:EF:28:D6:3E,15,15,21526.259533333356,-5898.966646409368,-25158.599166251777
16714,-24056,-29433,-2078,-23800,-23045,-9232,-31428,24312,-18460,15,-1,56946,2020-11-02 15:14:15,2020-11-02 15:14:45,3,DF:DC:EF:28:D6:3E,15,15,-38051.585440894705,996.517065803087,628.0988551593808
16715,2057,-8453,-12306,-7666,-18180,32744,-27331,13306,19687,15,-1,56972,2020-11-02 15:14:15,2020-11-02 15:14:45,3,DF:DC:EF:28:D6:3E,15,15,-2728.7198711693836,-14599.488494951922,-2555.6051241245796
16716,-21257,16116,15339,-32229,-29437,23518,7744,-28421,-14869,15,-1,56998,2020-11-02 15:14:15,2020-11-02 15:14:45,3,DF:DC:EF:28:D6:3E,15,15,-16482.126835126644,-25921.96575300835,1805.9934913117459
16717,-20001,-13567,217,-22502,-28675,-16413,-17341,31996,-18192,15,-1,57023,2020-11-02 15:14:15,2020-11-02 15:14:45,3,DF:DC:EF:28:D6:3E,15,15,9130.103014268723,-12296.467977251068,-18697.290531873336
16718,17387,-24571,2539,-250,12525,-776,-21435,-4866,-5134,15,-1,57049,2020-11-02 15:14:15,2020-11-02 15:14:45,3,DF:DC:EF:28:D6:3E,15,15,17387.0,24683.40933443355,953.8687691704663
16719,-22287,-1785,-23060,5125,-1289,19969,-4167,6145,19187,15,-1,57074,2020-11-02 15:14:15,2020-11-02 15:14:45,3,DF:DC:EF:28:D6:3E,15,15,31383.241278744128,-2670.5285861051834,6294.492665094285
16720,-28681,8709,-29189,13822,23037,26380,-15943,-20223,498,15,-1,57100,2020-11-02 15:14:15,2020-11-02 15:14:45,3,DF:DC:EF:28:D6:3E,15,15,27797.34216050824,-30165.705391103886,-8232.99156253405
16721,28928,2305,-17157,-7937,16634,-27889,70,23298,-21265,15,-1,57126,2020-11-02 15:14:15,2020-11-02 15:14:45,3,DF:DC:EF:28:D6:3E,15,15,6190.137997192656,-1445.917702265379,33107.34618742474
16722,13062,-28930,-32525,23039,-3079,-15344,-19643,13059,11757,15,-1,57153,2020-11-02 15:14:15,2020-11-02 15:14:45,3,DF:DC:EF:28:D6:3E,15,15,-33336.24881142186,15047.598707466086,-26975.92736722947
16723,-4343,1792,20208,13821,5117,30480,-1468,-17917,-26134,15,-1,57177,2020-11-02 15:14:15,2020-11-02 15:14:45,3,DF:DC:EF:28:D6:3E,15,15,-2302.5250370466174,-75.64260535246194,-20618.652566305806
16724,-18164,-21763,-31501,-9478,6915,19469,68,19715,20968,15,-1,57202,2020-11-02 15:14:15,2020-11-02 15:14:45,3,DF:DC:EF:28:D6:3E,15,15,-10330.138003569551,23455.52035804473,33749.05746181006
16725,-1526,17407,-21770,10489,-28156,28165,-7614,26882,7399,15,-1,57228,2020-11-02 15:14:15,2020-11-02 15:14:45,3,DF:DC:EF:28:D6:3E,15,15,18838.66899458646,12841.722448648532,16107.760243568417
16726,-4346,-25344,-12040,-31242,22785,-4355,-26047,-5119,4583,15,-1,57254,2020-11-02 15:14:15,2020-11-02 15:14:45,3,DF:DC:EF:28:D6:3E,15,15,-4346.0,25677.845970674836,-11310.533245886247
16727,6659,-28158,18937,7413,29951,24316,2624,2818,-26393,15,-1,57279,2020-11-02 15:14:15,2020-11-02 15:14:45,3,DF:DC:EF:28:D6:3E,15,15,16957.43179154985,23444.844892533078,18937.0
16728,26115,26373,-10758,31478,-28927,-25088,30270,3330,-13081,15,1,57305,2020-11-02 15:14:15,2020-11-02 15:14:45,3,DF:DC:EF:28:D6:3E,15,15,-13445.609704031183,-22566.490843214073,-28341.347686904337
16729,-28925,-13050,-12297,23288,23814,14084,12349,11265,-23577,15,1,57330,2020-11-02 15:14:15,2020-11-02 15:14:45,3,DF:DC:EF:28:D6:3E,15,15,1355.121714100822,-26983.979658501663,20693.062144823827
16730,-8447,18690,12788,23031,7428,-28668,-5061,6144,23015,15,1,57356,2020-11-02 15:14:15,2020-11-02 15:14:45,3,DF:DC:EF:28:D6:3E,15,15,10094.141562662324,-16906.35099105711,14017.291296114072
16731,24572,-17398,28647,-15881,18181,-8700,-22214,21503,7143,15,1,57382,2020-11-02 15:14:15,2020-11-02 15:14:45,3,DF:DC:EF:28:D6:3E,15,15,-33013.832895431755,-12055.52536295554,22178.262843957
16732,26110,-6133,27121,-22287,-4350,-18936,-16328,254,-31514,15,1,57407,2020-11-02 15:14:15,2020-11-02 15:14:45,3,DF:DC:EF:28:D6:3E,15,15,-18689.059017414635,32756.892441966374,-5709.597235273143
16733,-1279,12550,-791,-5894,-24325,-7417,29495,30461,20453,15,1,57433,2020-11-02 15:14:15,2020-11-02 15:14:45,3,DF:DC:EF:28:D6:3E,15,15,-11673.860307553985,-1165.7018306462237,-4703.843828375212
16734,-22276,-25327,-31523,12303,8194,32514,-26824,18429,-32028,15,1,57459,2020-11-02 15:14:15,2020-11-02 15:14:45,3,DF:DC:EF:28:D6:3E,15,15,-32438.42727884699,32804.94254257786,1720.7017327591057
16735,-2067,-23026,11467,11282,5891,-4095,-27589,-22788,-20508,15,1,57484,2020-11-02 15:14:15,2020-11-02 15:14:45,3,DF:DC:EF:28:D6:3E,15,15,-4608.264430047013,-7093.853880646258,24380.368948455303
16736,23794,-10490,2775,-6907,24562,-12800,23613,-18179,-541,15,1,57510,2020-11-02 15:14:15,2020-11-02 15:14:45,3,DF:DC:EF:28:D6:3E,15,15,-24420.241108164602,8956.84850733879,-2705.891726527605
16737,-19205,-12291,5609,-23035,-29202,-9990,11326,21248,24291,15,1,57535,2020-11-02 15:14:15,2020-11-02 15:14:45,3,DF:DC:EF:28:D6:3E,15,15,-20350.90834866658,-6182.194235295992,9948.999488453388
16738,18942,-15370,6640,27663,30451,-4365,-1473,-3070,996,15,1,57561,2020-11-02 15:14:15,2020-11-02 15:14:45,3,DF:DC:EF:28:D6:3E,15,15,18942.0,-15370.0,6640.0
16739,-11009,-28939,28908,14616,12025,11506,-21693,-20732,-13851,15,1,57587,2020-11-02 15:14:15,2020-11-02 15:14:45,3,DF:DC:EF:28:D6:3E,15,15,23783.934645737467,-26678.61077852499,22735.708603323954
16740,-8188,24573,-25874,-5869,-29191,14066,2235,-22779,-6681,15,1,57612,2020-11-02 15:14:15,2020-11-02 15:14:45,3,DF:DC:EF:28:D6:3E,15,15,27030.015571369244,3383.339582180634,24459.575231045732
16741,-9216,1539,32753,-1273,25081,-1556,-16451,18438,-23574,15,1,57638,2020-11-02 15:14:15,2020-11-02 15:14:45,3,DF:DC:EF:28:D6:3E,15,15,-26631.90692615994,-13748.585216781768,16179.620638730812
16742,-13068,27140,5883,22013,-25615,-4889,3007,8711,-29202,15,1,57663,2020-11-02 15:14:15,2020-11-02 15:14:45,3,DF:DC:EF:28:D6:3E,15,15,-26623.8161966121,5674.97695285054,14174.941294891858
16743,-29972,29442,23812,-20230,31216,10485,22463,2313,2546,15,1,57689,2020-11-02 15:14:15,2020-11-02 15:14:45,3,DF:DC:EF:28:D6:3E,15,15,-29972.0,-32507.708716831872,-19418.846051751196
16744,-29200,18432,-27911,14852,-1286,2317,19135,-26102,-15631,15,1,57715,2020-11-02 15:14:15,2020-11-02 15:14:45,3,DF:DC:EF:28:D6:3E,15,15,-30475.19250487554,-32205.634639738335,2337.1530207634787
16745,-29700,-13057,-26887,-9212,-23556,-23529,21950,-4597,25582,15,1,57766,2020-11-02 15:14:15,2020-11-02 15:14:45,3,DF:DC:EF:28:D6:3E,15,15,32067.426781029117,11547.703794916139,24775.32431085849
16746,-23550,9222,16631,-27899,20988,8468,4029,4877,-30998,15,1,57768,2020-11-02 15:14:15,2020-11-02 15:14:45,3,DF:DC:EF:28:D6:3E,15,15,-15523.444128602441,-19966.733993975038,16631.0
16747,-18943,-9977,12787,18947,-22021,14862,5820,-243,-27417,15,1,57791,2020-11-02 15:14:15,2020-11-02 15:14:45,3,DF:DC:EF:28:D6:3E,15,15,24604.698903743905,-3779.4477899205285,-1486.510430292481
16748,-25085,-25849,8948,508,12537,-19956,27834,-3570,6117,15,1,57817,2020-11-02 15:14:15,2020-11-02 15:14:45,3,DF:DC:EF:28:D6:3E,15,15,-33469.33672230864,-8320.477258830057,13713.784581727039
16749,30983,10506,17146,14841,-25352,-15866,-14012,-1009,7907,15,1,57843,2020-11-02 15:14:15,2020-11-02 15:14:45,3,DF:DC:EF:28:D6:3E,15,15,7299.912682006794,32132.825532241597,-16688.332425667915
16750,28418,-16890,-23047,3577,17660,27394,8003,-20464,15330,15,1,57868,2020-11-02 15:14:15,2020-11-02 15:14:45,3,DF:DC:EF:28:D6:3E,15,15,805.4064536161968,-26433.049324239175,30408.29256743647
16751,-25859,3589,-24841,-18951,-23041,-29436,-31423,-14576,29409,15,1,57894,2020-11-02 15:14:15,2020-11-02 15:14:45,3,DF:DC:EF:28:D6:3E,15,15,27800.779402624565,-6416.578685751908,-22013.365612194782
16752,-22790,-14083,-21010,-25091,7427,-10237,19264,25616,-27424,15,-1,57919,2020-11-02 15:14:15,2020-11-02 15:14:45,3,DF:DC:EF:28:D6:3E,15,15,-13226.207198588132,-10552.186034490334,-29544.100968442453
16753,-18187,-8,-17437,-4090,11528,-15879,14913,24591,18401,15,-1,57945,2020-11-02 15:14:15,2020-11-02 15:14:45,3,DF:DC:EF:28:D6:3E,15,15,-8575.617912768055,-14796.634507418577,-18502.28058019015
16754,-22552,12794,-22322,-14069,18689,1519,-15036,-9714,7908,15,-1,57971,2020-11-02 15:14:15,2020-11-02 15:14:45,3,DF:DC:EF:28:D6:3E,15,15,16042.080013780967,-22436.652202225036,-20243.4960119995
16755,-26134,25347,-18470,5120,28926,18422,-23110,7695,-9242,15,-1,57996,2020-11-02 15:14:15,2020-11-02 15:14:45,3,DF:DC:EF:28:D6:3E,15,15,4401.839946652439,-11648.63317482287,38878.40551311834
16756,11508,16637,-4630,-3076,-13562,1535,-30534,-31474,30951,15,-1,58022,2020-11-02 15:14:15,2020-11-02 15:14:45,3,DF:DC:EF:28:D6:3E,15,15,13691.179845944556,-13994.454443514707,-6882.410352078186
16757,-11019,-22029,-1050,4358,-16625,8955,6843,-22772,-5657,15,-1,58048,2020-11-02 15:14:15,2020-11-02 15:14:45,3,DF:DC:EF:28:D6:3E,15,15,13604.695489940883,-11018.774961920959,17357.896213669617
16758,23272,-15120,-30764,523,-2284,-5641,14525,30473,-9496,15,-1,58073,2020-11-02 15:14:15,2020-11-02 15:14:45,3,DF:DC:EF:28:D6:3E,15,15,32890.645607200495,12195.473137602436,22047.674400978452
16759,-25889,16109,13792,-32254,-20465,-7177,26302,-29178,-28695,15,-1,58099,2020-11-02 15:14:15,2020-11-02 15:14:45,3,DF:DC:EF:28:D6:3E,15,15,-7763.541542109557,-26568.128927662583,18810.141254308477
16760,32480,23784,-22289,20995,3582,-12553,8127,-20987,-18454,15,-1,58124,2020-11-02 15:14:15,2020-11-02 15:14:45,3,DF:DC:EF:28:D6:3E,15,15,37406.99332840601,-26593.35471082513,-3307.4026596142485
16761,-30742,-8729,14325,-7924,-16900,1276,-9536,15622,-9749,15,-1,58150,2020-11-02 15:14:15,2020-11-02 15:14:45,3,DF:DC:EF:28:D6:3E,15,15,20497.918694081538,-18342.751257829234,21676.033666338193
16762,28400,4587,751,-23274,-14075,-17665,-3133,-6907,-3349,15,-1,58177,2020-11-02 15:14:15,2020-11-02 15:14:45,3,DF:DC:EF:28:D6:3E,15,15,14712.640777064438,4587.0,24303.543000251233
16763,5361,22780,-17938,1043,-25342,16642,7879,27141,28395,15,-1,58201,2020-11-02 15:14:15,2020-11-02 15:14:45,3,DF:DC:EF:28:D6:3E,15,15,27716.645030313626,-9831.60659345858,-2137.2096422795103
16764,-17677,-11769,29687,-7926,10239,19974,2249,-6395,-12054,15,-1,58227,2020-11-02 15:14:15,2020-11-02 15:14:45,3,DF:DC:EF:28:D6:3E,15,15,3668.7250578354087,36297.19351022749,1165.2719558582794
16765,25840,14347,28403,-12534,16132,19469,5834,-11514,-32535,15,-1,58252,2020-11-02 15:14:15,2020-11-02 15:14:45,3,DF:DC:EF:28:D6:3E,15,15,5362.763484516665,-38800.022275282085,12086.002533788786
16766,5114,2310,-14863,-9468,1283,-3303,9162,-26616,25062,15,-1,58278,2020-11-02 15:14:15,2020-11-02 15:14:45,3,DF:DC:EF:28:D6:3E,15,15,15605.656048839068,-2974.8353277086903,108.25459966642848
16767,-22266,23294,-3853,-14848,-32003,-15846,-8248,24331,-4382,15,-1,58304,2020-11-02 15:14:15,2020-11-02 15:14:45,3,DF:DC:EF:28:D6:3E,15,15,30963.78486375597,9343.614208427622,-2678.0032552456296
16768,-1269,-20742,29939,25597,2813,-13291,2759,-11251,-15137,15,-1,58329,2020-11-02 15:14:15,2020-11-02 15:14:45,3,DF:DC:EF:28:D6:3E,15,15,-8091.414854769018,32162.91971418891,15108.284055665017
16769,5387,9723,12278,-28421,24575,16654,-12604,26127,11229,15,-1,58355,2020-11-02 15:14:15,2020-11-02 15:14:45,3,DF:DC:EF:28:D6:3E,15,15,-2187.814662463503,9767.079464408995,13195.582887414628
16770,-32759,32509,28151,15867,-17660,29962,-29502,-21489,-14374,15,1,58380,2020-11-02 15:14:15,2020-11-02 15:14:45,3,DF:DC:EF:28:D6:3E,15,15,-27357.48421570402,-17068.462641410053,-43390.10951180343
16771,27657,22269,23285,-5127,-31232,-30204,-14400,-30961,15065,15,1,58406,2020-11-02 15:14:15,2020-11-02 15:14:45,3,DF:DC:EF:28:D6:3E,15,15,-2143.3962588904324,-23926.246947603275,-35013.565863528944
16772,-18421,-4101,-27912,-18701,-2830,29691,-21825,30480,-14119,15,1,58432,2020-11-02 15:14:15,2020-11-02 15:14:45,3,DF:DC:EF:28:D6:3E,15,15,13542.403982467556,29299.88758744039,-9661.835629889561
16773,24592,27392,23548,-14866,-2589,-25361,-5441,6931,24541,15,1,58457,2020-11-02 15:14:15,2020-11-02 15:14:45,3,DF:DC:EF:28:D6:3E,15,15,-906.6249390491503,-42956.33755146755,-7970.415759812835
16774,8203,-6658,3328,-2572,-43,26589,18374,-15338,-5401,15,1,58483,2020-11-02 15:14:15,2020-11-02 15:14:45,3,DF:DC:EF:28:D6:3E,15,15,436.5601723915497,6121.722655542528,9221.04570775456
16775,-27651,18174,18425,-19208,-15143,17113,4819,29974,25848,15,1,58508,2020-11-02 15:14:15,2020-11-02 15:14:45,3,DF:DC:EF:28:D6:3E,15,15,30429.703448465352,7428.016347599207,-21288.7393515505
16776,5357,24054,-12561,9979,-27158,18409,-30759,11795,27905,15,1,58534,2020-11-02 15:14:15,2020-11-02 15:14:45,3,DF:DC:EF:28:D6:3E,15,15,4145.046546262389,-24067.054204571978,-12987.169708736103
16777,31725,6629,26093,11513,-4107,11261,219,-7919,-17148,15,1,58560,2020-11-02 15:14:15,2020-11-02 15:14:45,3,DF:DC:EF:28:D6:3E,15,15,8031.651010079407,1620.0041365704856,40793.77506004789
16778,-25098,-16415,-27663,-28169,-23299,-30976,18394,1298,-27643,15,1,58585,2020-11-02 15:14:15,2020-11-02 15:14:45,3,DF:DC:EF:28:D6:3E,15,15,1152.1492923054197,-32168.1087413653,25069.677501155402
16779,12022,5073,-12815,-26638,27137,-15113,-14376,15889,-7931,15,1,58611,2020-11-02 15:14:15,2020-11-02 15:14:45,3,DF:DC:EF:28:D6:3E,15,15,-13931.13173263481,-3777.7301074930947,-11231.222635266193
16780,13037,32713,11003,-2323,30981,-17930,-811,31759,25605,15,1,58636,2020-11-02 15:14:15,2020-11-02 15:14:45,3,DF:DC:EF:28:D6:3E,15,15,29236.660467192625,-16196.321766241097,15622.630795435214
16781,-5402,32460,-8962,-2063,14857,-23816,10195,-12275,-18684,15,1,58662,2020-11-02 15:14:15,2020-11-02 15:14:45,3,DF:DC:EF:28:D6:3E,15,15,21542.891876770165,-22262.13109162631,-14263.659307661384
16782,32752,3031,-15116,-28167,24330,-4354,11729,-30964,30979,15,-1,58688,2020-11-02 15:14:15,2020-11-02 15:14:45,3,DF:DC:EF:28:D6:3E,15,15,17066.949349617964,-13686.396645123543,-28840.521974644045
16783,24569,-8481,-11285,27127,6412,-1793,18383,-27893,-16895,15,-1,58713,2020-11-02 15:14:15,2020-11-02 15:14:45,3,DF:DC:EF:28:D6:3E,15,15,12624.116585541658,3581.454769481641,-25114.123699002703
16784,-3343,-8475,22020,-11276,15886,-32515,-11316,-759,2816,15,-1,58739,2020-11-02 15:14:15,2020-11-02 15:14:45,3,DF:DC:EF:28:D6:3E,15,15,-3343.0,13950.129043237395,19028.92337146336
16785,-1551,-20491,20235,11007,1033,5891,-25909,-2808,-17666,15,-1,58765,2020-11-02 15:14:15,2020-11-02 15:14:45,3,DF:DC:EF:28:D6:3E,15,15,1264.5156612057604,2119.7489121857416,-28734.118599529946
16786,9718,-14335,11780,-19967,15879,27914,17099,5641,1533,15,-1,58790,2020-11-02 15:14:15,2020-11-02 15:14:45,3,DF:DC:EF:28:D6:3E,15,15,9718.0,-4746.0587861032445,-17936.988348071485
16787,-14602,-23040,5630,32767,-2552,-7921,15306,-19447,23802,15,-1,58816,2020-11-02 15:14:15,2020-11-02 15:14:45,3,DF:DC:EF:28:D6:3E,15,15,-8215.688794781898,-16348.866630814544,20999.379074513934
16788,22777,23039,-7675,21503,11529,-17392,-22328,19722,9975,15,-1,58841,2020-11-02 15:14:15,2020-11-02 15:14:45,3,DF:DC:EF:28:D6:3E,15,15,8252.165624056048,-31366.83866143054,-7517.7170670978485
16789,15868,22785,17918,7174,22789,10509,-3641,-14070,22004,15,-1,58867,2020-11-02 15:14:15,2020-11-02 15:14:45,3,DF:DC:EF:28:D6:3E,15,15,19451.656020179984,-25788.09227546026,6972.2125516182205
16790,15355,24066,-3090,2563,26110,29446,4552,-32245,-1038,15,-1,58892,2020-11-02 15:14:15,2020-11-02 15:14:45,3,DF:DC:EF:28:D6:3E,15,15,1392.5568490787414,24066.0,-15600.79839053386
16791,-16901,16132,-29200,-14597,17919,27395,31687,4108,29426,15,-1,58918,2020-11-02 15:14:15,2020-11-02 15:14:45,3,DF:DC:EF:28:D6:3E,15,15,-27256.544640596534,9562.119993566239,-23752.30221439196
16792,25336,30729,-26637,4859,29183,16898,29126,20748,5362,15,-1,58944,2020-11-02 15:14:15,2020-11-02 15:14:45,3,DF:DC:EF:28:D6:3E,15,15,-30307.09272302068,-16826.21060710254,33076.772413336475
16793,-13065,23049,16116,-17158,-10754,-2042,17093,-8948,26609,15,-1,58969,2020-11-02 15:14:15,2020-11-02 15:14:45,3,DF:DC:EF:28:D6:3E,15,15,-5896.5436687898255,30266.472696432007,-3293.5520761315424
16794,23548,28681,7672,-26631,29694,3083,24003,-17395,-12049,15,-1,58995,2020-11-02 15:14:15,2020-11-02 15:14:45,3,DF:DC:EF:28:D6:3E,15,15,-3635.03884994934,23154.40519328555,29776.293619329288
16795,5889,30470,12536,-1289,-31748,10762,11201,-15602,6126,15,-1,59021,2020-11-02 15:14:15,2020-11-02 15:14:45,3,DF:DC:EF:28:D6:3E,15,15,-22225.13822579994,-23667.265190657625,-8133.652699689878
16796,-23805,15108,-18439,22008,5629,4616,-4930,-26609,-29460,15,-1,59046,2020-11-02 15:14:15,2020-11-02 15:14:45,3,DF:DC:EF:28:D6:3E,15,15,-14032.063564873886,5824.934406847326,30068.21812590937
16797,-23038,7932,-29191,-29446,-8964,24837,7613,8976,19947,15,-1,59072,2020-11-02 15:14:15,2020-11-02 15:14:45,3,DF:DC:EF:28:D6:3E,15,15,15830.33974200132,-31397.243096681734,14470.453295618789
16798,4092,3316,14579,11517,-21255,-15617,22460,-15088,235,15,-1,59097,2020-11-02 15:14:15,2020-11-02 15:14:45,3,DF:DC:EF:28:D6:3E,15,15,10995.599069131855,-5340.203716231881,9532.396675550692
16799,-12808,-12312,-13089,21503,-10257,-17927,10941,-29166,19948,15,-1,59123,2020-11-02 15:14:15,2020-11-02 15:14:45,3,DF:DC:EF:28:D6:3E,15,15,19530.127625571888,-7189.856006661938,7337.043991441046
16800,2552,5098,-11030,10238,10481,8434,-26177,28436,-22801,15,-1,59149,2020-11-02 15:14:15,2020-11-02 15:14:45,3,DF:DC:EF:28:D6:3E,15,15,10651.52359776956,-3547.616027572898,-5303.081516162664
16801,-30738,-8734,758,-23556,14063,-18713,29124,25109,3318,15,-1,59174,2020-11-02 15:14:15,2020-11-02 15:14:45,3,DF:DC:EF:28:D6:3E,15,15,13590.566997393586,-1750.6409276411591,-28877.5641118122
16802,-7185,-9509,-8970,-23048,-3864,11492,26059,32277,30719,15,-1,59201,2020-11-02 15:14:15,2020-11-02 15:14:45,3,DF:DC:EF:28:D6:3E,15,15,-4679.973465202816,13800.637409774932,-3185.351071533268
16803,-7443,14545,9723,-12298,-29194,2789,8656,-29933,7,15,-1,59225,2020-11-02 15:14:15,2020-11-02 15:14:45,3,DF:DC:EF:28:D6:3E,15,15,14662.737771426186,-322.925346435085,12099.249698515265
16804,-541,-19757,-27395,16894,4607,-23833,722,18448,-25078,15,-1,59251,2020-11-02 15:14:15,2020-11-02 15:14:45,3,DF:DC:EF:28:D6:3E,15,15,17129.03944471709,10393.584499507779,27197.19036872959
16805,13031,-26657,-23823,-23803,31743,-9745,-11821,-25587,-28916,15,1,59277,2020-11-02 15:14:15,2020-11-02 15:14:45,3,DF:DC:EF:28:D6:3E,15,15,15050.548459074329,13619.615461469648,-32185.788863452646
16806,14069,-26650,19180,5888,30211,-4872,28116,3852,-5876,15,1,59302,2020-11-02 15:14:15,2020-11-02 15:14:45,3,DF:DC:EF:28:D6:3E,15,15,34473.95160953352,5415.939027366524,7631.90185179221
16807,8446,-22038,15085,-2564,-29945,14074,-17197,-8694,22540,15,1,59328,2020-11-02 15:14:15,2020-11-02 15:14:45,3,DF:DC:EF:28:D6:3E,15,15,-17747.031213899554,-21658.536652902792,718.5110630610043
16808,-12555,-7949,8954,10491,-31730,-10759,-32558,9225,-5366,15,1,59353,2020-11-02 15:14:15,2020-11-02 15:14:45,3,DF:DC:EF:28:D6:3E,15,15,-11060.337239531797,-10841.038667580928,7818.539681797445
16809,14054,-7431,-29170,29690,-7917,-27903,-12080,-22777,-25336,15,1,59379,2020-11-02 15:14:15,2020-11-02 15:14:45,3,DF:DC:EF:28:D6:3E,15,15,28570.642159433788,2768.3059415820353,-16723.59009935923
16810,4064,-14596,-15088,-14333,-31211,-6640,-27185,29959,-12028,15,1,59405,2020-11-02 15:14:15,2020-11-02 15:14:45,3,DF:DC:EF:28:D6:3E,15,15,18105.90322096133,-10802.83865055183,3561.1798105860635
16811,21736,-4099,13562,21003,7695,27931,26319,6153,9984,15,1,59430,2020-11-02 15:14:15,2020-11-02 15:14:45,3,DF:DC:EF:28:D6:3E,15,15,-7165.827176408186,12795.068459096758,-21403.749321202522
16812,-28941,13059,-13842,-1274,-13050,22554,-818,-14325,10492,15,1,59456,2020-11-02 15:14:15,2020-11-02 15:14:45,3,DF:DC:EF:28:D6:3E,15,15,2318.9845760233056,27781.406949249475,-20555.67231827651
16813,25848,19974,-2325,-30467,8202,-13028,-21556,21518,-9737,15,1,59481,2020-11-02 15:14:15,2020-11-02 15:14:45,3,DF:DC:EF:28:D6:3E,15,15,-30780.821630081395,10732.795476611445,-3135.845346049826
16814,8187,-10492,21478,-13323,5381,-8935,22472,26128,-7694,15,1,59507,2020-11-02 15:14:15,2020-11-02 15:14:45,3,DF:DC:EF:28:D6:3E,15,15,12598.462442570832,-6006.29466531523,21062.209890620165
16815,-31747,13571,-4119,7406,14857,-4071,12994,24593,29421,15,1,59533,2020-11-02 15:14:15,2020-11-02 15:14:45,3,DF:DC:EF:28:D6:3E,15,15,1045.236861458212,-10239.065218256968,-33212.636666782855
16816,1536,20488,8168,6635,-3314,-27622,-326,16400,27367,15,1,59558,2020-11-02 15:14:15,2020-11-02 15:14:45,3,DF:DC:EF:28:D6:3E,15,15,11068.475947747611,-18528.980314206958,-4795.7682085213055
16817,13322,5381,32223,-1824,-6385,-24295,-23744,20237,-24862,15,1,59584,2020-11-02 15:14:15,2020-11-02 15:14:45,3,DF:DC:EF:28:D6:3E,15,15,31305.483977093434,6443.319578217965,14939.975895994587
16818,-11240,6139,-31763,24277,23052,-8432,31289,-1015,10464,15,1,59609,2020-11-02 15:14:15,2020-11-02 15:14:45,3,DF:DC:EF:28:D6:3E,15,15,18091.448266599265,-24973.946332487423,-14896.798119025461
16819,21781,7418,-25101,-29474,-1774,29441,3892,19975,-2848,15,1,59635,2020-11-02 15:14:15,2020-11-02 15:14:45,3,DF:DC:EF:28:D6:3E,15,15,-25105.27989076503,7418.0,21776.066761615813
16820,-8951,6905,32753,-19224,-18663,-28939,-2256,-19963,31204,15,-1,59661,2020-11-02 15:14:15,2020-11-02 15:14:45,3,DF:DC:EF:28:D6:3E,15,15,7823.906669409122,-2106.498710850189,-33688.38943329826
16821,4862,12533,9192,3827,4376,29679,-25297,23557,9961,15,-1,59686,2020-11-02 15:14:15,2020-11-02 15:14:45,3,DF:DC:EF:28:D6:3E,15,15,9608.419858663403,-13073.121175908338,1407.042124337337
16822,-3592,-32265,31205,4348,8459,17131,-24273,-29434,237,15,-1,59712,2020-11-02 15:14:15,2020-11-02 15:14:45,3,DF:DC:EF:28:D6:3E,15,15,-43993.28017590594,-2526.2104389194574,-9267.916388408781
16823,-19466,14333,-2833,-22282,512,32747,32559,-1272,23023,15,-1,59738,2020-11-02 15:14:15,2020-11-02 15:14:45,3,DF:DC:EF:28:D6:3E,15,15,13744.827179649947,13850.088311196949,-14547.876600164083
16824,-24078,-10752,5872,28151,5643,-7950,10543,-12534,-21263,15,-1,59763,2020-11-02 15:14:15,2020-11-02 15:14:45,3,DF:DC:EF:28:D6:3E,15,15,-16725.32966471904,8474.982777352641,-19449.26699210141
16825,-29456,-30970,-2328,-17662,5143,-11273,-26320,27146,26101,15,-1,59789,2020-11-02 15:14:15,2020-11-02 15:14:45,3,DF:DC:EF:28:D6:3E,15,15,-6773.131533227816,-41507.48378263401,-7966.799813474039
16826,15591,22534,-11810,-30966,14352,22767,-18893,4618,30457,15,-1,59814,2020-11-02 15:14:15,2020-11-02 15:14:45,3,DF:DC:EF:28:D6:3E,15,15,-18567.74570936445,-21751.422795476712,8511.813123230213
16827,-17952,22530,-4898,29192,13827,-22038,4407,28427,8957,15,-1,59840,2020-11-02 15:14:15,2020-11-02 15:14:45,3,DF:DC:EF:28:D6:3E,15,15,-10615.517766042818,25166.18874930482,-10384.571940777956
16828,-6162,-3841,-19487,-29692,-13824,-5895,-1480,-23796,4095,15,-1,59866,2020-11-02 15:14:15,2020-11-02 15:14:45,3,DF:DC:EF:28:D6:3E,15,15,-10720.058234304019,-3841.0,17400.970215856658
16829,-20225,-26635,15844,-17658,9742,1795,22330,32523,-11265,15,-1,59891,2020-11-02 15:14:15,2020-11-02 15:14:45,3,DF:DC:EF:28:D6:3E,15,15,27281.28600253029,2176.8075521860137,-24909.819929676145
16830,-14847,246,32491,-14579,-15856,31486,-20676,-2552,8961,15,1,59917,2020-11-02 15:14:15,2020-11-02 15:14:45,3,DF:DC:EF:28:D6:3E,15,15,-11675.192054415042,-10147.547527732697,-32200.561729027802
16831,8695,23807,-26641,-29683,-21236,32497,-15297,-31225,18435,15,1,59942,2020-11-02 15:14:15,2020-11-02 15:14:45,3,DF:DC:EF:28:D6:3E,15,15,12400.843592946021,32709.130068310194,-11333.624458118222
16832,11743,30462,17654,28418,-7673,17133,-6335,-24314,-23546,15,1,59968,2020-11-02 15:14:15,2020-11-02 15:14:45,3,DF:DC:EF:28:D6:3E,15,15,-10719.770272443402,-35495.288220187635,1632.865111344866
16833,15830,31483,-8707,28673,-32518,-16894,25154,7431,-9209,15,1,59994,2020-11-02 15:14:15,2020-11-02 15:14:45,3,DF:DC:EF:28:D6:3E,15,15,-26485.122083978495,-9035.089479562288,-23118.942542708515
16834,-10520,13813,-32007,-3575,-6,1312,16450,-14329,23556,15,1,60045,2020-11-02 15:14:15,2020-11-02 15:14:45,3,DF:DC:EF:28:D6:3E,15,15,30195.837219151268,-770.0855875456546,-20335.579677559566
16835,-5895,-29969,-5640,9741,8450,-8659,6978,-20218,-16131,15,1,60047,2020-11-02 15:14:15,2020-11-02 15:14:45,3,DF:DC:EF:28:D6:3E,15,15,-14496.767839336524,-4170.283397446077,27150.580925596492
16836,15875,-9737,-23558,-8435,11520,16423,-31678,20485,4599,15,1,60070,2020-11-02 15:14:15,2020-11-02 15:14:45,3,DF:DC:EF:28:D6:3E,15,15,-17976.81123906171,19828.31936265878,13618.963504156822
16837,-23289,-9979,22255,-11508,-10759,4117,-26557,11013,-30478,15,1,60096,2020-11-02 15:14:15,2020-11-02 15:14:45,3,DF:DC:EF:28:D6:3E,15,15,1051.8008025861363,-32825.427554132184,7656.89283979467
16838,-31484,-32758,28138,-15101,18164,11269,24132,20998,-18448,15,1,60122,2020-11-02 15:14:15,2020-11-02 15:14:45,3,DF:DC:EF:28:D6:3E,15,15,-25724.198742614273,-46805.57240406783,-1892.0504692119102
16839,-31742,-12280,31216,249,12527,12546,-28093,-26360,2288,15,1,60147,2020-11-02 15:14:15,2020-11-02 15:14:45,3,DF:DC:EF:28:D6:3E,15,15,-1727.3179074298605,-15597.603029327132,43434.11991264698
16840,-5630,27655,4349,-20230,-26895,11012,-959,-9718,2031,15,1,60173,2020-11-02 15:14:15,2020-11-02 15:14:45,3,DF:DC:EF:28:D6:3E,15,15,-6701.459294967169,27655.0,-2387.7069162479174
16841,12290,-18944,12027,11777,-28936,29960,7489,11020,-31507,15,1,60198,2020-11-02 15:14:15,2020-11-02 15:14:45,3,DF:DC:EF:28:D6:3E,15,15,19149.44339201805,-7025.935792260344,-15443.542631758146
16842,8200,8956,23301,-31995,-11525,-24569,-18880,-27636,-18709,15,1,60225,2020-11-02 15:14:15,2020-11-02 15:14:45,3,DF:DC:EF:28:D6:3E,15,15,22749.051841294786,8877.32169802036,9698.470848125444
16843,1538,25101,763,18185,-30463,-29177,11585,-20212,28394,15,1,60250,2020-11-02 15:14:15,2020-11-02 15:14:45,3,DF:DC:EF:28:D6:3E,15,15,-5359.082411438847,10837.29499255397,-22064.47567815223
16844,27898,7945,-14613,11010,3068,21251,-27327,27916,23785,15,1,60275,2020-11-02 15:14:15,2020-11-02 15:14:45,3,DF:DC:EF:28:D6:3E,15,15,24058.21868685644,18880.875212088315,10939.646376411833
16845,-12564,-14595,-1056,-2568,-26125,-29696,-18624,1294,-8728,15,1,60301,2020-11-02 15:14:15,2020-11-02 15:14:45,3,DF:DC:EF:28:D6:3E,15,15,5244.607708723615,18298.519992240017,3105.0785940438323
16846,-12818,31740,21995,-29444,-8966,32268,-11202,-6386,9703,15,1,60326,2020-11-02 15:14:15,2020-11-02 15:14:45,3,DF:DC:EF:28:D6:3E,15,15,-27006.672887663528,23934.781931309288,-18795.600081918383
16847,29174,-12286,-6685,27401,23809,-30964,-6595,19726,-31516,15,1,60352,2020-11-02 15:14:15,2020-11-02 15:14:45,3,DF:DC:EF:28:D6:3E,15,15,3836.1774351718404,-30264.111463487337,-10776.112332909885
16848,6639,-19442,1496,-11251,2052,15870,-15297,22797,6628,15,1,60378,2020-11-02 15:14:15,2020-11-02 15:14:45,3,DF:DC:EF:28:D6:3E,15,15,-10203.464630621755,1601.1708743476368,-17822.212611311526
16849,-5399,14598,21211,15104,8956,-3337,19265,-20979,15077,15,1,60403,2020-11-02 15:14:15,2020-11-02 15:14:45,3,DF:DC:EF:28:D6:3E,15,15,12526.385633427657,14550.144806263026,17987.225330201272
16850,29937,32506,2525,516,-7681,16378,20034,15630,28390,15,-1,60429,2020-11-02 15:14:15,2020-11-02 15:14:45,3,DF:DC:EF:28:D6:3E,15,15,-17721.61460958949,29259.46394482311,-28090.350216591833
16851,22271,19192,22238,18191,14350,-8458,-26044,5133,-10521,15,-1,60455,2020-11-02 15:14:15,2020-11-02 15:14:45,3,DF:DC:EF:28:D6:3E,15,15,-12684.718692886587,-34611.511608691195,-11.173350815244703
16852,32498,-23567,-10283,29706,28943,1262,-20805,18698,31978,15,-1,60480,2020-11-02 15:14:15,2020-11-02 15:14:45,3,DF:DC:EF:28:D6:3E,15,15,12395.724030377754,35230.129223707205,-17956.826073769465
16853,-11027,-23824,9700,17918,19709,15084,24509,11785,-21011,15,-1,60506,2020-11-02 15:14:15,2020-11-02 15:14:45,3,DF:DC:EF:28:D6:3E,15,15,-11832.448275190794,-24831.688228265528,5162.182924805513
16854,8180,13811,-18450,-2819,-22791,30191,20414,-22007,-10256,15,-1,60531,2020-11-02 15:14:15,2020-11-02 15:14:45,3,DF:DC:EF:28:D6:3E,15,15,-15231.082631707948,3234.1003563586155,-18857.712951232592
16855,22775,-17161,-29192,4099,-2046,-9484,27583,26889,8691,15,-1,60557,2020-11-02 15:14:15,2020-11-02 15:14:45,3,DF:DC:EF:28:D6:3E,15,15,-12004.942944178494,-38824.95262255747,-3725.29311104334
16856,-13062,15868,-23043,32522,-25330,20988,-9024,-19961,-16653,15,-1,60583,2020-11-02 15:14:15,2020-11-02 15:14:45,3,DF:DC:EF:28:D6:3E,15,15,-16732.029647148116,-10568.126930389095,23701.11799198808
16857,-5377,17664,15870,20749,27414,-26623,-31294,-8188,-22798,15,-1,60608,2020-11-02 15:14:15,2020-11-02 15:14:45,3,DF:DC:EF:28:D6:3E,15,15,19296.368605303847,13061.334436766889,7059.576926358372
16858,23807,-6912,-30978,27146,-5099,-5121,4548,-14079,2801,15,-1,60634,2020-11-02 15:14:15,2020-11-02 15:14:45,3,DF:DC:EF:28:D6:3E,15,15,18261.007950528146,-6912.0,34539.04054299638
16859,9208,-7679,256,5637,9997,32253,9157,24063,4848,15,-1,60659,2020-11-02 15:14:15,2020-11-02 15:14:45,3,DF:DC:EF:28:D6:3E,15,15,-1233.2322552538903,-4364.397978872266,11101.84712048482
16860,3829,15106,9217,25347,-26108,1282,-18235,25342,-31761,15,-1,60685,2020-11-02 15:14:15,2020-11-02 15:14:45,3,DF:DC:EF:28:D6:3E,15,15,14799.827820484896,1895.88406949999,10255.549038399527
16861,-1801,-17921,-7940,27907,20223,-504,19910,-12546,-25618,15,-1,60711,2020-11-02 15:14:15,2020-11-02 15:14:45,3,DF:DC:EF:28:D6:3E,15,15,-11595.98551673093,-15430.85145943763,-3856.34349255068
16862,254,8702,8443,6402,-16643,21004,-16698,2560,20461,15,-1,60736,2020-11-02 15:14:15,2020-11-02 15:14:45,3,DF:DC:EF:28:D6:3E,15,15,-823.8250982656976,-3979.4546040269943,-11426.233949204605
16863,14336,-26626,19965,11522,-25090,-21237,-58,19201,-5141,15,-1,60762,2020-11-02 15:14:15,2020-11-02 15:14:45,3,DF:DC:EF:28:D6:3E,15,15,-11375.071470348737,-26626.0,-21788.29663017415
16864,-10496,-1795,-771,10244,-16386,11018,25287,24578,-22550,15,-1,60787,2020-11-02 15:14:15,2020-11-02 15:14:45,3,DF:DC:EF:28:D6:3E,15,15,-5313.375105960234,-1353.160875406754,-9160.75775406328
16865,22015,19453,30714,-15355,4093,-2552,4552,31491,-20759,15,-1,60813,2020-11-02 15:14:15,2020-11-02 15:14:45,3,DF:DC:EF:28:D6:3E,15,15,25720.53476850488,-15983.270560636061,29823.118271026524
16866,-1,-8453,-17161,-28667,17146,-15097,-11576,-12284,5865,15,-1,60839,2020-11-02 15:14:15,2020-11-02 15:14:45,3,DF:DC:EF:28:D6:3E,15,15,2886.0610138944085,-17875.59894516202,-6171.445955025563
16867,25092,22781,4604,-4090,-24326,13315,-16183,3590,5353,15,-1,60864,2020-11-02 15:14:15,2020-11-02 15:14:45,3,DF:DC:EF:28:D6:3E,15,15,25092.0,-5293.835730275013,-22630.6447159789
16868,-6148,24032,-8460,15112,-17923,1022,9163,28934,-24599,15,-1,60890,2020-11-02 15:14:15,2020-11-02 15:14:45,3,DF:DC:EF:28:D6:3E,15,15,-4264.234598108747,-25818.66574231005,-1455.7920796451726
16869,14831,22755,-19222,25611,28660,-9474,-308,-11770,-26646,15,-1,60915,2020-11-02 15:14:15,2020-11-02 15:14:45,3,DF:DC:EF:28:D6:3E,15,15,-24611.554808902954,-6316.766163431943,21484.964629360857
16870,-31242,-289,-4657,-27379,-19472,-12031,-22065,-28152,-20244,15,-1,60941,2020-11-02 15:14:15,2020-11-02 15:14:45,3,DF:DC:EF:28:D6:3E,15,15,-23753.93441000235,-3011.2019834620587,20603.81024616807
16871,-20744,28141,-22564,-13561,-30716,32257,9425,-1784,-9492,15,-1,60967,2020-11-02 15:14:15,2020-11-02 15:14:45,3,DF:DC:EF:28:D6:3E,15,15,17563.207021146925,35929.273614665784,11488.453753870312
16872,-10768,-18957,-2073,3332,15619,18941,32721,29704,-789,15,-1,60992,2020-11-02 15:14:15,2020-11-02 15:14:45,3,DF:DC:EF:28:D6:3E,15,15,-19922.23601998234,-7365.2340712030655,-5335.994850120041
16873,-22033,-6410,-32279,-32256,-17160,3067,2514,8456,-8724,15,-1,61018,2020-11-02 15:14:15,2020-11-02 15:14:45,3,DF:DC:EF:28:D6:3E,15,15,-26501.453208050116,29409.839190462953,1099.7120771547015
16874,11507,4855,-18195,510,27390,5892,-2351,-31736,-30995,15,-1,61043,2020-11-02 15:14:15,2020-11-02 15:14:45,3,DF:DC:EF:28:D6:3E,15,15,-8678.907452346948,-12223.747863847071,-16195.575093052135
16875,-25097,-5388,32751,25598,5634,-20728,18129,31497,-24852,15,1,61069,2020-11-02 15:14:15,2020-11-02 15:14:45,3,DF:DC:EF:28:D6:3E,15,15,-16685.00922205775,18228.585188412282,-33479.05469526647
16876,-9735,-14860,13550,-15620,20224,10757,-30768,17674,-9493,15,1,61095,2020-11-02 15:14:15,2020-11-02 15:14:45,3,DF:DC:EF:28:D6:3E,15,15,-10066.80008745776,-16171.91657209807,11675.6573855291
16877,-32519,-7952,-15125,-27912,24830,-7167,-26161,-19446,-17941,15,1,61120,2020-11-02 15:14:15,2020-11-02 15:14:45,3,DF:DC:EF:28:D6:3E,15,15,-28982.102465471988,-20943.963130386648,-8418.636176595768
16878,-7691,32491,23028,8182,30723,-4865,3534,-22774,-32021,15,1,61146,2020-11-02 15:14:15,2020-11-02 15:14:45,3,DF:DC:EF:28:D6:3E,15,15,-29918.415847277687,13401.521173402638,-23882.901193703496
16879,30192,-20758,-24329,-26377,6658,16641,26828,23818,-1558,15,1,61172,2020-11-02 15:14:15,2020-11-02 15:14:45,3,DF:DC:EF:28:D6:3E,15,15,-43659.0014430639,-4843.913626459727,2186.26685789777
16880,-10253,17132,-22800,-13571,8958,-24062,-21813,-15094,-5910,15,1,61197,2020-11-02 15:14:15,2020-11-02 15:14:45,3,DF:DC:EF:28:D6:3E,15,15,-24575.587017806625,928.287310890164,-17710.116837521284
16881,-26894,-30228,4586,-18180,1027,5380,9163,1291,25834,15,1,61223,2020-11-02 15:14:15,2020-11-02 15:14:45,3,DF:DC:EF:28:D6:3E,15,15,2298.307668092139,33551.3241716232,-22958.158554061803
16882,17392,-14612,19437,10999,-1787,-9978,22985,267,-6168,15,1,61249,2020-11-02 15:14:15,2020-11-02 15:14:45,3,DF:DC:EF:28:D6:3E,15,15,29811.874260868757,-1526.5833496265204,-1646.472997286577
16883,-14865,-4113,6893,-520,-21253,26629,-11833,-28405,12264,15,1,61274,2020-11-02 15:14:15,2020-11-02 15:14:45,3,DF:DC:EF:28:D6:3E,15,15,-11573.553571978078,6114.1961369031915,10680.257783220008
16884,-22286,-24845,27120,25335,22523,-7927,22982,-5876,-26905,15,1,61300,2020-11-02 15:14:15,2020-11-02 15:14:45,3,DF:DC:EF:28:D6:3E,15,15,-19360.85214832147,-33828.706515570404,-18171.68788457034
16885,2553,24827,-32512,13048,27647,-26866,-4157,11534,-21019,15,1,61325,2020-11-02 15:14:15,2020-11-02 15:14:45,3,DF:DC:EF:28:D6:3E,15,15,33822.602451247956,-20256.67279129677,11208.329619134729
16886,-12547,-14338,16643,29438,-25093,-32244,-4671,25615,28131,15,1,61351,2020-11-02 15:14:15,2020-11-02 15:14:45,3,DF:DC:EF:28:D6:3E,15,15,-7978.795066350267,12697.48180708906,-20374.191690661668
16887,-20482,2050,-8453,-1023,29692,-25590,-2368,-30448,-24863,15,1,61376,2020-11-02 15:14:15,2020-11-02 15:14:45,3,DF:DC:EF:28:D6:3E,15,15,7544.499877348964,-11871.44811843452,17242.89053992975
16888,-29440,16640,-24585,-21251,11261,-23287,-28737,26129,-19745,15,-1,61402,2020-11-02 15:14:15,2020-11-02 15:14:45,3,DF:DC:EF:28:D6:3E,15,15,-8327.587962659183,-29768.3885891159,-28151.727203345232
16889,-26622,17151,19448,17403,-29440,3592,-19523,-12783,-2083,15,-1,61427,2020-11-02 15:14:15,2020-11-02 15:14:45,3,DF:DC:EF:28:D6:3E,15,15,30786.521938186703,-14234.859392445942,-15187.864696093468
16890,22787,-12546,24057,30714,19204,-11258,-20549,30737,17372,15,-1,61453,2020-11-02 15:14:15,2020-11-02 15:14:45,3,DF:DC:EF:28:D6:3E,15,15,-29559.64037192436,-11761.617637201223,15597.459589265698
16891,9474,-11266,-521,-22280,-26876,-28157,-3655,-18160,10715,15,-1,61479,2020-11-02 15:14:15,2020-11-02 15:14:45,3,DF:DC:EF:28:D6:3E,15,15,4452.139647751394,-13917.493196742931,1852.7570470880141
16892,-9727,24319,19451,-25355,-22015,10496,-1724,14864,-7974,15,-1,61504,2020-11-02 15:14:15,2020-11-02 15:14:45,3,DF:DC:EF:28:D6:3E,15,15,32206.989823305244,-5149.4273004149745,750.2639530549395
16893,7682,15103,27134,12021,-15106,7934,32579,15632,8411,15,-1,61530,2020-11-02 15:14:15,2020-11-02 15:14:45,3,DF:DC:EF:28:D6:3E,15,15,-30560.666475262842,8490.963467320895,-4161.357108488493
16894,-32510,8448,-14849,1527,-12547,-21762,11842,-26608,27611,15,-1,61556,2020-11-02 15:14:15,2020-11-02 15:14:45,3,DF:DC:EF:28:D6:3E,15,15,-13188.853002683572,-30548.61279313417,15543.423621865419
16895,-254,-14848,-20227,21498,23808,-12032,6465,-18928,26331,15,-1,61581,2020-11-02 15:14:15,2020-11-02 15:14:45,3,DF:DC:EF:28:D6:3E,15,15,4484.788174916744,-8573.36614571506,23152.60713089638
16896,2052,18175,-30980,-27396,-23804,-9727,21056,12560,14299,15,-1,61607,2020-11-02 15:14:15,2020-11-02 15:14:45,3,DF:DC:EF:28:D6:3E,15,15,164.99935006664418,32371.223588645116,-15696.445062128669
16897,-25867,11507,28389,26624,-9466,-5636,30528,12815,-21285,15,-1,61633,2020-11-02 15:14:15,2020-11-02 15:14:45,3,DF:DC:EF:28:D6:3E,15,15,-3670.5192952360326,-31318.40475613039,24761.519958081924
16898,-265,22272,26360,-20228,-19722,11511,19265,-27889,11485,15,-1,61658,2020-11-02 15:14:15,2020-11-02 15:14:45,3,DF:DC:EF:28:D6:3E,15,15,30588.531110806784,-4914.2181391039685,15203.750641355136
16899,21495,-27137,-32014,-21248,-32001,19190,-14783,-1520,32734,15,-1,61684,2020-11-02 15:14:15,2020-11-02 15:14:45,3,DF:DC:EF:28:D6:3E,15,15,-10988.095107748362,-25666.16334849551,37998.12909698874
16900,-7196,6399,15582,7441,2828,-530,-20155,-9457,-20511,15,-1,61709,2020-11-02 15:14:15,2020-11-02 15:14:45,3,DF:DC:EF:28:D6:3E,15,15,-10337.518324105096,2704.26226474842,-14877.870193755862
16901,-11558,27132,-5166,4100,-19964,9716,-25668,-29426,-29468,15,-1,61735,2020-11-02 15:14:15,2020-11-02 15:14:45,3,DF:DC:EF:28:D6:3E,15,15,18830.989581922593,14920.832639753371,17865.691386061524
16902,10466,-18956,15337,-26376,31747,19196,-28228,-7923,-22811,15,-1,61786,2020-11-02 15:14:15,2020-11-02 15:14:45,3,DF:DC:EF:28:D6:3E,15,15,-25789.822554103033,-4467.557671839133,-4360.8075028221265
16903,1770,-27665,19193,12032,-6398,17915,26300,26125,18150,15,-1,61788,2020-11-02 15:14:15,2020-11-02 15:14:45,3,DF:DC:EF:28:D6:3E,15,15,2830.876483328864,-33341.51974800522,-4145.548604167252
16904,1511,16365,-20758,14350,6659,-27916,-19266,-13556,-9497,15,-1,61812,2020-11-02 15:14:15,2020-11-02 15:14:45,3,DF:DC:EF:28:D6:3E,15,15,-25399.22291661641,4149.737586673693,-6216.917499354124
16905,-1825,-1298,-1317,-7155,15617,-6154,6594,3084,-21015,15,-1,61837,2020-11-02 15:14:15,2020-11-02 15:14:45,3,DF:DC:EF:28:D6:3E,15,15,1864.1587282131861,-145.28877715614487,-1803.8074751089898
16906,-23328,-5133,-3613,-7164,20735,-512,-25149,-5877,13802,15,-1,61863,2020-11-02 15:14:15,2020-11-02 15:14:45,3,DF:DC:EF:28:D6:3E,15,15,-825.2979806732226,-12829.69933293017,-20452.744076766518
16907,-26391,21746,-14866,-26876,-28927,-15094,-23613,29196,5097,15,-1,61888,2020-11-02 15:14:15,2020-11-02 15:14:45,3,DF:DC:EF:28:D6:3E,15,15,-32585.48557661545,-2963.5082840524447,-17882.256607781328
16908,-26887,-21001,-27911,14348,26890,15890,27331,-27380,6886,15,-1,61914,2020-11-02 15:14:15,2020-11-02 15:14:45,3,DF:DC:EF:28:D6:3E,15,15,29677.90317154805,32532.06483316905,-1965.5818555084516
16909,16374,3846,8676,-22258,-18688,-26608,-4669,-14580,-30494,15,-1,61940,2020-11-02 15:14:15,2020-11-02 15:14:45,3,DF:DC:EF:28:D6:3E,15,15,-7858.722843992045,-13008.149453999278,11278.346112960706
16910,-18946,-751,15083,11518,-13315,-7409,7875,15118,15072,15,-1,61965,2020-11-02 15:14:15,2020-11-02 15:14:45,3,DF:DC:EF:28:D6:3E,15,15,5784.040419342846,18835.324787365884,14099.192267000566
16911,-31997,-9198,13553,23548,12553,-10476,6336,-26610,27356,15,-1,62017,2020-11-02 15:14:15,2020-11-02 15:14:45,3,DF:DC:EF:28:D6:3E,15,15,-25856.373513888888,-4886.471812007205,24488.065745189517
16912,-22007,-29941,-19730,-773,-29168,15127,-20804,-1012,-28713,15,-1,62019,2020-11-02 15:14:15,2020-11-02 15:14:45,3,DF:DC:EF:28:D6:3E,15,15,-31996.447765842837,-13484.712027155154,23757.826119247275
16913,-29168,-9725,-18197,10999,13068,-29679,17478,-4854,-14381,15,-1,62042,2020-11-02 15:14:15,2020-11-02 15:14:45,3,DF:DC:EF:28:D6:3E,15,15,23227.633013089064,21447.211248804797,16642.501382256094
16914,-9962,22268,25839,22003,-26357,-12281,-20925,-7416,-10287,15,-1,62068,2020-11-02 15:14:15,2020-11-02 15:14:45,3,DF:DC:EF:28:D6:3E,15,15,-5331.370607555495,-25749.58351911894,-23901.770332693173
16915,5651,26103,-1808,755,-4594,-6918,-10943,-14330,14290,15,-1,62093,2020-11-02 15:14:15,2020-11-02 15:14:45,3,DF:DC:EF:28:D6:3E,15,15,-19143.469462713834,11594.407429483716,14685.590464440837
16916,-25846,14835,32755,-14091,18193,-27920,-16320,-24828,-26924,15,-1,62119,2020-11-02 15:14:15,2020-11-02 15:14:45,3,DF:DC:EF:28:D6:3E,15,15,-15495.332925920902,-18180.537363515272,37287.33946916428
16917,26371,-25617,28147,11512,-8178,-6678,9024,-4350,5080,15,-1,62145,2020-11-02 15:14:15,2020-11-02 15:14:45,3,DF:DC:EF:28:D6:3E,15,15,26371.0,-37525.807978811994,-6348.073214553357
16918,19451,-11280,9456,6902,26376,744,26943,23042,-549,15,-1,62170,2020-11-02 15:14:15,2020-11-02 15:14:45,3,DF:DC:EF:28:D6:3E,15,15,-14496.956470063345,14529.424438973312,13180.660665431515
16919,12278,-30733,18674,17645,16643,-5907,-25027,-14590,20959,15,-1,62196,2020-11-02 15:14:15,2020-11-02 15:14:45,3,DF:DC:EF:28:D6:3E,15,15,-27707.644374614087,-2066.4768795528817,25922.981416422565
16920,27895,9461,28147,-4120,11012,-23817,-25030,11011,16609,15,-1,62221,2020-11-02 15:14:15,2020-11-02 15:14:45,3,DF:DC:EF:28:D6:3E,15,15,22656.02323392858,16544.108711322257,-29544.749671839156
16921,-1545,-16134,-2576,31468,3849,-6914,-25801,-21502,23522,15,-1,62247,2020-11-02 15:14:15,2020-11-02 15:14:45,3,DF:DC:EF:28:D6:3E,15,15,7485.79973430737,-10449.329375544623,10203.091440304936
16922,14325,6129,7920,25840,9486,5635,15925,5377,26851,15,-1,62273,2020-11-02 15:14:15,2020-11-02 15:14:45,3,DF:DC:EF:28:D6:3E,15,15,-16743.933847010067,-4466.732699347297,2277.2009835612353
16923,1791,778,-6656,-19462,30220,17409,-22477,28159,-25116,15,-1,62298,2020-11-02 15:14:15,2020-11-02 15:14:45,3,DF:DC:EF:28:D6:3E,15,15,5264.287548167527,-3479.750958886224,-2879.9150810985248
16924,31740,-17654,-27662,5,-20982,24059,-10701,-32258,5606,15,1,62324,2020-11-02 15:14:15,2020-11-02 15:14:45,3,DF:DC:EF:28:D6:3E,15,15,8916.642060035385,-32815.26728955217,-30461.931768823448
16925,15092,-12276,4838,7432,-11003,-13577,-8396,32510,-12825,15,1,62349,2020-11-02 15:14:15,2020-11-02 15:14:45,3,DF:DC:EF:28:D6:3E,15,15,1054.400863322744,8459.702597787305,18143.7745460093
16926,6130,30994,28386,9993,6657,8697,11318,8447,-6680,15,1,62375,2020-11-02 15:14:15,2020-11-02 15:14:45,3,DF:DC:EF:28:D6:3E,15,15,14611.966376200933,-35971.36497874708,17219.793035531595
16927,-20749,8203,-13852,5387,14337,509,-12745,-29697,-25879,15,1,62401,2020-11-02 15:14:15,2020-11-02 15:14:45,3,DF:DC:EF:28:D6:3E,15,15,17025.09194292979,4780.293559969366,19416.05397127085
16928,13308,22275,-3344,-501,1021,-1792,-30407,-14849,31977,15,1,62426,2020-11-02 15:14:15,2020-11-02 15:14:45,3,DF:DC:EF:28:D6:3E,15,15,2298.220045230917,25810.27483032876,3606.760708252828
16929,-25860,-24584,-31248,-32494,-8199,-28167,572,-25600,31465,15,1,62452,2020-11-02 15:14:15,2020-11-02 15:14:45,3,DF:DC:EF:28:D6:3E,15,15,-25487.592350246137,-505.28057659996193,39995.96839340917
16930,31730,11768,-30749,-749,14072,28398,22079,30210,-1302,15,1,62477,2020-11-02 15:14:15,2020-11-02 15:14:45,3,DF:DC:EF:28:D6:3E,15,15,-21782.76629400796,-7310.932572161184,39532.784907035624
16931,20202,-19722,19939,-247,-269,23530,6466,-16892,-16403,15,1,62503,2020-11-02 15:14:15,2020-11-02 15:14:45,3,DF:DC:EF:28:D6:3E,15,15,-23650.262620187197,14246.916178243355,20792.601241939017
16932,31723,6140,20983,12040,28141,-25620,4932,-12025,-24848,15,1,62529,2020-11-02 15:14:15,2020-11-02 15:14:45,3,DF:DC:EF:28:D6:3E,15,15,16453.642285517275,-28443.875141042525,20113.633199922413
16933,-17171,14847,21238,-7919,-7439,30451,-23366,-27382,9203,15,1,62554,2020-11-02 15:14:15,2020-11-02 15:14:45,3,DF:DC:EF:28:D6:3E,15,15,26673.428469212264,-6168.217451461593,14724.489844110094
16934,16878,-29954,19696,-19183,4348,3329,-6211,-16373,6644,15,1,62580,2020-11-02 15:14:15,2020-11-02 15:14:45,3,DF:DC:EF:28:D6:3E,15,15,-21734.177831658188,-33128.273899244836,429.41639287687394
16935,-10765,-29442,-15116,27663,-11522,26381,-25409,22540,-24590,15,1,62605,2020-11-02 15:14:15,2020-11-02 15:14:45,3,DF:DC:EF:28:D6:3E,15,15,-29044.164747658742,-13315.674431089576,13796.352907782712
16936,-13576,7165,-20491,-17394,27646,12050,21440,20749,-16401,15,1,62631,2020-11-02 15:14:15,2020-11-02 15:14:45,3,DF:DC:EF:28:D6:3E,15,15,-10664.285576153507,-13205.438075511187,-19168.085464753218
16937,20217,15870,17651,-6899,-25090,21010,-22080,22030,-29972,15,1,62657,2020-11-02 15:14:15,2020-11-02 15:14:45,3,DF:DC:EF:28:D6:3E,15,15,6210.675240161436,-25610.408370367797,16663.621640094945
16938,-24585,-6142,12014,-8695,-5381,10516,21696,-24049,9449,15,1,62682,2020-11-02 15:14:15,2020-11-02 15:14:45,3,DF:DC:EF:28:D6:3E,15,15,-225.19183494945128,7765.330069102123,26946.827690015212
16939,28663,-3323,-7193,2563,-27397,22810,12222,12049,-21532,15,-1,62708,2020-11-02 15:14:15,2020-11-02 15:14:45,3,DF:DC:EF:28:D6:3E,15,15,12952.233563566662,-6157.231539684712,-26051.435516714413
16940,11004,-12543,1256,-10500,-29950,6437,-23483,-18927,-24355,15,-1,62734,2020-11-02 15:14:15,2020-11-02 15:14:45,3,DF:DC:EF:28:D6:3E,15,15,683.9827897674528,-11880.706300122525,11763.221767591172
16941,-8956,26615,-19984,-18183,-13811,26666,28991,6671,-22059,15,-1,62759,2020-11-02 15:14:15,2020-11-02 15:14:45,3,DF:DC:EF:28:D6:3E,15,15,29134.851896321557,15883.94278461166,-9316.07125319419
16942,274,7177,-23299,4347,12817,1827,-16837,22794,24528,15,-1,62785,2020-11-02 15:14:15,2020-11-02 15:14:45,3,DF:DC:EF:28:D6:3E,15,15,-18408.818832023127,15666.895903051265,-3176.7228353613427
16943,24078,23292,-18193,8955,32279,4640,-6087,18693,20429,15,-1,62810,2020-11-02 15:14:15,2020-11-02 15:14:45,3,DF:DC:EF:28:D6:3E,15,15,28094.41956276535,-1253.0644434834066,25736.861034939466
16944,4367,-29694,-12551,-5122,28698,-30958,19001,-16385,14540,15,-1,62836,2020-11-02 15:14:15,2020-11-02 15:14:45,3,DF:DC:EF:28:D6:3E,15,15,-24468.618273917717,-21431.816843210443,543.9416920785416
16945,19472,-10757,-524,-25856,-15106,-25852,32313,-28419,-10037,15,-1,62862,2020-11-02 15:14:15,2020-11-02 15:14:45,3,DF:DC:EF:28:D6:3E,15,15,-5710.169719780146,2315.577177783789,-21381.7322288217
16946,-4335,775,-30732,-27639,-2310,-26891,15418,31998,-6197,15,-1,62887,2020-11-02 15:14:15,2020-11-02 15:14:45,3,DF:DC:EF:28:D6:3E,15,15,15587.504425542207,26847.15920269354,-329.27576426114774
16947,-22018,-25075,-14883,11280,-2308,12265,32572,10496,16590,15,-1,62938,2020-11-02 15:14:15,2020-11-02 15:14:45,3,DF:DC:EF:28:D6:3E,15,15,17453.882065476035,13249.48010128873,29238.073053640317
16948,20209,9224,-23597,27131,-14599,20207,31549,13570,-11824,15,-1,62940,2020-11-02 15:14:15,2020-11-02 15:14:45,3,DF:DC:EF:28:D6:3E,15,15,-8816.54623560371,28822.45460402633,-11909.613304986162
16949,-19213,-26107,-15635,30194,14595,29174,-13765,6147,25810,15,-1,62964,2020-11-02 15:14:15,2020-11-02 15:14:45,3,DF:DC:EF:28:D6:3E,15,15,-12387.518938870107,-9213.561097668005,32508.886622563274
16950,29167,-14839,-3085,-22271,25345,-13579,13627,25859,-1069,15,-1,62990,2020-11-02 15:14:15,2020-11-02 15:14:45,3,DF:DC:EF:28:D6:3E,15,15,-9824.831469071827,8980.385469280274,30054.157756082193
16951,22761,13580,3043,17419,5886,20984,-13252,21252,12245,15,-1,63015,2020-11-02 15:14:15,2020-11-02 15:14:45,3,DF:DC:EF:28:D6:3E,15,15,12799.337488212443,-21036.13893898655,10266.313281918363
16952,-28181,-18680,3810,18436,-3331,-19968,62,-9468,30677,15,-1,63041,2020-11-02 15:14:15,2020-11-02 15:14:45,3,DF:DC:EF:28:D6:3E,15,15,-23141.24166446834,12376.335506869393,-21654.94203751372
16953,-267,27649,-31767,-19454,26620,9731,19262,13573,-8492,15,-1,63066,2020-11-02 15:14:15,2020-11-02 15:14:45,3,DF:DC:EF:28:D6:3E,15,15,-1832.9373864642403,-39509.32539606512,-14468.390590703086
16954,1021,10493,31722,-13561,9724,-4354,6207,-20731,-32044,15,1,63092,2020-11-02 15:14:15,2020-11-02 15:14:45,3,DF:DC:EF:28:D6:3E,15,15,18833.913249798235,-10447.12349526277,-25565.056158236835
16955,24830,12539,3818,31757,-2051,-24075,8513,25606,26069,15,1,63118,2020-11-02 15:14:15,2020-11-02 15:14:45,3,DF:DC:EF:28:D6:3E,15,15,19544.355624561733,17179.24317494846,10546.29376400302
16956,-12809,26879,17386,-8947,30206,27118,5188,-3834,-16169,15,1,63169,2020-11-02 15:14:15,2020-11-02 15:14:45,3,DF:DC:EF:28:D6:3E,15,15,29771.430364979846,461.5799206595166,17386.0
16957,2545,-12537,27375,-15610,-10502,-31247,-13639,-18937,28634,15,1,63171,2020-11-02 15:14:15,2020-11-02 15:14:45,3,DF:DC:EF:28:D6:3E,15,15,24434.35417700203,-17773.094337557624,351.386711616251
16958,-1809,-6900,2299,-3838,6656,-11520,-23110,9480,25819,15,1,63194,2020-11-02 15:14:15,2020-11-02 15:14:45,3,DF:DC:EF:28:D6:3E,15,15,6434.123467720301,3211.3962123131087,-2111.1304009160344
16959,-16137,6152,-4100,-20987,-22271,29709,-22342,264,-13607,15,1,63220,2020-11-02 15:14:15,2020-11-02 15:14:45,3,DF:DC:EF:28:D6:3E,15,15,651.233436398261,17448.626596224556,3190.798946477523
16960,-23813,15112,26616,-5877,1018,23819,14779,29192,-24361,15,1,63246,2020-11-02 15:14:15,2020-11-02 15:14:45,3,DF:DC:EF:28:D6:3E,15,15,29161.173974368627,12883.812841706236,-22078.864737492535
16961,-11526,28435,-5924,-10999,-13058,30222,21436,32009,-15403,15,1,63271,2020-11-02 15:14:15,2020-11-02 15:14:45,3,DF:DC:EF:28:D6:3E,15,15,-19534.72926786913,22952.385593817304,-8250.698454299783
16962,23048,-11771,21484,-20231,-28912,-27370,-28998,-14841,-1839,15,1,63297,2020-11-02 15:14:15,2020-11-02 15:14:45,3,DF:DC:EF:28:D6:3E,15,15,-4869.098648917236,-23940.516701950502,23118.662145347884
16963,5381,-25090,-4107,-23556,32765,31488,-1467,28678,25808,15,1,63322,2020-11-02 15:14:15,2020-11-02 15:14:45,3,DF:DC:EF:28:D6:3E,15,15,-22560.133199685377,12264.228769504913,3994.9709262648776
16964,3322,-2294,-2330,29428,22777,29182,-444,-20217,-6960,15,1,63348,2020-11-02 15:14:15,2020-11-02 15:14:45,3,DF:DC:EF:28:D6:3E,15,15,-3529.599793690395,1251.2547272737268,2775.4831838539167
16965,-27141,4094,30451,21746,27654,15114,32322,-3834,-6449,15,1,63374,2020-11-02 15:14:15,2020-11-02 15:14:45,3,DF:DC:EF:28:D6:3E,15,15,10883.989948369019,39242.76114367521,4711.961229069813
16966,11523,-6403,-23555,-17168,24073,18956,-5569,13061,-32562,15,1,63399,2020-11-02 15:14:15,2020-11-02 15:14:45,3,DF:DC:EF:28:D6:3E,15,15,-1295.860571581893,-26953.300617716282,-675.495514444392
16967,-29429,27390,-7942,28401,1290,777,-31939,16899,27341,15,1,63425,2020-11-02 15:14:15,2020-11-02 15:14:45,3,DF:DC:EF:28:D6:3E,15,15,-10633.153197461772,-35849.0161520789,16767.158346222393
16968,-10235,-25102,-26643,-8467,-20719,30471,2619,-9984,17869,15,-1,63451,2020-11-02 15:14:15,2020-11-02 15:14:45,3,DF:DC:EF:28:D6:3E,15,15,-13177.903004584563,27234.212249894124,-23007.729864753666
16969,28416,-30220,-11778,-27411,3853,19457,16696,-19459,27598,15,-1,63476,2020-11-02 15:14:15,2020-11-02 15:14:45,3,DF:DC:EF:28:D6:3E,15,15,33928.09938269117,3658.2744846636824,26361.71163018611
16970,-9459,-2316,4612,-32524,14059,-8448,6198,1279,4813,15,-1,63502,2020-11-02 15:14:15,2020-11-02 15:14:45,3,DF:DC:EF:28:D6:3E,15,15,-9459.0,-5132.20432232463,543.0274338487723
16971,-25850,-30209,-15134,22284,6136,19955,24886,9473,8140,15,-1,63527,2020-11-02 15:14:15,2020-11-02 15:14:45,3,DF:DC:EF:28:D6:3E,15,15,367.6103186569635,15920.355145853755,39449.35096656858
16972,-15114,20487,-22837,26640,-29171,2561,5689,-21504,27853,15,-1,63553,2020-11-02 15:14:15,2020-11-02 15:14:45,3,DF:DC:EF:28:D6:3E,15,15,3617.7738972971674,-27154.03183100765,20475.57084304754
16973,16647,-2295,-1822,32519,-758,-18172,-12486,-12034,-24883,15,-1,63579,2020-11-02 15:14:15,2020-11-02 15:14:45,3,DF:DC:EF:28:D6:3E,15,15,6750.192664948164,-6742.022089986671,13953.112739608026
16974,15372,-12282,4589,-13305,22287,13562,-16069,-10500,-13874,15,-1,63604,2020-11-02 15:14:15,2020-11-02 15:14:45,3,DF:DC:EF:28:D6:3E,15,15,8227.517935777796,-4331.693267133499,17937.36912303265
16975,-27898,32516,-8213,-32757,2565,-2841,-8900,-23812,-15663,15,-1,63630,2020-11-02 15:14:15,2020-11-02 15:14:45,3,DF:DC:EF:28:D6:3E,15,15,12116.962002530963,866.1697237819844,41898.341385296204
16976,-5637,-6902,-15648,25868,9222,24034,12862,-29187,9174,15,-1,63655,2020-11-02 15:14:15,2020-11-02 15:14:45,3,DF:DC:EF:28:D6:3E,15,15,-15131.663914398403,8084.502726611969,5472.370587332041
16977,16117,268,-4133,-32249,11783,-4889,21055,-2307,25562,15,-1,63681,2020-11-02 15:14:15,2020-11-02 15:14:45,3,DF:DC:EF:28:D6:3E,15,15,-10294.163260127481,-12405.199389662686,4129.459150609685
16978,4598,6663,13795,10241,2311,-5137,-28353,-3587,-32547,15,-1,63707,2020-11-02 15:14:15,2020-11-02 15:14:45,3,DF:DC:EF:28:D6:3E,15,15,15491.868184305386,212.26161367456734,-3974.438723576801
16979,29946,24065,12266,9729,22281,9716,27967,24317,-12833,15,-1,63732,2020-11-02 15:14:15,2020-11-02 15:14:45,3,DF:DC:EF:28:D6:3E,15,15,-5977.487808169511,2431.0650879374098,39808.30891963883
16980,762,8447,30439,25095,-10232,25331,-7617,-27652,1250,15,-1,63758,2020-11-02 15:14:15,2020-11-02 15:14:45,3,DF:DC:EF:28:D6:3E,15,15,6569.215046774497,30177.46888423574,-6680.6406436969355
16981,-20745,8703,-31261,2569,17411,-30734,-2752,24828,14308,15,-1,63783,2020-11-02 15:14:15,2020-11-02 15:14:45,3,DF:DC:EF:28:D6:3E,15,15,-23401.868227260104,30220.723690486615,4733.6854666544
16982,-24074,26624,23783,29701,-9475,10740,-12223,-9988,8934,15,1,63809,2020-11-02 15:14:15,2020-11-02 15:14:45,3,DF:DC:EF:28:D6:3E,15,15,-395.8585926221458,18902.795148681398,-38685.31468841419
16983,-21255,18690,5106,11777,-4872,-12810,3906,4094,-32025,15,1,63835,2020-11-02 15:14:15,2020-11-02 15:14:45,3,DF:DC:EF:28:D6:3E,15,15,-23951.53444547493,-15080.289211657308,5106.0
16984,22013,8451,24824,32256,25081,22265,7234,23807,29672,15,1,63860,2020-11-02 15:14:15,2020-11-02 15:14:45,3,DF:DC:EF:28:D6:3E,15,15,-24139.595605199047,24061.942748030673,3244.284390732195
16985,-5635,-7166,15355,-17918,18683,-16646,23618,24320,9961,15,1,63886,2020-11-02 15:14:15,2020-11-02 15:14:45,3,DF:DC:EF:28:D6:3E,15,15,-9843.40683129362,14846.820336032706,-1249.0291682773823
16986,-13828,2308,-14087,-11773,32766,-8195,-6334,-4864,-25111,15,1,63911,2020-11-02 15:14:15,2020-11-02 15:14:45,3,DF:DC:EF:28:D6:3E,15,15,17065.82461875732,-3532.008178810892,-9553.35361570111
16987,-16644,-2812,8184,16898,-24831,-16638,22851,-10496,-32279,15,1,63937,2020-11-02 15:14:15,2020-11-02 15:14:45,3,DF:DC:EF:28:D6:3E,15,15,-2084.2992013673597,-1303.495369923351,-18597.433496581398
16988,13823,17412,28666,-17921,15106,11270,25923,29184,-14616,15,1,63963,2020-11-02 15:14:15,2020-11-02 15:14:45,3,DF:DC:EF:28:D6:3E,15,15,-4989.622714982859,-35685.26153605028,4202.190293860722
16989,9729,259,9212,-8450,-21502,23558,15427,-4097,-10265,15,1,63988,2020-11-02 15:14:15,2020-11-02 15:14:45,3,DF:DC:EF:28:D6:3E,15,15,-1882.6321778680413,-12770.720204044777,-3598.036624724424
16990,-32255,-14079,27388,-29186,-1279,-1020,1603,29695,3303,15,1,64014,2020-11-02 15:14:15,2020-11-02 15:14:45,3,DF:DC:EF:28:D6:3E,15,15,-35412.5418265904,-14079.0,-23161.162543792692
16991,28417,9473,15867,-8962,22017,-13821,-11198,6655,29670,15,1,64040,2020-11-02 15:14:15,2020-11-02 15:14:45,3,DF:DC:EF:28:D6:3E,15,15,22210.15043316269,-9969.423771539521,-23586.96916519259
16992,-28670,30721,26102,-2304,-9473,-7934,-9662,-3842,-1051,15,1,64065,2020-11-02 15:14:15,2020-11-02 15:14:45,3,DF:DC:EF:28:D6:3E,15,15,-28670.0,38562.70278403084,-11747.859336513204
16993,22531,-19202,10731,-6654,-17663,-17662,14403,-11778,-28443,15,1,64091,2020-11-02 15:14:15,2020-11-02 15:14:45,3,DF:DC:EF:28:D6:3E,15,15,-5566.031022833551,9147.500423900783,29611.816233517144
16994,7165,28925,29407,-5376,6156,-12031,-22461,31229,26597,15,1,64116,2020-11-02 15:14:15,2020-11-02 15:14:45,3,DF:DC:EF:28:D6:3E,15,15,-40665.47112096335,-9623.153855239227,-2545.3619366387065
16995,-24836,12280,23011,20987,26881,20481,18499,-24580,18917,15,1,64142,2020-11-02 15:14:15,2020-11-02 15:14:45,3,DF:DC:EF:28:D6:3E,15,15,1872.030218720547,15293.287066473005,32553.683210393356
16996,-30978,-16900,20972,-6399,2046,-18942,5187,-10500,-4380,15,1,64168,2020-11-02 15:14:15,2020-11-02 15:14:45,3,DF:DC:EF:28:D6:3E,15,15,-34384.814324574436,-16900.0,-14735.86820871239
16997,-8194,-29440,30443,3597,-20480,17157,-26300,-10244,19172,15,-1,64193,2020-11-02 15:14:15,2020-11-02 15:14:45,3,DF:DC:EF:28:D6:3E,15,15,-30218.696488690064,8142.014092183897,-29684.49888489124
16998,-11521,19459,3042,17423,24576,19720,27322,-16644,11747,15,-1,64219,2020-11-02 15:14:15,2020-11-02 15:14:45,3,DF:DC:EF:28:D6:3E,15,15,1152.03990160081,22514.916098541027,-3520.1197622776544
16999,23041,-26624,-29478,-3832,23039,-19959,27836,-2308,-14111,15,-1,64244,2020-11-02 15:14:15,2020-11-02 15:14:45,3,DF:DC:EF:28:D6:3E,15,15,-14049.830881763208,-18909.332433234893,39417.21629089583
17000,17411,-19715,1763,-1022,14591,32265,20925,20477,19936,15,-1,64270,2020-11-02 15:14:15,2020-11-02 15:14:45,3,DF:DC:EF:28:D6:3E,15,15,14977.566154534585,-21598.690723555257,2025.187920847861
17001,-25852,4605,-2327,9730,-6146,23302,-15171,-23811,10207,15,-1,64296,2020-11-02 15:14:15,2020-11-02 15:14:45,3,DF:DC:EF:28:D6:3E,15,15,11206.849902106595,9990.606500417794,21668.89833437462
17002,-3836,13564,-4116,5124,5116,27906,21182,9982,-23586,15,-1,64321,2020-11-02 15:14:15,2020-11-02 15:14:45,3,DF:DC:EF:28:D6:3E,15,15,7783.631072596536,10643.011926323416,6463.732084627827
17003,24324,-17666,18414,-7164,-18184,12542,191,4095,-8226,15,-1,64347,2020-11-02 15:14:15,2020-11-02 15:14:45,3,DF:DC:EF:28:D6:3E,15,15,-1723.1131296796684,-30012.92076993383,18414.0
17004,10243,-25089,18925,16131,-14089,32763,-26689,6144,-18977,15,-1,64372,2020-11-02 15:14:15,2020-11-02 15:14:45,3,DF:DC:EF:28:D6:3E,15,15,20936.609935110577,886.6703390770799,-25561.78348892796
17005,-19712,4351,13293,-28416,-28423,-5638,-10305,-4096,-15904,15,-1,64398,2020-11-02 15:14:15,2020-11-02 15:14:45,3,DF:DC:EF:28:D6:3E,15,15,20511.817551608543,12290.88710069393,3520.9982970060246
17006,1535,31231,-28946,-26370,25339,13821,-17217,-27647,-28959,15,-1,64424,2020-11-02 15:14:15,2020-11-02 15:14:45,3,DF:DC:EF:28:D6:3E,15,15,38486.60359278294,6706.650083517476,-17011.898499263443
17007,4607,-7938,-7441,-11011,14078,-24832,28351,-1279,-14367,15,-1,64449,2020-11-02 15:14:15,2020-11-02 15:14:45,3,DF:DC:EF:28:D6:3E,15,15,-2319.7747334063474,-4004.886603389766,10871.26039060047
17008,2304,-21763,22255,1534,-19200,28163,4287,6402,28129,15,-1,64475,2020-11-02 15:14:15,2020-11-02 15:14:45,3,DF:DC:EF:28:D6:3E,15,15,-29524.727979816766,-889.4568689356893,10085.678668098059
17009,27905,-17156,-27921,-6915,-26366,29700,-20546,-3071,-17440,15,-1,64500,2020-11-02 15:14:15,2020-11-02 15:14:45,3,DF:DC:EF:28:D6:3E,15,15,-25784.95718730261,-16851.514481191327,30062.635355856117
17010,23553,16635,-21777,-17923,-31997,2308,18622,-26367,-33,15,-1,64526,2020-11-02 15:14:15,2020-11-02 15:14:45,3,DF:DC:EF:28:D6:3E,15,15,2697.3047674718455,-13395.354765428681,-33451.364407146095
17011,-12287,2555,12784,15358,2818,6146,-4931,18177,29663,15,-1,64552,2020-11-02 15:14:15,2020-11-02 15:14:45,3,DF:DC:EF:28:D6:3E,15,15,6412.277829941804,-12669.608609080455,-10922.122537508507
17012,-13055,-11784,5617,2560,31743,-21506,-11075,11265,27359,15,-1,64577,2020-11-02 15:14:15,2020-11-02 15:14:45,3,DF:DC:EF:28:D6:3E,15,15,-3754.083881400757,-1836.9646088930485,17982.735755081358
17013,-9729,-16907,24309,-31742,-2309,24569,10174,26369,10464,15,-1,64603,2020-11-02 15:14:15,2020-11-02 15:14:45,3,DF:DC:EF:28:D6:3E,15,15,28781.988743011952,-9940.73277933877,-6648.798899569238
17014,32765,-9992,5103,-6395,13564,-13322,-66,-11263,-24607,15,-1,64629,2020-11-02 15:14:15,2020-11-02 15:14:45,3,DF:DC:EF:28:D6:3E,15,15,-1202.7228017209268,16679.15553601184,30327.959484075847
17015,20219,23291,19176,1283,30205,-1287,-9537,-2303,-8990,15,-1,64654,2020-11-02 15:14:15,2020-11-02 15:14:45,3,DF:DC:EF:28:D6:3E,15,15,35091.61137526039,-1496.0960984359663,-9237.86368983327
17016,-25092,11773,-13844,4862,3584,27902,-12865,3330,25827,15,-1,64680,2020-11-02 15:14:15,2020-11-02 15:14:45,3,DF:DC:EF:28:D6:3E,15,15,3166.5586350752,30420.353118319494,-4944.021800860111
17017,-3843,11774,-11794,22783,20483,14848,-27713,-18943,22243,15,-1,64705,2020-11-02 15:14:15,2020-11-02 15:14:45,3,DF:DC:EF:28:D6:3E,15,15,-1618.1104710519107,-1011.5034996079248,-16995.668276762553
17018,15871,-16130,-32018,-20992,-3838,5888,-27201,15361,10979,15,-1,64731,2020-11-02 15:14:15,2020-11-02 15:14:45,3,DF:DC:EF:28:D6:3E,15,15,-28545.65602201587,19904.10275445078,-18060.733119478115
17019,-28928,12542,28909,4865,20737,31486,-19009,-6144,12515,15,-1,64757,2020-11-02 15:14:15,2020-11-02 15:14:45,3,DF:DC:EF:28:D6:3E,15,15,3443.292866603648,12509.695565979444,-40761.65453071441
17020,24320,-26116,-8468,11008,5631,2299,-12353,-15360,-18717,15,-1,64782,2020-11-02 15:14:15,2020-11-02 15:14:45,3,DF:DC:EF:28:D6:3E,15,15,35015.91730227989,1791.2119183785799,10765.313527406184
17021,28414,-27908,-15123,-26369,10495,15609,-13889,-23296,-20764,15,1,64808,2020-11-02 15:14:15,2020-11-02 15:14:45,3,DF:DC:EF:28:D6:3E,15,15,-5642.998562542356,1354.6961956829964,-42204.719575428375
17022,-11780,22012,27372,-30209,-4865,-32006,-17217,29696,-25371,15,1,64833,2020-11-02 15:14:15,2020-11-02 15:14:45,3,DF:DC:EF:28:D6:3E,15,15,-3179.0921254371096,31110.106759753653,-19863.976405914134
17023,32508,-9733,-32532,-11010,-22273,-16388,-26433,21760,14822,15,1,64859,2020-11-02 15:14:15,2020-11-02 15:14:45,3,DF:DC:EF:28:D6:3E,15,15,-15595.531901637412,-40373.33372635894,-18346.8167681769
17024,31485,-1030,749,-29442,15360,-32514,25791,18688,-29978,15,1,64885,2020-11-02 15:14:15,2020-11-02 15:14:45,3,DF:DC:EF:28:D6:3E,15,15,-10019.280013682985,-29498.584055637013,-4730.189501481976
17025,7934,-21771,28403,12542,20991,5630,9919,16384,-15898,15,1,64910,2020-11-02 15:14:15,2020-11-02 15:14:45,3,DF:DC:EF:28:D6:3E,15,15,-29929.319759366732,20301.892737713206,-5976.970470729128
17026,5117,31224,-16142,-11520,-7170,-2565,9663,20224,18919,15,1,64936,2020-11-02 15:14:15,2020-11-02 15:14:45,3,DF:DC:EF:28:D6:3E,15,15,-1734.7162250829006,-30513.989521399963,-18098.98428383006
17027,-11013,-18953,-15633,27393,19711,-24067,28095,17664,-14361,15,1,64961,2020-11-02 15:14:15,2020-11-02 15:14:45,3,DF:DC:EF:28:D6:3E,15,15,-5472.754276229758,-13297.651290633508,-22762.12858642007
17028,6396,-9477,-10771,14337,-20482,29439,-25409,27904,1256,15,1,64987,2020-11-02 15:14:15,2020-11-02 15:14:45,3,DF:DC:EF:28:D6:3E,15,15,-4080.941526031769,14346.100271886145,4926.673243690691
17029,8957,-2563,16875,-28160,-1793,14338,-16193,-27392,-7449,15,1,65013,2020-11-02 15:14:15,2020-11-02 15:14:45,3,DF:DC:EF:28:D6:3E,15,15,8727.514097850355,16781.398928775932,-3711.8177036461975
17030,-19715,16126,-12564,23039,8961,-9981,-21313,-24832,24295,15,1,65038,2020-11-02 15:14:15,2020-11-02 15:14:45,3,DF:DC:EF:28:D6:3E,15,15,-26874.34027526475,-3979.1056098663685,8277.665752783985
17031,-30466,-3587,5100,-16898,-22527,5,31423,-25856,-23834,15,1,65064,2020-11-02 15:14:15,2020-11-02 15:14:45,3,DF:DC:EF:28:D6:3E,15,15,-18364.876979613415,15337.971430705758,19862.82081967512
17032,-24833,20219,3822,-17923,-31998,23301,10431,31488,-15387,15,1,65089,2020-11-02 15:14:15,2020-11-02 15:14:45,3,DF:DC:EF:28:D6:3E,15,15,17553.957893913463,19833.140132965436,-18401.050207117773
17033,-11009,-29190,6640,-2307,22274,12036,-12610,17920,-1820,15,1,65115,2020-11-02 15:14:15,2020-11-02 15:14:45,3,DF:DC:EF:28:D6:3E,15,15,14254.545030064612,18185.061072933615,-21987.616532028536
17034,4352,3066,30704,-25346,15104,14850,-27714,13824,31460,15,1,65141,2020-11-02 15:14:15,2020-11-02 15:14:45,3,DF:DC:EF:28:D6:3E,15,15,-29295.9661152287,10053.077379497205,3428.976607854508
17035,11008,2043,-19728,25855,17918,-23552,28094,26624,21732,15,1,65166,2020-11-02 15:14:15,2020-11-02 15:14:45,3,DF:DC:EF:28:D6:3E,15,15,17921.650591149413,13875.34765784593,912.7236507636226
17036,-16896,27132,-14098,-16640,-15620,-7425,31166,-12800,26084,15,1,65192,2020-11-02 15:14:15,2020-11-02 15:14:45,3,DF:DC:EF:28:D6:3E,15,15,-26843.024190159376,-22171.524693170617,-2872.1749784168805
17037,30720,-5124,-29973,-12800,26366,6912,-24642,10497,32484,15,1,65217,2020-11-02 15:14:15,2020-11-02 15:14:45,3,DF:DC:EF:28:D6:3E,15,15,33422.62290032144,-21211.333851338037,-17359.783976478226
17038,-13057,-29700,27371,-14337,-1792,6657,-23106,12289,26084,15,1,65243,2020-11-02 15:14:15,2020-11-02 15:14:45,3,DF:DC:EF:28:D6:3E,15,15,19456.502516027507,24517.879012335026,28671.67606855792
17039,31743,-28165,-7699,-22018,-4863,-30207,31166,-1536,7396,15,1,65269,2020-11-02 15:14:15,2020-11-02 15:14:45,3,DF:DC:EF:28:D6:3E,15,15,30085.995118934945,18405.230533810456,24824.187030005916
17040,14847,9212,30191,-10242,-30720,9728,17854,-11264,-3101,15,1,65294,2020-11-02 15:14:15,2020-11-02 15:14:45,3,DF:DC:EF:28:D6:3E,15,15,32078.56952123052,-13380.365042018755,-2953.3104838304316
17041,-7938,18428,27374,24575,-31744,-6145,10942,-15872,-2333,15,1,65320,2020-11-02 15:14:15,2020-11-02 15:14:45,3,DF:DC:EF:28:D6:3E,15,15,-24245.48564081541,-13077.735845593279,-19825.946514451673
17042,14079,-27652,29422,3071,32256,5888,3006,-21760,-4637,15,-1,65348,2020-11-02 15:14:15,2020-11-02 15:14:45,3,DF:DC:EF:28:D6:3E,15,15,-18090.137236775085,-27652.0,-27140.730641503433
17043,20479,-260,9199,20479,26880,21248,-6211,-24832,-6941,15,-1,65371,2020-11-02 15:14:15,2020-11-02 15:14:45,3,DF:DC:EF:28:D6:3E,15,15,1284.6922131389565,12065.80408255383,-18890.330324240695
17044,-23297,-23555,-26129,-1,-1024,-12800,-9027,-30976,-14365,15,-1,65397,2020-11-02 15:14:15,2020-11-02 15:14:45,3,DF:DC:EF:28:D6:3E,15,15,-31090.82143186254,15482.06470662509,23957.86656010736
17045,6144,-22787,-28688,-2561,12545,7425,-9283,25088,-26653,15,-1,65448,2020-11-02 15:14:15,2020-11-02 15:14:45,3,DF:DC:EF:28:D6:3E,15,15,32029.631891862336,18682.78451229394,2248.0419789196185
17046,-31488,-19971,-10000,-4609,10497,-17664,-10819,15360,27363,15,-1,65450,2020-11-02 15:14:15,2020-11-02 15:14:45,3,DF:DC:EF:28:D6:3E,15,15,-29876.411919806233,-5209.958124713161,23887.05365123115
17047,1792,20732,751,26112,-26112,11776,-9283,6400,21475,15,-1,65474,2020-11-02 15:14:15,2020-11-02 15:14:45,3,DF:DC:EF:28:D6:3E,15,15,11566.371215901096,-13601.859165903425,-10714.456268374219
17048,-6401,-4101,8940,-7168,-24578,27647,-1603,11264,24803,15,-1,65499,2020-11-02 15:14:15,2020-11-02 15:14:45,3,DF:DC:EF:28:D6:3E,15,15,-5760.234816234979,-395.2613843991694,10216.558388216516
17049,-22272,-28676,-2837,27392,2559,13312,3774,24320,29411,15,-1,65525,2020-11-02 15:14:15,2020-11-02 15:14:45,3,DF:DC:EF:28:D6:3E,15,15,-22759.535861405428,-24153.126266173782,-15001.11822310811
17050,15361,-17670,-27155,23040,-15361,13567,7870,26880,32227,15,-1,14,2020-11-02 15:14:15,2020-11-02 15:14:45,3,DF:DC:EF:28:D6:3E,15,15,16250.115236702855,-8036.415270003737,30934.334167748435
17051,8961,-26115,10989,-10240,20991,-14340,14526,25856,-10781,15,-1,40,2020-11-02 15:14:15,2020-11-02 15:14:45,3,DF:DC:EF:28:D6:3E,15,15,9151.75362172172,-12632.798056971398,25292.46302555532
17052,-26112,-13316,-6931,-22785,20477,-32262,19134,-30464,-25372,15,-1,66,2020-11-02 15:14:15,2020-11-02 15:14:45,3,DF:DC:EF:28:D6:3E,15,15,-8998.42613642777,-11245.901087491315,26452.772951008657
17053,-10240,16893,6126,10751,-8452,-29960,13246,-14336,-21531,15,-1,91,2020-11-02 15:14:15,2020-11-02 15:14:45,3,DF:DC:EF:28:D6:3E,15,15,5535.97714509838,13516.831422270101,-14642.648338018642
17054,-6147,-18183,5873,-257,-22020,-23562,12478,-4608,3559,15,-1,117,2020-11-02 15:14:15,2020-11-02 15:14:45,3,DF:DC:EF:28:D6:3E,15,15,-6147.0,2226.4941411894615,-18977.78548301274
17055,4090,245,18162,-18686,-517,-30218,-30274,14081,-22296,15,-1,142,2020-11-02 15:14:15,2020-11-02 15:14:45,3,DF:DC:EF:28:D6:3E,15,15,-5612.121527828491,16721.846743889626,-5960.730024984519
17056,12792,-21509,-15637,-3839,18429,-11525,959,-28671,-12311,15,-1,168,2020-11-02 15:14:15,2020-11-02 15:14:45,3,DF:DC:EF:28:D6:3E,15,15,-14828.115037971336,19286.06070369173,-16702.184915579335
17057,6139,27644,31470,-5121,15360,-15102,6591,-19967,-14103,15,1,194,2020-11-02 15:14:15,2020-11-02 15:14:45,3,DF:DC:EF:28:D6:3E,15,15,-5604.032321467406,15497.517251934692,-38995.65024160946
17058,19968,-17416,28404,29185,-20227,-24319,8895,1026,30697,15,1,219,2020-11-02 15:14:15,2020-11-02 15:14:45,3,DF:DC:EF:28:D6:3E,15,15,-26278.604882641503,-28596.884255086654,691.688024464318
17059,22526,6142,-11286,27139,11262,23551,-22081,19970,-30999,15,1,245,2020-11-02 15:14:15,2020-11-02 15:14:45,3,DF:DC:EF:28:D6:3E,15,15,1444.7680427096561,-22166.476534063448,-13382.025234155682
17060,-1,3318,-16655,-25600,14589,22014,-5185,-25086,-13847,15,1,270,2020-11-02 15:14:15,2020-11-02 15:14:45,3,DF:DC:EF:28:D6:3E,15,15,8262.11861112187,10079.91128330132,10887.191307978765
17061,-18436,29177,-31255,20994,-21250,-25859,20928,-15870,16106,15,1,296,2020-11-02 15:14:15,2020-11-02 15:14:45,3,DF:DC:EF:28:D6:3E,15,15,32328.334025732795,-11826.99299746416,-31353.779768292385
17062,-20740,6654,-5398,-8451,4863,6912,15808,-6142,28650,15,1,322,2020-11-02 15:14:15,2020-11-02 15:14:45,3,DF:DC:EF:28:D6:3E,15,15,-3107.608625818716,18047.19863774064,-12969.31416685823
17063,-32514,25598,30958,-9475,-24833,31744,-11329,1795,25066,15,1,347,2020-11-02 15:14:15,2020-11-02 15:14:45,3,DF:DC:EF:28:D6:3E,15,15,51434.54632067832,-1461.2307720726985,-4813.295484046666
17064,28926,-20994,12526,-23810,4096,-22273,-28481,2051,24810,15,1,373,2020-11-02 15:14:15,2020-11-02 15:14:45,3,DF:DC:EF:28:D6:3E,15,15,-15696.268574038546,-24664.604425785874,-24075.85158143225
17065,16382,-9987,3823,-7170,-6657,-18178,24511,259,-31766,15,1,398,2020-11-02 15:14:15,2020-11-02 15:14:45,3,DF:DC:EF:28:D6:3E,15,15,-4387.258449693879,18381.53416882079,5059.3069580786905
17066,32765,-18947,21741,-17666,-20481,-23298,14271,-1534,-17942,15,1,424,2020-11-02 15:14:15,2020-11-02 15:14:45,3,DF:DC:EF:28:D6:3E,15,15,-34114.216838531574,7141.571995370639,-26275.906719437615
17067,-13571,-9731,-31508,20989,1279,-31490,-4674,1539,-2838,15,-1,450,2020-11-02 15:14:15,2020-11-02 15:14:45,3,DF:DC:EF:28:D6:3E,15,15,-13571.0,-9731.0,-31508.0
