id,accelerationx,accelerationy,accelerationz,angularvelocityx,angularvelocityy,angularvelocityz,pitch,roll,yaw,mdlcircle_id,hallsensor,timestamp,starttime,endtime,train_mode,blemac,training_id,training_handle_id,accelerationWorldx,accelerationWorldy,accelerationWorldz
17647,-31474,28933,11516,-26368,-31232,5376,31791,3557,15080,16,1,46259,2020-11-02 15:15:15,2020-11-02 15:15:45,3,DF:DC:EF:28:D6:3E,16,16,-4406.324476216646,-36630.12454335594,-24477.90231103407
17648,5646,-31226,6651,-28928,-22272,-28672,29999,-2588,22760,16,1,46261,2020-11-02 15:15:15,2020-11-02 15:15:45,3,DF:DC:EF:28:D6:3E,16,16,-5239.5439988116,3251.7767103155675,31830.00659614708
17649,-19443,2565,-31749,-31744,24320,21760,30511,-9244,28648,16,1,46285,2020-11-02 15:15:15,2020-11-02 15:15:45,3,DF:DC:EF:28:D6:3E,16,16,-28739.76120138282,-7607.776916104818,-22555.627490324303
17650,-31218,3078,-23557,17664,9472,10496,29999,-12572,-32536,16,1,46310,2020-11-02 15:15:15,2020-11-02 15:15:45,3,DF:DC:EF:28:D6:3E,16,16,26994.265634825824,14697.728058984401,-24377.372084386046
17651,8466,7176,26619,15616,29440,32256,31535,-16412,-31256,16,1,46336,2020-11-02 15:15:15,2020-11-02 15:15:45,3,DF:DC:EF:28:D6:3E,16,16,-27601.1428795259,3855.8512574844535,7419.475441306626
17652,8465,13574,-27395,17664,23296,-30464,-30673,-21020,-32536,16,1,46361,2020-11-02 15:15:15,2020-11-02 15:15:45,3,DF:DC:EF:28:D6:3E,16,16,-31470.10394475765,-201.95003726790128,-3998.4371807740517
17653,20746,-6653,28155,9472,-32513,24064,-20433,-23580,24552,16,1,46387,2020-11-02 15:15:15,2020-11-02 15:15:45,3,DF:DC:EF:28:D6:3E,16,16,30179.169792414752,18787.022020023862,1904.852818392912
17654,-21997,24584,-12294,-3841,-8961,-20480,-4561,-27164,8424,16,1,46413,2020-11-02 15:15:15,2020-11-02 15:15:45,3,DF:DC:EF:28:D6:3E,16,16,-17945.19159028493,17552.473600345937,24683.27916418574
17655,-14578,-24317,-31236,-15361,-13057,-11776,11312,-31260,-10777,16,1,46438,2020-11-02 15:15:15,2020-11-02 15:15:45,3,DF:DC:EF:28:D6:3E,16,16,-10518.221331815601,40711.3468391201,3387.5548054319015
17656,8975,30982,19452,-21249,-18689,26880,23088,29924,-25881,16,1,46464,2020-11-02 15:15:15,2020-11-02 15:15:45,3,DF:DC:EF:28:D6:3E,16,16,-20145.182905626087,31784.5819206948,-1651.4269058942464
17657,32274,-2300,23549,-24065,3072,1792,23600,29412,-30489,16,1,46489,2020-11-02 15:15:15,2020-11-02 15:15:45,3,DF:DC:EF:28:D6:3E,16,16,-12221.12767558081,26814.241333224272,27075.763646862473
17658,-11510,7685,-18692,32511,23039,-13057,24880,-32540,29159,16,1,46515,2020-11-02 15:15:15,2020-11-02 15:15:45,3,DF:DC:EF:28:D6:3E,16,16,-17566.7708997153,-8193.550443299877,12853.189498720389
17659,-6382,-2043,-22788,26367,-5121,-26624,31792,-32284,15847,16,1,46541,2020-11-02 15:15:15,2020-11-02 15:15:45,3,DF:DC:EF:28:D6:3E,16,16,22947.998234130864,3760.5295376364293,4841.95328797074
17660,-15607,22020,-22276,20479,-32513,-15616,-22992,29668,-2586,16,1,46566,2020-11-02 15:15:15,2020-11-02 15:15:45,3,DF:DC:EF:28:D6:3E,16,16,-34369.86781689612,2465.2998540626722,-6108.4783603322085
17661,-4590,-15866,-27908,9471,-13825,-1024,-9936,24548,-24858,16,1,46592,2020-11-02 15:15:15,2020-11-02 15:15:45,3,DF:DC:EF:28:D6:3E,16,16,21444.34656289655,24213.612945481527,-2344.2415866962347
17662,-3064,2820,-19718,-20994,24830,29441,21809,22244,-4891,16,1,46618,2020-11-02 15:15:15,2020-11-02 15:15:45,3,DF:DC:EF:28:D6:3E,16,16,5844.254302149959,-9.174521488794653,-19286.90300385101
17663,14870,32006,-15111,18174,30463,30722,5170,12516,-7708,16,1,46643,2020-11-02 15:15:15,2020-11-02 15:15:45,3,DF:DC:EF:28:D6:3E,16,16,16164.707525054453,34062.16749378867,-7232.857889834017
17664,1036,5635,763,29182,-12289,-3583,-27086,-2589,5604,16,1,46669,2020-11-02 15:15:15,2020-11-02 15:15:45,3,DF:DC:EF:28:D6:3E,16,16,1036.0,-4260.722107486403,3765.85197834124
17665,-20462,13574,-24581,-25090,27391,-10752,-8398,-11293,-28957,16,-1,46694,2020-11-02 15:15:15,2020-11-02 15:15:45,3,DF:DC:EF:28:D6:3E,16,16,15562.21064679051,5544.788341637055,-30565.42823242243
17666,13584,-12029,6140,-29442,-32002,-4353,7475,-5405,4835,16,-1,46720,2020-11-02 15:15:15,2020-11-02 15:15:45,3,DF:DC:EF:28:D6:3E,16,16,13584.0,-11665.928284008338,-6804.598318223809
17667,27152,2822,12028,26110,-13058,2048,22579,4836,-27166,16,-1,46745,2020-11-02 15:15:15,2020-11-02 15:15:45,3,DF:DC:EF:28:D6:3E,16,16,-14348.817853202996,23484.313084999107,-11509.389086365212
17668,-9712,-16379,30460,27646,22015,24576,-29389,10468,6882,16,-1,46771,2020-11-02 15:15:15,2020-11-02 15:15:45,3,DF:DC:EF:28:D6:3E,16,16,22440.266718975752,-27710.603571303138,4354.660066562173
17669,-32241,22533,-16901,10238,-20737,22272,-26573,12004,-14111,16,-1,46797,2020-11-02 15:15:15,2020-11-02 15:15:45,3,DF:DC:EF:28:D6:3E,16,16,-17978.678327075155,-34627.52071931993,17622.823424316168
17670,-17393,26373,12028,-29187,21503,-28672,-30413,12260,31969,16,-1,46822,2020-11-02 15:15:15,2020-11-02 15:15:45,3,DF:DC:EF:28:D6:3E,16,16,5569.814918893593,-33116.677410469834,3871.3306575578854
17671,-2289,-6139,-2309,26621,16895,1281,-26829,11492,737,16,-1,46848,2020-11-02 15:15:15,2020-11-02 15:15:45,3,DF:DC:EF:28:D6:3E,16,16,-1899.676228857434,5760.17515014772,3386.7293167796406
17672,-2544,26886,-14342,10237,11008,-31999,-21453,4580,31712,16,-1,46874,2020-11-02 15:15:15,2020-11-02 15:15:45,3,DF:DC:EF:28:D6:3E,16,16,-28186.0730404322,-5684.831662218709,10404.319849545998
17673,25362,5,-23558,-11780,769,-7935,-30925,-12573,9440,16,-1,46899,2020-11-02 15:15:15,2020-11-02 15:15:45,3,DF:DC:EF:28:D6:3E,16,16,-21432.095450992078,8434.666775067562,25840.513036182852
17674,-21741,3075,27899,-24580,26625,28673,7475,31715,3552,16,-1,46927,2020-11-02 15:15:15,2020-11-02 15:15:45,3,DF:DC:EF:28:D6:3E,16,16,-23103.061357382605,-21814.769414610975,-15838.096423003875
17675,23316,5890,766,765,-256,6912,25650,18403,19424,16,-1,46950,2020-11-02 15:15:15,2020-11-02 15:15:45,3,DF:DC:EF:28:D6:3E,16,16,24005.869962787612,-118.6456943413749,1618.2838221232073
17676,-11756,-4863,24319,-7939,-3328,-23810,25393,17635,-3616,16,-1,46976,2020-11-02 15:15:15,2020-11-02 15:15:45,3,DF:DC:EF:28:D6:3E,16,16,9914.4821721017,21583.34881165325,13752.38755029772
17677,11540,5634,26112,-17154,-22015,-28163,-2513,25059,11490,16,-1,47002,2020-11-02 15:15:15,2020-11-02 15:15:45,3,DF:DC:EF:28:D6:3E,16,16,6239.772064510635,-27172.641214965257,-8334.441432137144
17678,-31725,30210,-11264,-32513,30722,24317,12846,-30749,-7197,16,-1,47027,2020-11-02 15:15:15,2020-11-02 15:15:45,3,DF:DC:EF:28:D6:3E,16,16,9838.553608581024,-19634.05855427092,39543.6977099833
17679,32531,6915,-9216,4352,11779,13565,16940,-21021,-6939,16,-1,47053,2020-11-02 15:15:15,2020-11-02 15:15:45,3,DF:DC:EF:28:D6:3E,16,16,-13542.394905819394,31275.01383102224,-5430.920003480496
17680,-27886,-20733,-4096,20736,-12541,-23812,9258,-5405,9960,16,-1,47078,2020-11-02 15:15:15,2020-11-02 15:15:45,3,DF:DC:EF:28:D6:3E,16,16,-8540.907047499062,-27655.53257114806,-19659.29617285802
17681,-30191,2308,23553,-30720,19716,-20484,-2265,15844,-32022,16,-1,47104,2020-11-02 15:15:15,2020-11-02 15:15:45,3,DF:DC:EF:28:D6:3E,16,16,7425.805930964939,33239.4871411654,17651.092172099314
17682,24849,9219,2818,-16640,11013,22269,-17115,-29724,-1812,16,-1,47130,2020-11-02 15:15:15,2020-11-02 15:15:45,3,DF:DC:EF:28:D6:3E,16,16,-2114.2934168506335,-1274.0575373333345,-26538.84750208694
17683,28177,770,-18686,-25599,10758,-26115,27171,-10524,-23569,16,-1,47155,2020-11-02 15:15:15,2020-11-02 15:15:45,3,DF:DC:EF:28:D6:3E,16,16,7529.618411945499,13687.096036662479,29994.51739324488
17684,6672,-4608,-26878,-11774,31238,-5892,14369,17637,23794,16,-1,47181,2020-11-02 15:15:15,2020-11-02 15:15:45,3,DF:DC:EF:28:D6:3E,16,16,23619.792021930356,-12976.77059705994,-7866.700814956397
17685,-29427,-3839,20993,-8701,-23035,-2053,-18401,-5659,-28684,16,-1,47206,2020-11-02 15:15:15,2020-11-02 15:15:45,3,DF:DC:EF:28:D6:3E,16,16,-14832.640861756801,-26299.825067857742,-20241.15277019132
17686,-16374,6402,21761,-22524,-13820,1788,-10722,-24090,15350,16,-1,47232,2020-11-02 15:15:15,2020-11-02 15:15:45,3,DF:DC:EF:28:D6:3E,16,16,-26255.872958708445,5056.22552679133,8227.898856839842
17687,8712,1027,-3584,-18683,-32252,2301,28446,18663,-27913,16,-1,47258,2020-11-02 15:15:15,2020-11-02 15:15:45,3,DF:DC:EF:28:D6:3E,16,16,8053.928573194421,-4148.37843262698,-2779.1941129755182
17688,-13562,6403,10496,1031,-14332,3071,11550,-19481,-776,16,-1,47283,2020-11-02 15:15:15,2020-11-02 15:15:45,3,DF:DC:EF:28:D6:3E,16,16,13221.03975857922,-12208.573986373709,-3353.6693219974286
17689,-18426,-27645,-11777,-17657,29955,28672,10782,-10265,19194,16,-1,47309,2020-11-02 15:15:15,2020-11-02 15:15:45,3,DF:DC:EF:28:D6:3E,16,16,-14114.268757089258,7089.406437425052,-31511.72740136044
17690,-30457,21506,-29441,21255,23041,-21760,-19170,-12313,-6,16,1,47334,2020-11-02 15:15:15,2020-11-02 15:15:45,3,DF:DC:EF:28:D6:3E,16,16,-11068.483001613018,-25445.492789179727,-38560.66579765974
17691,-3578,4351,-25087,2823,28671,3584,-20193,-16153,6907,16,1,47360,2020-11-02 15:15:15,2020-11-02 15:15:45,3,DF:DC:EF:28:D6:3E,16,16,-4491.98739373888,-21520.567142828826,-13333.345158117201
17692,21765,-14596,7427,-11256,25341,23552,23585,-20505,-28678,16,1,47386,2020-11-02 15:15:15,2020-11-02 15:15:45,3,DF:DC:EF:28:D6:3E,16,16,-20898.568269696578,-17199.296369984753,-3058.237834809541
17693,23301,763,16641,21261,31227,3843,14372,23271,19705,16,1,47411,2020-11-02 15:15:15,2020-11-02 15:15:45,3,DF:DC:EF:28:D6:3E,16,16,12589.639237098492,13810.699144116448,21707.30807885702
17694,3591,-7684,-20228,32017,9467,-17660,19752,-16410,30199,16,1,47437,2020-11-02 15:15:15,2020-11-02 15:15:45,3,DF:DC:EF:28:D6:3E,16,16,4722.490160500537,20916.314261141448,-4617.034265970572
17695,24838,-24577,3574,10003,20730,-9469,24621,25830,3829,16,1,47463,2020-11-02 15:15:15,2020-11-02 15:15:45,3,DF:DC:EF:28:D6:3E,16,16,-28543.694233751554,18769.411388195527,8166.7230044109
17696,-25084,5888,1525,-20464,-31240,-17917,-14030,-32538,8946,16,1,47488,2020-11-02 15:15:15,2020-11-02 15:15:45,3,DF:DC:EF:28:D6:3E,16,16,-6052.204484603227,-11394.266503650097,22354.926453029228
17697,-27902,-22017,11766,16912,7670,8708,15160,8167,-10258,16,1,47514,2020-11-02 15:15:15,2020-11-02 15:15:45,3,DF:DC:EF:28:D6:3E,16,16,-20766.448518809633,29498.07004192633,10016.343081046993
17698,18173,-11775,8941,8210,-30220,-18684,-25027,20968,-13589,16,1,47539,2020-11-02 15:15:15,2020-11-02 15:15:45,3,DF:DC:EF:28:D6:3E,16,16,9199.22052827968,17865.677153125802,12043.336602966654
17699,19192,-4093,-27939,-5106,28403,26380,7235,-1303,24808,16,1,47565,2020-11-02 15:15:15,2020-11-02 15:15:45,3,DF:DC:EF:28:D6:3E,16,16,3573.9542778704235,-28446.117115706467,-18539.646864468676
17700,-7941,31744,12505,-5624,13044,2583,10428,1260,27875,16,1,47591,2020-11-02 15:15:15,2020-11-02 15:15:45,3,DF:DC:EF:28:D6:3E,16,16,10207.247413201956,1676.9207945959051,33468.135276622954
17701,19449,28668,-2345,25860,-5135,7450,-15680,-3090,31966,16,-1,47616,2020-11-02 15:15:15,2020-11-02 15:15:45,3,DF:DC:EF:28:D6:3E,16,16,-7967.830851972519,-22639.089327984824,-25091.874300535597
17702,11752,-23824,13772,-24066,15331,1564,-10558,-13581,15835,16,-1,47642,2020-11-02 15:15:15,2020-11-02 15:15:45,3,DF:DC:EF:28:D6:3E,16,16,13603.79135733383,-26640.76179469643,-753.0841283497712
17703,-31019,-2861,-11597,15357,31962,10534,25283,12027,-27432,16,-1,47667,2020-11-02 15:15:15,2020-11-02 15:15:45,3,DF:DC:EF:28:D6:3E,16,16,-9002.937740686006,20990.046331242527,24149.930808381705
17704,-17977,31895,3224,15363,-21538,-2253,-23613,-30461,-29228,16,-1,47693,2020-11-02 15:15:15,2020-11-02 15:15:45,3,DF:DC:EF:28:D6:3E,16,16,26877.45060428998,8762.342746307546,23487.906007351594
17705,-16902,10664,-29003,11272,23274,-7608,27074,22027,-7732,16,-1,47719,2020-11-02 15:15:15,2020-11-02 15:15:45,3,DF:DC:EF:28:D6:3E,16,16,-14464.42775774022,-30998.575968329373,-8392.921218314097
17706,-14547,-6702,11752,-1276,-15105,2633,11964,23567,8640,16,-1,47744,2020-11-02 15:15:15,2020-11-02 15:15:45,3,DF:DC:EF:28:D6:3E,16,16,16274.284232868138,10729.716782614536,-3829.147094680428
17707,-12484,-4126,-5900,28932,1293,-20942,-25790,28429,17217,16,-1,47770,2020-11-02 15:15:15,2020-11-02 15:15:45,3,DF:DC:EF:28:D6:3E,16,16,-8539.254313819694,-6017.226074808077,-9927.651188904729
17708,-12760,5105,29668,-6911,14873,30998,-3520,521,28476,16,-1,47795,2020-11-02 15:15:15,2020-11-02 15:15:45,3,DF:DC:EF:28:D6:3E,16,16,12203.969340766662,6319.949155620425,29668.0
17709,22552,20719,-10020,14327,-12512,4355,11584,-6653,1596,16,-1,47821,2020-11-02 15:15:15,2020-11-02 15:15:45,3,DF:DC:EF:28:D6:3E,16,16,-7176.949797742647,489.0139103730871,31408.95289557013
17710,-24313,-4889,13014,12020,-4569,9201,-16578,-18178,-6594,16,-1,47847,2020-11-02 15:15:15,2020-11-02 15:15:45,3,DF:DC:EF:28:D6:3E,16,16,24748.517689762273,-12876.163734250957,-2470.5800226432975
17711,5881,-22561,24789,4339,27431,24803,13884,24058,-24508,16,-1,47872,2020-11-02 15:15:15,2020-11-02 15:15:45,3,DF:DC:EF:28:D6:3E,16,16,-2785.1795386424565,23345.6205673749,24602.93027795042
17712,13043,-31010,3551,18416,13343,23008,9272,30200,4287,16,-1,47898,2020-11-02 15:15:15,2020-11-02 15:15:45,3,DF:DC:EF:28:D6:3E,16,16,26882.18547352967,-19742.837972023855,5649.602019360616
17713,-11274,24546,18926,28400,20253,4586,-15309,-11017,21189,16,-1,47923,2020-11-02 15:15:15,2020-11-02 15:15:45,3,DF:DC:EF:28:D6:3E,16,16,-20111.123882351912,-4198.557968994139,-25801.5014130901
17714,-4613,10982,11506,-26117,1570,-6669,24880,-14346,971,16,-1,47951,2020-11-02 15:15:15,2020-11-02 15:15:45,3,DF:DC:EF:28:D6:3E,16,16,16315.708138136055,1529.4552666888367,2393.8595485864926
17715,-4348,-15895,-12561,-253,297,30199,1838,4853,9169,16,-1,47975,2020-11-02 15:15:15,2020-11-02 15:15:45,3,DF:DC:EF:28:D6:3E,16,16,11025.946877606842,-12246.820993718815,-12561.0
17716,-8443,2279,29168,-6904,12591,25076,14635,30451,9433,16,-1,48000,2020-11-02 15:15:15,2020-11-02 15:15:45,3,DF:DC:EF:28:D6:3E,16,16,27037.091090059672,-8735.587964344144,-10951.507764003178
17717,-6149,-21780,5623,15371,-17119,4332,-7640,-1037,-8992,16,-1,48026,2020-11-02 15:15:15,2020-11-02 15:15:45,3,DF:DC:EF:28:D6:3E,16,16,-9243.071025962576,1372.5338511025393,21365.357915012537
17718,-4110,30457,-18433,-18421,-18917,-22802,-7641,-10763,-31002,16,-1,48051,2020-11-02 15:15:15,2020-11-02 15:15:45,3,DF:DC:EF:28:D6:3E,16,16,6958.39980112882,26854.940627830405,-22686.764292938613
17719,20205,29183,-23546,18,30488,15095,16424,-4874,18411,16,-1,48077,2020-11-02 15:15:15,2020-11-02 15:15:45,3,DF:DC:EF:28:D6:3E,16,16,-21310.402852416282,-6321.845751641251,36334.620220392884
17720,8436,-27647,-32513,3612,-26866,-19968,-24534,-16394,26350,16,-1,48103,2020-11-02 15:15:15,2020-11-02 15:15:45,3,DF:DC:EF:28:D6:3E,16,16,34788.2093623342,-25012.71417848846,7534.0887164703545
17721,-28418,25602,-4121,-32220,-15350,-32250,8751,25333,-7697,16,1,48128,2020-11-02 15:15:15,2020-11-02 15:15:45,3,DF:DC:EF:28:D6:3E,16,16,16695.47224603831,6018.419790561269,-34133.08656869966
17722,30979,8457,-50,-26075,30212,7175,6965,-2317,1264,16,1,48154,2020-11-02 15:15:15,2020-11-02 15:15:45,3,DF:DC:EF:28:D6:3E,16,16,30979.0,4611.410149967252,7089.305003226974
17723,19201,-32758,-15152,-1769,11262,5128,18490,24051,495,16,1,48180,2020-11-02 15:15:15,2020-11-02 15:15:45,3,DF:DC:EF:28:D6:3E,16,16,-20404.37226092566,34568.4245657605,7748.140723999119
17724,-30713,27649,24284,-28652,-11785,2571,-20418,-24589,-13332,16,1,48205,2020-11-02 15:15:15,2020-11-02 15:15:45,3,DF:DC:EF:28:D6:3E,16,16,-21327.40211634173,10939.389652186044,41508.31120396862
17725,21246,13306,-9255,-20969,7413,-6653,3139,-7948,9195,16,1,48231,2020-11-02 15:15:15,2020-11-02 15:15:45,3,DF:DC:EF:28:D6:3E,16,16,-786.5669258583202,23401.94853317259,12877.394702418937
17726,15593,4080,26836,2578,-5399,26631,4538,-30729,13034,16,1,48256,2020-11-02 15:15:15,2020-11-02 15:15:45,3,DF:DC:EF:28:D6:3E,16,16,-16259.60552496259,25723.65454912318,-7340.147805731179
17727,-12824,10718,-12087,-30961,8672,7443,8381,-30980,20456,16,1,48282,2020-11-02 15:15:15,2020-11-02 15:15:45,3,DF:DC:EF:28:D6:3E,16,16,-1013.4193515906236,-15978.713187144123,13003.067911104981
17728,-12566,-29988,6854,-30188,-27672,-29159,9408,31745,-21787,16,1,48307,2020-11-02 15:15:15,2020-11-02 15:15:45,3,DF:DC:EF:28:D6:3E,16,16,-20011.370877207373,19339.563607312684,-18157.316186418175
17729,-28704,-6166,-20037,-31984,32495,-19682,-21054,-10235,-25118,16,1,48333,2020-11-02 15:15:15,2020-11-02 15:15:45,3,DF:DC:EF:28:D6:3E,16,16,19046.561545354634,-27065.448009313022,-12965.745576486983
17730,-14622,23280,28111,23039,1274,-2510,-26175,-5623,5597,16,1,48359,2020-11-02 15:15:15,2020-11-02 15:15:45,3,DF:DC:EF:28:D6:3E,16,16,-14622.0,-36491.298439306054,-756.213735328427
17731,11499,-11814,-30499,8440,-4855,-28849,13243,-26613,25809,16,1,48384,2020-11-02 15:15:15,2020-11-02 15:15:45,3,DF:DC:EF:28:D6:3E,16,16,28657.370495819203,-16769.15538935818,-9976.830247774618
17732,-12030,26846,-22047,-15373,-28919,24917,12352,26632,21187,16,-1,48410,2020-11-02 15:15:15,2020-11-02 15:15:45,3,DF:DC:EF:28:D6:3E,16,16,16126.302095849125,-11263.869489228897,-31057.470113372572
17733,23580,12503,29145,5864,-26876,17220,-10438,-5118,17733,16,-1,48436,2020-11-02 15:15:15,2020-11-02 15:15:45,3,DF:DC:EF:28:D6:3E,16,16,-27758.26702367349,-27639.426369743695,5226.198981473803
17734,-19416,-7977,-5416,-4900,-20211,-21726,18230,28413,-8385,16,-1,48461,2020-11-02 15:15:15,2020-11-02 15:15:45,3,DF:DC:EF:28:D6:3E,16,16,12413.291275104146,-3301.759599320551,-17462.967224034917
17735,-22242,18395,-1818,21219,-17631,22015,7729,13305,29505,16,-1,48487,2020-11-02 15:15:15,2020-11-02 15:15:45,3,DF:DC:EF:28:D6:3E,16,16,17362.284437902435,-18262.782668143445,14191.883642192477
17736,-8189,18919,3296,760,28975,2287,31276,-28937,-17477,16,-1,48512,2020-11-02 15:15:15,2020-11-02 15:15:45,3,DF:DC:EF:28:D6:3E,16,16,19838.049394407866,-5785.572744547024,2971.6733068404537
17737,15349,2017,13532,-28415,6188,30193,-23255,29687,-20029,16,-1,48538,2020-11-02 15:15:15,2020-11-02 15:15:45,3,DF:DC:EF:28:D6:3E,16,16,-12889.41244599584,9838.9599870413,12642.508737209071
17738,16625,-19994,-27664,19713,-18917,-5638,-8409,30711,-31799,16,-1,48564,2020-11-02 15:15:15,2020-11-02 15:15:45,3,DF:DC:EF:28:D6:3E,16,16,33508.377523522206,-6871.769009985992,16474.67703521099
17739,23034,9208,20468,-18169,-13792,18437,-9690,-29194,12750,16,-1,48589,2020-11-02 15:15:15,2020-11-02 15:15:45,3,DF:DC:EF:28:D6:3E,16,16,-24225.06019277338,-409.8237365225091,-21148.757579618938
17740,1790,12527,-26374,26129,-16344,-22775,806,23028,-24620,16,-1,48615,2020-11-02 15:15:15,2020-11-02 15:15:45,3,DF:DC:EF:28:D6:3E,16,16,-21762.354587203663,6032.039676547791,18593.873323258093
17741,1791,-15881,-5384,19998,-21724,10500,27174,32498,9435,16,-1,48640,2020-11-02 15:15:15,2020-11-02 15:15:45,3,DF:DC:EF:28:D6:3E,16,16,-13082.104984583073,-8703.131571842432,6124.975756323133
17742,19710,20737,21748,31265,14626,-17668,-19929,-24335,-17439,16,-1,48666,2020-11-02 15:15:15,2020-11-02 15:15:45,3,DF:DC:EF:28:D6:3E,16,16,28614.08521155236,21715.736711360205,1069.4295623848902
17743,2297,-21239,9465,26902,-20716,248,-16856,-20239,4839,16,-1,48692,2020-11-02 15:15:15,2020-11-02 15:15:45,3,DF:DC:EF:28:D6:3E,16,16,-4443.554829091269,17445.042806329835,-14895.732844213453
17744,-15366,30732,19453,-32752,16131,29688,14122,-26126,7913,16,-1,48717,2020-11-02 15:15:15,2020-11-02 15:15:45,3,DF:DC:EF:28:D6:3E,16,16,39189.131368290255,4625.058072664091,-1345.291575597489
17745,-9224,-3826,3311,-13285,20741,26109,8749,13811,-23,16,-1,48768,2020-11-02 15:15:15,2020-11-02 15:15:45,3,DF:DC:EF:28:D6:3E,16,16,2537.763851881021,-4853.307052950448,8982.668772801735
17746,2554,-28658,11478,10271,-7678,-23794,3122,6386,5610,16,-1,48771,2020-11-02 15:15:15,2020-11-02 15:15:45,3,DF:DC:EF:28:D6:3E,16,16,11038.336052812265,-28658.0,4052.4729715551402
17747,31498,-30961,30941,1302,-8703,2074,-201,-22289,-4378,16,-1,48794,2020-11-02 15:15:15,2020-11-02 15:15:45,3,DF:DC:EF:28:D6:3E,16,16,-35549.17782730118,-30961.0,-26186.359823444684
17748,-15865,-29436,20712,26130,3580,12564,2110,1006,-25886,16,-1,48820,2020-11-02 15:15:15,2020-11-02 15:15:45,3,DF:DC:EF:28:D6:3E,16,16,32647.294296885375,7233.982035681,20712.0
17749,-7947,-20230,28886,-15604,-29204,21009,32579,31471,24286,16,-1,48845,2020-11-02 15:15:15,2020-11-02 15:15:45,3,DF:DC:EF:28:D6:3E,16,16,35388.711855936876,7375.983943571506,206.49223144681127
17750,-30478,746,-21812,32516,8154,6428,-15942,26868,-23335,16,-1,48871,2020-11-02 15:15:15,2020-11-02 15:15:45,3,DF:DC:EF:28:D6:3E,16,16,6377.976750904691,23433.52219003965,-28555.556277786614
17751,14322,26582,15542,22792,-1318,-10459,-24899,9211,-7468,16,-1,48896,2020-11-02 15:15:15,2020-11-02 15:15:45,3,DF:DC:EF:28:D6:3E,16,16,-15809.715220476417,-29305.74662331709,-6671.003784841947
17752,15868,12255,23464,-31223,1501,28972,-27201,-1791,-28721,16,-1,48922,2020-11-02 15:15:15,2020-11-02 15:15:45,3,DF:DC:EF:28:D6:3E,16,16,29210.727921535767,7906.798564953397,-6062.47933994513
17753,30732,-32013,-11333,16121,17639,-24542,-15426,-19449,-7990,16,-1,48948,2020-11-02 15:15:15,2020-11-02 15:15:45,3,DF:DC:EF:28:D6:3E,16,16,-16478.758745440235,31248.132955823323,-29150.121423156466
17754,-26597,7680,22248,13037,12523,8982,-17478,28683,-11322,16,-1,48975,2020-11-02 15:15:15,2020-11-02 15:15:45,3,DF:DC:EF:28:D6:3E,16,16,4140.806633823846,-14710.048401270356,-32059.70226707609
17755,29967,-15870,9199,-22546,-6158,-25593,13379,-26867,25284,16,-1,48999,2020-11-02 15:15:15,2020-11-02 15:15:45,3,DF:DC:EF:28:D6:3E,16,16,20503.332984581968,26432.370403003355,-10744.427458072649
17756,19205,-12287,18402,-27659,10234,-11254,13376,-28402,-23614,16,-1,49024,2020-11-02 15:15:15,2020-11-02 15:15:45,3,DF:DC:EF:28:D6:3E,16,16,26314.19131494415,-12690.325915533258,-2225.9743031003227
17757,-15346,-27911,-14879,30707,-11258,20757,-11972,8973,-23105,16,-1,49050,2020-11-02 15:15:15,2020-11-02 15:15:45,3,DF:DC:EF:28:D6:3E,16,16,-10496.419663624021,15081.733130168283,29971.232507781046
17758,-24041,-24073,22248,19442,11275,15116,-4039,27658,-7747,16,1,49076,2020-11-02 15:15:15,2020-11-02 15:15:45,3,DF:DC:EF:28:D6:3E,16,16,-20863.542173950336,-12061.645026359336,-32736.55206667154
17759,26133,9972,-8729,-18703,-24049,-23550,10808,3592,28350,16,1,49101,2020-11-02 15:15:15,2020-11-02 15:15:45,3,DF:DC:EF:28:D6:3E,16,16,-7445.230810877966,-28100.425813156824,3674.8498325813525
17760,19472,17645,742,26096,-22250,5120,-29130,29701,20672,16,1,49127,2020-11-02 15:15:15,2020-11-02 15:15:45,3,DF:DC:EF:28:D6:3E,16,16,10188.526186162333,-5789.440190596891,23531.504189774732
17761,25097,-18466,1778,30705,-17383,-18950,-1996,-14334,20675,16,1,49153,2020-11-02 15:15:15,2020-11-02 15:15:45,3,DF:DC:EF:28:D6:3E,16,16,14545.991873974905,16579.185767435352,22080.728445663313
17762,27136,10220,6646,17148,7717,24316,4660,12032,-32569,16,1,49178,2020-11-02 15:15:15,2020-11-02 15:15:45,3,DF:DC:EF:28:D6:3E,16,16,-11289.253813242565,-2134.7206479525557,-27440.406850034007
17763,10753,-22805,-5383,9996,-16851,-1535,-22988,32763,15308,16,1,49204,2020-11-02 15:15:15,2020-11-02 15:15:45,3,DF:DC:EF:28:D6:3E,16,16,-24011.114858117937,6855.835726969623,6413.704292768329
17764,-17669,6384,-3590,-7405,-9175,31228,-6859,-26122,20433,16,1,49229,2020-11-02 15:15:15,2020-11-02 15:15:45,3,DF:DC:EF:28:D6:3E,16,16,-6016.019040875842,424.82298782977296,18151.147548538927
17765,-20492,-20747,-13579,5907,-12257,2296,-19914,19443,11990,16,1,49255,2020-11-02 15:15:15,2020-11-02 15:15:45,3,DF:DC:EF:28:D6:3E,16,16,-26337.691799643544,12797.621360305406,-13315.261626616417
17766,27123,15863,-28166,-22768,-16364,-16135,4407,2033,11482,16,1,49281,2020-11-02 15:15:15,2020-11-02 15:15:45,3,DF:DC:EF:28:D6:3E,16,16,-25711.33572940393,18061.536839645647,-28166.0
17767,-21515,-11272,-14856,30996,-19705,28155,30776,5872,-28964,16,1,49306,2020-11-02 15:15:15,2020-11-02 15:15:45,3,DF:DC:EF:28:D6:3E,16,16,15003.427592836857,-10773.618810080192,21667.492776082512
17768,-12551,7161,15860,7958,-31232,18945,32571,-11281,-4388,16,1,49332,2020-11-02 15:15:15,2020-11-02 15:15:45,3,DF:DC:EF:28:D6:3E,16,16,-4788.752432171613,17239.84390625954,-11840.72439638624
17769,-22028,-2822,-32034,-23265,-15107,-6395,16960,3312,8924,16,1,49357,2020-11-02 15:15:15,2020-11-02 15:15:45,3,DF:DC:EF:28:D6:3E,16,16,-37400.70627299418,-2163.2500614620876,10764.810423449086
17770,13571,24578,25284,-23008,24573,2584,699,-30224,-17192,16,1,49383,2020-11-02 15:15:15,2020-11-02 15:15:45,3,DF:DC:EF:28:D6:3E,16,16,-24345.412304446625,-28296.805154403522,-5841.446634201238
17771,32540,32007,3265,-2796,22016,-12775,8130,-23311,-24109,16,-1,49409,2020-11-02 15:15:15,2020-11-02 15:15:45,3,DF:DC:EF:28:D6:3E,16,16,-11301.605823692695,-9168.558307428206,-43383.996108809115
17772,5396,-29945,-7740,8449,4858,7432,-24124,5619,28881,16,-1,49434,2020-11-02 15:15:15,2020-11-02 15:15:45,3,DF:DC:EF:28:D6:3E,16,16,25917.0535302814,2039.4603586962705,-17603.24909651155
17773,12286,4612,-16689,-26895,-2836,20738,-20542,19189,8402,16,-1,49460,2020-11-02 15:15:15,2020-11-02 15:15:45,3,DF:DC:EF:28:D6:3E,16,16,462.22970751843195,-12089.610299078598,-17446.109237130782
17774,5872,30979,-22057,-11275,19437,-8181,-31552,-19720,10194,16,-1,49485,2020-11-02 15:15:15,2020-11-02 15:15:45,3,DF:DC:EF:28:D6:3E,16,16,-30121.32352015538,8499.58209248969,-22386.44785684327
17775,-5666,-17935,-63,7670,-7962,6937,-22593,-11012,9936,16,-1,49511,2020-11-02 15:15:15,2020-11-02 15:15:45,3,DF:DC:EF:28:D6:3E,16,16,-17766.392280291322,5176.215661244291,-3366.577902127648
17776,-20242,10961,-29507,26857,-18728,17697,-580,11011,-26932,16,-1,49537,2020-11-02 15:15:15,2020-11-02 15:15:45,3,DF:DC:EF:28:D6:3E,16,16,15082.960253103462,-34232.449062404135,1090.3555352302428
17777,2042,3288,5573,-30991,-20517,-486,-24763,22537,16584,16,-1,49562,2020-11-02 15:15:15,2020-11-02 15:15:45,3,DF:DC:EF:28:D6:3E,16,16,6698.412868386011,663.20568240086,854.6696832530702
17778,-513,-20502,23241,-15620,-12307,-7400,-18110,-17140,-20285,16,-1,49588,2020-11-02 15:15:15,2020-11-02 15:15:45,3,DF:DC:EF:28:D6:3E,16,16,-14991.848679793718,-25951.960411186556,7904.396117248478
17779,5387,28407,13022,-30473,-9478,-32738,-3266,269,22974,16,-1,49613,2020-11-02 15:15:15,2020-11-02 15:15:45,3,DF:DC:EF:28:D6:3E,16,16,17977.31029862004,-22644.949380096434,13022.0
17780,6158,19197,18157,251,-6395,-24287,25915,-24822,-1211,16,-1,49639,2020-11-02 15:15:15,2020-11-02 15:15:45,3,DF:DC:EF:28:D6:3E,16,16,-24002.108333760472,1193.266317587295,12593.543307176811
17781,-22762,-15623,-13076,28673,-4854,-7129,-27335,28934,25665,16,-1,49665,2020-11-02 15:15:15,2020-11-02 15:15:45,3,DF:DC:EF:28:D6:3E,16,16,17384.362842426195,-10634.685808954831,-22756.44821380714
17782,30242,-26373,-23,-25086,14357,14878,31289,-768,12350,16,-1,49690,2020-11-02 15:15:15,2020-11-02 15:15:45,3,DF:DC:EF:28:D6:3E,16,16,-5762.583043498956,30621.354987564006,25283.185665425295
17783,794,-24839,-22566,-29444,7450,29186,-28103,-32516,26430,16,-1,49716,2020-11-02 15:15:15,2020-11-02 15:15:45,3,DF:DC:EF:28:D6:3E,16,16,27602.11770550164,-19008.075740152675,-1909.6774147096157
17784,9731,-2072,28633,31214,9243,-23571,1847,5370,12866,16,-1,49742,2020-11-02 15:15:15,2020-11-02 15:15:45,3,DF:DC:EF:28:D6:3E,16,16,-2165.4605980574306,9710.629505766388,28633.0
17785,31229,-3118,7653,-32530,19486,32740,-14030,-32519,32699,16,1,49767,2020-11-02 15:15:15,2020-11-02 15:15:45,3,DF:DC:EF:28:D6:3E,16,16,10334.988980887858,-5831.135953484069,-30045.409470614843
17786,6392,5072,-32520,11519,30241,4833,-8913,31994,14530,16,1,49793,2020-11-02 15:15:15,2020-11-02 15:15:45,3,DF:DC:EF:28:D6:3E,16,16,12921.444089187293,30938.08756602473,-65.3330467142705
17787,-6662,-5424,28149,-5096,2094,-11794,-18384,12538,-32567,16,1,49818,2020-11-02 15:15:15,2020-11-02 15:15:45,3,DF:DC:EF:28:D6:3E,16,16,-15162.429070355784,-18322.90363798945,17336.094368668586
17788,17672,16602,-26126,7968,-7627,7414,8243,-31498,13009,16,1,49844,2020-11-02 15:15:15,2020-11-02 15:15:45,3,DF:DC:EF:28:D6:3E,16,16,-30174.62557885449,-8450.527861779858,-16987.478154017525
17789,-7166,19424,-7691,-12521,24357,5350,-10701,-11277,3033,16,1,49869,2020-11-02 15:15:15,2020-11-02 15:15:45,3,DF:DC:EF:28:D6:3E,16,16,13378.515007552916,4023.0786450252144,-17106.28502652237
17790,-28181,-6938,-9220,23822,-12523,-2340,-5582,-5388,28384,16,1,49895,2020-11-02 15:15:15,2020-11-02 15:15:45,3,DF:DC:EF:28:D6:3E,16,16,13169.635167111042,25862.430561824465,-9220.0
17791,-31264,20980,6915,11026,-11500,25065,-14542,23286,13030,16,1,49921,2020-11-02 15:15:15,2020-11-02 15:15:45,3,DF:DC:EF:28:D6:3E,16,16,-13197.228451372534,34706.91959636466,-9310.11355106704
17792,15074,-1,24821,31513,-12265,24314,-26060,-26379,26858,16,1,49946,2020-11-02 15:15:15,2020-11-02 15:15:45,3,DF:DC:EF:28:D6:3E,16,16,250.72491255261502,29027.576688967514,-802.7743047301938
17793,12264,-3582,30444,28696,-22517,10759,-21705,-28941,10476,16,1,49972,2020-11-02 15:15:15,2020-11-02 15:15:45,3,DF:DC:EF:28:D6:3E,16,16,-20073.098452495004,-16747.14169548208,-20166.247036766366
17794,-2565,27128,6884,-3565,-773,13840,8508,29938,13290,16,1,49999,2020-11-02 15:15:15,2020-11-02 15:15:45,3,DF:DC:EF:28:D6:3E,16,16,2835.8107703009423,-27498.058679285947,5070.701247913566
17795,29437,9715,-1571,-23784,10487,-31223,12353,-3598,23271,16,1,50023,2020-11-02 15:15:15,2020-11-02 15:15:45,3,DF:DC:EF:28:D6:3E,16,16,-21219.86163539497,-20569.135148109905,9487.591181827058
17796,-20507,-24328,-4678,9243,-15117,29703,16966,-22796,-795,16,1,50049,2020-11-02 15:15:15,2020-11-02 15:15:45,3,DF:DC:EF:28:D6:3E,16,16,23148.823307419294,14377.71360220942,17078.806985697905
17797,-15638,5373,30638,4618,21233,-15077,32189,-29193,1763,16,1,50074,2020-11-02 15:15:15,2020-11-02 15:15:45,3,DF:DC:EF:28:D6:3E,16,16,-1042.7155214235663,30903.638849623152,15999.40833885569
17798,13558,-10765,23488,-1284,-25354,-19164,10431,-25350,-291,16,1,50100,2020-11-02 15:15:15,2020-11-02 15:15:45,3,DF:DC:EF:28:D6:3E,16,16,-6113.253230887745,-25580.8248138384,-12634.883053623817
17799,-17931,1245,1226,30966,-24088,10017,-7746,27134,20697,16,1,50126,2020-11-02 15:15:15,2020-11-02 15:15:45,3,DF:DC:EF:28:D6:3E,16,16,-12132.323084635489,7.8725175545484944,-13318.428458098506
17800,2555,-6942,-6972,-22279,3550,-18409,-26435,7940,9942,16,1,50151,2020-11-02 15:15:15,2020-11-02 15:15:45,3,DF:DC:EF:28:D6:3E,16,16,-7829.013249685871,5970.978633621016,-2526.289510939783
17801,23788,29162,-12357,1279,-5656,24337,-24132,-26872,-9773,16,-1,50177,2020-11-02 15:15:15,2020-11-02 15:15:45,3,DF:DC:EF:28:D6:3E,16,16,-4244.411362451003,-11360.673018321591,-37708.17839351401
17802,21238,8164,-17984,4603,-794,6935,-2886,26124,-11056,16,-1,50202,2020-11-02 15:15:15,2020-11-02 15:15:45,3,DF:DC:EF:28:D6:3E,16,16,6722.943511302149,4639.695362226554,27828.098272960975
17803,17157,14831,-19238,28410,755,-13290,10052,8207,27340,16,-1,50228,2020-11-02 15:15:15,2020-11-02 15:15:45,3,DF:DC:EF:28:D6:3E,16,16,11109.374946947886,-24162.768699610184,-13310.306196976275
17804,26625,-14090,-16664,-8701,31490,-1775,-9407,-4338,-23608,16,-1,50254,2020-11-02 15:15:15,2020-11-02 15:15:45,3,DF:DC:EF:28:D6:3E,16,16,-1029.73953631911,34291.53244318339,2852.728550956581
17805,-27397,7166,-11792,-10489,-22522,20501,3137,23821,27589,16,-1,50279,2020-11-02 15:15:15,2020-11-02 15:15:45,3,DF:DC:EF:28:D6:3E,16,16,-12115.377327587554,-24990.602327814624,-13026.352386727598
17806,16380,8961,1785,14854,-3837,-24286,-19905,25611,-18240,16,-1,50305,2020-11-02 15:15:15,2020-11-02 15:15:45,3,DF:DC:EF:28:D6:3E,16,16,7111.715560659534,9720.30488911198,14378.084735004824
17807,-13057,-23567,-14359,17154,-15616,20529,21821,-4344,-11847,16,-1,50330,2020-11-02 15:15:15,2020-11-02 15:15:45,3,DF:DC:EF:28:D6:3E,16,16,28491.13452922005,1320.255023944067,10889.527028738905
17808,-25586,-23308,-14608,6912,-18426,32312,15675,-26364,-2498,16,-1,50356,2020-11-02 15:15:15,2020-11-02 15:15:45,3,DF:DC:EF:28:D6:3E,16,16,5285.183536362438,22982.56727731035,29243.261793631485
17809,-14561,-6665,-30740,-15613,10250,9263,6203,28671,-25032,16,-1,50382,2020-11-02 15:15:15,2020-11-02 15:15:45,3,DF:DC:EF:28:D6:3E,16,16,-28076.61159474279,-1556.2815228682384,-20265.10338437812
17810,14895,30449,-23835,-26884,7186,-24043,-18885,-7430,7733,16,-1,50407,2020-11-02 15:15:15,2020-11-02 15:15:45,3,DF:DC:EF:28:D6:3E,16,16,23769.656130609103,-24997.859201477164,22961.279010014245
17811,-30174,19435,11746,-30990,287,20209,-23239,15607,6199,16,-1,50433,2020-11-02 15:15:15,2020-11-02 15:15:45,3,DF:DC:EF:28:D6:3E,16,16,28408.51017286285,4279.032544564156,24511.312638063853
17812,-14594,23523,-554,-24590,16679,-18727,30004,-14603,-8386,16,-1,50458,2020-11-02 15:15:15,2020-11-02 15:15:45,3,DF:DC:EF:28:D6:3E,16,16,19608.398880348803,-19171.78043358761,-3817.9587943616048
17813,18924,5345,-6440,-16911,-24284,23263,-1234,-12554,-582,16,-1,50484,2020-11-02 15:15:15,2020-11-02 15:15:45,3,DF:DC:EF:28:D6:3E,16,16,-2019.2873060607326,5345.0,19887.530132612796
17814,-5140,-18716,-3601,31990,-23526,-27411,-4310,5880,15297,16,-1,50510,2020-11-02 15:15:15,2020-11-02 15:15:45,3,DF:DC:EF:28:D6:3E,16,16,19435.09636428631,2508.0495493014773,2379.5322584814166
17815,27892,-10778,-32524,-28410,23838,2039,-21207,-3592,-18235,16,-1,50535,2020-11-02 15:15:15,2020-11-02 15:15:45,3,DF:DC:EF:28:D6:3E,16,16,-26754.81139387736,-9955.622107853706,33719.50740630214
17816,11775,-4884,22007,28175,-10971,12294,-12247,12791,6091,16,-1,50561,2020-11-02 15:15:15,2020-11-02 15:15:45,3,DF:DC:EF:28:D6:3E,16,16,-23513.91402507422,4177.463627246576,-8743.956476587116
17817,-29432,491,-16654,13079,8227,-18430,-22998,-24332,-25904,16,-1,50587,2020-11-02 15:15:15,2020-11-02 15:15:45,3,DF:DC:EF:28:D6:3E,16,16,-27439.29919565552,12978.448945237742,14915.902373881225
17818,-12024,-1045,-29708,7705,11034,26867,-11221,-17165,-8235,16,-1,50612,2020-11-02 15:15:15,2020-11-02 15:15:45,3,DF:DC:EF:28:D6:3E,16,16,-11353.098139438971,-29631.065942920377,-4619.627552365172
17819,9982,14574,2809,4887,5903,-21276,18989,-26891,-32550,16,-1,50638,2020-11-02 15:15:15,2020-11-02 15:15:45,3,DF:DC:EF:28:D6:3E,16,16,12209.355186237008,-10987.399243711163,-7081.029924778091
17820,3831,-28169,-10250,-32744,5639,6630,-26833,-27400,5086,16,-1,50663,2020-11-02 15:15:15,2020-11-02 15:15:45,3,DF:DC:EF:28:D6:3E,16,16,-13567.442923761082,26169.712733013348,6655.993538311492
17821,-22541,30203,-2577,26393,29188,15599,-13006,-14854,-24096,16,-1,50689,2020-11-02 15:15:15,2020-11-02 15:15:45,3,DF:DC:EF:28:D6:3E,16,16,-10531.590445795773,35007.572279018874,-9513.900609702247
17822,-13325,-13826,-26391,-26085,6664,6648,-28874,28667,30946,16,-1,50740,2020-11-02 15:15:15,2020-11-02 15:15:45,3,DF:DC:EF:28:D6:3E,16,16,25077.11013543424,-9384.375596280155,-18662.015537536205
17823,30450,-26110,-16934,13601,32265,-4356,4411,-17414,-5405,16,-1,50742,2020-11-02 15:15:15,2020-11-02 15:15:45,3,DF:DC:EF:28:D6:3E,16,16,-27755.54530499777,-26110.0,21061.6371828549
17824,-30221,-22267,-26937,6172,5123,1537,-9665,3066,26852,16,-1,50766,2020-11-02 15:15:15,2020-11-02 15:15:45,3,DF:DC:EF:28:D6:3E,16,16,-6505.4780214828625,45551.203151601934,4182.911205547349
17825,-25355,4355,-6706,-9710,6904,16894,17731,-13318,14820,16,-1,50791,2020-11-02 15:15:15,2020-11-02 15:15:45,3,DF:DC:EF:28:D6:3E,16,16,1413.634439963767,4997.400454055028,-26073.74373525902
17826,32485,-21504,-1590,13331,-17676,18167,582,-25604,8933,16,-1,50817,2020-11-02 15:15:15,2020-11-02 15:15:45,3,DF:DC:EF:28:D6:3E,16,16,5972.267586713119,-30498.685519757517,-23545.435702904902
17827,14303,-4866,958,-501,27632,14343,-19269,-1794,29413,16,-1,50843,2020-11-02 15:15:15,2020-11-02 15:15:45,3,DF:DC:EF:28:D6:3E,16,16,8806.289310693852,-12310.657932248218,-261.7228525239128
17828,-14346,32506,14288,13830,-781,9754,-13636,-24831,-23582,16,-1,50868,2020-11-02 15:15:15,2020-11-02 15:15:45,3,DF:DC:EF:28:D6:3E,16,16,11838.58738352423,-12888.131650892085,34063.74329564992
17829,28666,12535,29148,-14842,20979,-14825,20157,-509,-3362,16,-1,50894,2020-11-02 15:15:15,2020-11-02 15:15:45,3,DF:DC:EF:28:D6:3E,16,16,28666.0,-16522.92193981559,-27087.361989879348
17830,28896,-28685,-21302,-11003,-7953,3093,-14403,-23290,10460,16,1,50919,2020-11-02 15:15:15,2020-11-02 15:15:45,3,DF:DC:EF:28:D6:3E,16,16,10339.619730301025,2346.4793752316073,-44712.07379863276
17831,-1569,-17177,11456,7930,-32536,16933,-3397,-19190,-13609,16,1,50945,2020-11-02 15:15:15,2020-11-02 15:15:45,3,DF:DC:EF:28:D6:3E,16,16,-15592.629599743366,7205.778739994583,-11562.771333700635
17832,-8205,-10508,-5160,21758,-30223,-19922,-10173,22541,464,16,1,50971,2020-11-02 15:15:15,2020-11-02 15:15:45,3,DF:DC:EF:28:D6:3E,16,16,8977.259616089581,-10019.48691167116,-4835.73994463903
17833,-1791,-23046,-18205,26883,-29195,-15310,6463,30221,-13370,16,1,50996,2020-11-02 15:15:15,2020-11-02 15:15:45,3,DF:DC:EF:28:D6:3E,16,16,-8845.295524404408,-26217.132605808754,-10008.522718932643
17834,-2794,-2315,-30489,4859,31996,10808,6202,-18422,-32323,16,1,51022,2020-11-02 15:15:15,2020-11-02 15:15:45,3,DF:DC:EF:28:D6:3E,16,16,-21880.331625055453,12067.97402053354,17842.64198534863
17835,4135,-19972,13296,-24066,5130,9771,20791,-26619,-3517,16,1,51047,2020-11-02 15:15:15,2020-11-02 15:15:45,3,DF:DC:EF:28:D6:3E,16,16,-14797.571473029435,17895.7985149401,7316.754677673225
17836,-32223,27650,31707,11776,5913,30231,13367,768,3138,16,1,51073,2020-11-02 15:15:15,2020-11-02 15:15:45,3,DF:DC:EF:28:D6:3E,16,16,-32223.0,-40337.55354289038,11947.306105329855
17837,29202,-9224,31175,-9741,-11233,-18687,11574,18171,-17853,16,1,51099,2020-11-02 15:15:15,2020-11-02 15:15:45,3,DF:DC:EF:28:D6:3E,16,16,28146.02354994642,28768.67857989038,17025.982969943838
17838,6402,5568,-8997,30434,31252,20713,-4559,-16903,26043,16,1,51124,2020-11-02 15:15:15,2020-11-02 15:15:45,3,DF:DC:EF:28:D6:3E,16,16,607.8702644317655,-7814.598206138337,9565.395214952654
17839,-19212,-12583,-28959,-21276,-8678,-2584,28972,-9733,31168,16,1,51150,2020-11-02 15:15:15,2020-11-02 15:15:45,3,DF:DC:EF:28:D6:3E,16,16,-33915.38511361868,4172.134253325146,-14085.327911240238
17840,16892,-13610,29178,-10256,18200,18674,-25048,-30468,26821,16,-1,51175,2020-11-02 15:15:15,2020-11-02 15:15:45,3,DF:DC:EF:28:D6:3E,16,16,5299.144793811183,26308.371996922524,-24529.901657482576
17841,-7689,-289,2556,-29441,30491,-11532,23847,-8707,30665,16,-1,51201,2020-11-02 15:15:15,2020-11-02 15:15:45,3,DF:DC:EF:28:D6:3E,16,16,1204.215018694706,3414.4105937656964,-7254.58782329711
17842,499,-23579,-14855,22281,-21984,18686,-11737,-12291,26318,16,-1,51227,2020-11-02 15:15:15,2020-11-02 15:15:45,3,DF:DC:EF:28:D6:3E,16,16,13756.555748072213,21580.999620093433,-11041.145608482328
17843,-9734,-18704,-8713,-7667,-6880,-28153,11049,5628,4051,16,-1,51252,2020-11-02 15:15:15,2020-11-02 15:15:45,3,DF:DC:EF:28:D6:3E,16,16,-9734.0,-2774.077638326483,-20446.527290875998
17844,6661,4602,18428,8464,20000,13572,-32214,-28423,-18985,16,-1,51278,2020-11-02 15:15:15,2020-11-02 15:15:45,3,DF:DC:EF:28:D6:3E,16,16,-5221.958929697217,15786.705781519706,-11342.379578566735
17845,-28421,15103,-4868,22037,-6373,24055,-5077,27640,29660,16,-1,51304,2020-11-02 15:15:15,2020-11-02 15:15:45,3,DF:DC:EF:28:D6:3E,16,16,20797.32797315437,-17062.770046999845,-18327.146572782563
17846,30702,-4089,8435,-29672,-24046,15608,18734,28664,29152,16,-1,51329,2020-11-02 15:15:15,2020-11-02 15:15:45,3,DF:DC:EF:28:D6:3E,16,16,7639.170212755688,-15749.909341581742,26908.463058905876
17847,-10497,-25591,-29716,3099,20234,-16385,-27855,-10505,26594,16,-1,51355,2020-11-02 15:15:15,2020-11-02 15:15:45,3,DF:DC:EF:28:D6:3E,16,16,33417.33648155884,-21305.51384851427,-8802.479657973841
17848,-17400,11525,15336,24609,-9720,25081,-17099,11255,-8733,16,-1,51380,2020-11-02 15:15:15,2020-11-02 15:15:45,3,DF:DC:EF:28:D6:3E,16,16,-5047.13592984515,24793.363534539894,5531.190156721588
17849,-23311,-14070,-22315,-1502,-12284,28657,27706,-26633,14566,16,-1,51406,2020-11-02 15:15:15,2020-11-02 15:15:45,3,DF:DC:EF:28:D6:3E,16,16,-7294.507305976758,34420.92406464446,1147.604330347227
17850,2276,2065,11987,23063,24316,26877,21310,31992,28903,16,-1,51431,2020-11-02 15:15:15,2020-11-02 15:15:45,3,DF:DC:EF:28:D6:3E,16,16,-250.65419993669911,-12323.044185532242,-1101.056071902794
17851,-789,-24053,-9763,1807,-10507,-29427,25921,-27911,-10523,16,-1,51457,2020-11-02 15:15:15,2020-11-02 15:15:45,3,DF:DC:EF:28:D6:3E,16,16,17343.799774966086,-11587.729606207704,-15472.641369181398
17852,18655,1291,11214,-15600,-23560,-6382,-25276,-18950,3043,16,-1,51483,2020-11-02 15:15:15,2020-11-02 15:15:45,3,DF:DC:EF:28:D6:3E,16,16,-17571.784838020405,-9330.63709691803,8921.944349295914
17853,-1852,-16651,15281,-13315,31466,-10203,-11591,12797,-27170,16,-1,51508,2020-11-02 15:15:15,2020-11-02 15:15:45,3,DF:DC:EF:28:D6:3E,16,16,-21482.982549468423,-6985.2439599162435,-1970.4044254134214
17854,-13619,-19268,10163,12532,21730,28229,10309,-10495,-14635,16,1,51534,2020-11-02 15:15:15,2020-11-02 15:15:45,3,DF:DC:EF:28:D6:3E,16,16,-17935.02067188205,6377.9081515655,-17253.314902051665
17855,-15122,-2381,-31547,30471,27878,21069,-30909,2309,-21815,16,1,51559,2020-11-02 15:15:15,2020-11-02 15:15:45,3,DF:DC:EF:28:D6:3E,16,16,19144.401470618955,-27145.78790410896,-11231.88966278133
17856,23047,11984,-21300,-29931,-16,-7103,-21437,-22778,18366,16,1,51585,2020-11-02 15:15:15,2020-11-02 15:15:45,3,DF:DC:EF:28:D6:3E,16,16,27396.19013221976,11115.009170728546,-15949.163061862673
17857,-7914,-5665,-28719,9741,13820,3384,-8125,-20218,23361,16,1,51611,2020-11-02 15:15:15,2020-11-02 15:15:45,3,DF:DC:EF:28:D6:3E,16,16,-26718.246823345085,10719.269163864883,9525.604299960489
17858,16941,-22807,-17177,-8704,18695,32554,-10686,4101,-9671,16,1,51662,2020-11-02 15:15:15,2020-11-02 15:15:45,3,DF:DC:EF:28:D6:3E,16,16,-13378.488948779639,-28722.830453357605,9910.65604261666
17859,7209,29673,21477,13819,-4590,-5102,-6847,-8191,-7371,16,1,51664,2020-11-02 15:15:15,2020-11-02 15:15:45,3,DF:DC:EF:28:D6:3E,16,16,36878.915534983884,5685.937771333767,-1154.919747880589
17860,28946,-16409,16599,14326,-11750,4605,-9152,-7683,-6603,16,1,51687,2020-11-02 15:15:15,2020-11-02 15:15:45,3,DF:DC:EF:28:D6:3E,16,16,2387.9279401051526,5723.433401707684,36663.23919471767
17861,-26106,-20509,9690,-4881,15901,-10513,29246,11514,-5064,16,1,51713,2020-11-02 15:15:15,2020-11-02 15:15:45,3,DF:DC:EF:28:D6:3E,16,16,31246.071670194862,3474.348459820504,14410.077201763668
17862,-1791,-543,20967,8176,21278,31469,-25798,11767,32573,16,1,51739,2020-11-02 15:15:15,2020-11-02 15:15:45,3,DF:DC:EF:28:D6:3E,16,16,-18305.28288004355,7193.171243198566,7502.834474224106
17863,-22275,25058,21228,-6407,19489,-24081,-8138,-17932,-4798,16,1,51764,2020-11-02 15:15:15,2020-11-02 15:15:45,3,DF:DC:EF:28:D6:3E,16,16,23409.098869346533,31401.641245945873,6376.361829920712
17864,25597,-31530,-17938,-26621,29212,10220,564,2035,15036,16,1,51790,2020-11-02 15:15:15,2020-11-02 15:15:45,3,DF:DC:EF:28:D6:3E,16,16,18018.037292716537,36396.39599078837,-17938.0
17865,-25601,-19502,-31244,-15868,-22754,19173,17969,5619,-7486,16,1,51816,2020-11-02 15:15:15,2020-11-02 15:15:45,3,DF:DC:EF:28:D6:3E,16,16,6124.035772786471,34356.30125244957,28179.203166600786
17866,6646,-30252,3084,22536,-3822,-21798,-7122,-16908,-14903,16,1,51841,2020-11-02 15:15:15,2020-11-02 15:15:45,3,DF:DC:EF:28:D6:3E,16,16,-1088.83707484235,30662.379162753452,-5243.740449716424
17867,-26386,19929,-18427,-21491,-9699,4575,3118,-23816,7632,16,1,51892,2020-11-02 15:15:15,2020-11-02 15:15:45,3,DF:DC:EF:28:D6:3E,16,16,-14985.899071752474,13545.751462417133,32013.68164284877
17868,-25099,27371,1531,-18660,-27362,9709,-14033,30457,-1579,16,-1,51894,2020-11-02 15:15:15,2020-11-02 15:15:45,3,DF:DC:EF:28:D6:3E,16,16,17357.385028588236,-9998.220702661714,-31308.65967668063
17869,-4619,-27142,-12580,32545,-1247,-13321,20787,504,27867,16,-1,51918,2020-11-02 15:15:15,2020-11-02 15:15:45,3,DF:DC:EF:28:D6:3E,16,16,24698.291426718457,-15228.386149302676,8623.826348472687
17870,-20748,-26374,-29738,-6128,11551,-12539,-21707,-31244,16095,16,-1,51944,2020-11-02 15:15:15,2020-11-02 15:15:45,3,DF:DC:EF:28:D6:3E,16,16,-30710.153912574206,14444.970132045151,29302.6501967028
17871,-27903,-16643,3824,15,-20473,28676,17207,-11535,21984,16,-1,51969,2020-11-02 15:15:15,2020-11-02 15:15:45,3,DF:DC:EF:28:D6:3E,16,16,-19266.707036363536,-13351.499534825474,-22819.31844176103
17872,13057,-17155,18664,-491,21246,-19722,-6343,13554,-32,16,-1,51995,2020-11-02 15:15:15,2020-11-02 15:15:45,3,DF:DC:EF:28:D6:3E,16,16,16862.01356882022,6436.328403286643,-22076.465865033024
17873,20978,-23804,3797,-20453,-18689,-28168,8253,13043,26082,16,-1,52021,2020-11-02 15:15:15,2020-11-02 15:15:45,3,DF:DC:EF:28:D6:3E,16,16,4240.566353648696,29474.306795355234,-11593.400921799388
17874,-21515,-15608,-15669,1557,-16130,-25330,29761,28147,28129,16,-1,52047,2020-11-02 15:15:15,2020-11-02 15:15:45,3,DF:DC:EF:28:D6:3E,16,16,-18709.09235860551,8098.7496848411565,-23160.366289406007
17875,-31992,30984,-25899,25105,-509,20763,-5191,-2062,10461,16,-1,52072,2020-11-02 15:15:15,2020-11-02 15:15:45,3,DF:DC:EF:28:D6:3E,16,16,-43357.48836262139,-10179.613100955783,-25899.0
17876,25870,-20481,-6443,16652,-32001,-23018,-23618,8435,-28200,16,-1,52123,2020-11-02 15:15:15,2020-11-02 15:15:45,3,DF:DC:EF:28:D6:3E,16,16,-16749.128780580308,-8548.34475920862,-27868.135871802526
17877,31497,18682,-28467,-30974,1012,-29938,-3904,3061,470,16,-1,52125,2020-11-02 15:15:15,2020-11-02 15:15:45,3,DF:DC:EF:28:D6:3E,16,16,31497.0,18682.0,-28467.0
17878,25606,-3589,-21299,1530,-12308,-12530,-6208,20984,-19756,16,-1,52148,2020-11-02 15:15:15,2020-11-02 15:15:45,3,DF:DC:EF:28:D6:3E,16,16,23479.005758979805,23409.261224413418,4789.398239546105
17879,29185,-6917,-27437,-1801,-15376,-9970,6848,-29189,17875,16,1,52174,2020-11-02 15:15:15,2020-11-02 15:15:45,3,DF:DC:EF:28:D6:3E,16,16,8672.088210182916,-20781.948943300675,-33842.33395014077
17880,12792,30703,3544,-30220,16877,-9714,-15938,-29442,-18479,16,1,52200,2020-11-02 15:15:15,2020-11-02 15:15:45,3,DF:DC:EF:28:D6:3E,16,16,22962.965967753393,12924.279959920208,-20604.23719727096
17881,13048,-6176,-30248,12276,-4893,10510,-4676,-20990,11472,16,1,52225,2020-11-02 15:15:15,2020-11-02 15:15:45,3,DF:DC:EF:28:D6:3E,16,16,9215.00169375056,-5294.230629269967,31786.626902335418
17882,-25351,-28940,-16424,-17660,6111,-4348,29116,-27641,25551,16,1,52251,2020-11-02 15:15:15,2020-11-02 15:15:45,3,DF:DC:EF:28:D6:3E,16,16,-40386.43780695948,-10106.426137539913,4091.499601740612
17883,-15886,4870,27344,-26352,1254,-9974,27326,11276,17359,16,1,52276,2020-11-02 15:15:15,2020-11-02 15:15:45,3,DF:DC:EF:28:D6:3E,16,16,23985.83350582875,-21106.871100047065,1719.3066616112155
17884,-20225,-3840,25296,-14335,-3831,-17870,23484,22542,21193,16,1,52302,2020-11-02 15:15:15,2020-11-02 15:15:45,3,DF:DC:EF:28:D6:3E,16,16,-20974.044476203697,-18883.18362420943,16346.212880193925
17885,-24035,32748,7412,-4369,-12249,28988,1858,-28664,-10818,16,1,52328,2020-11-02 15:15:15,2020-11-02 15:15:45,3,DF:DC:EF:28:D6:3E,16,16,27713.03148833308,17450.023809080478,25150.249060181966
17886,28709,-17941,28143,17395,4372,-9963,-25538,-28158,2234,16,1,52353,2020-11-02 15:15:15,2020-11-02 15:15:45,3,DF:DC:EF:28:D6:3E,16,16,-42962.91733201452,-9571.67242353696,-827.9084121981687
17887,-26087,2784,18406,24043,28930,6380,-30148,20737,19643,16,1,52379,2020-11-02 15:15:15,2020-11-02 15:15:45,3,DF:DC:EF:28:D6:3E,16,16,-24290.559587413834,20493.21455419352,-4130.3671950673615
17888,-5623,23782,-532,-17186,-32517,-26912,-20424,-8445,-9794,16,1,52404,2020-11-02 15:15:15,2020-11-02 15:15:45,3,DF:DC:EF:28:D6:3E,16,16,-20229.87022140888,-12208.403534566032,-6260.344316581149
17889,-2305,10728,13036,17636,-4084,-19222,1077,-13051,-20286,16,1,52430,2020-11-02 15:15:15,2020-11-02 15:15:45,3,DF:DC:EF:28:D6:3E,16,16,12299.292671439061,-9083.22411528852,-7520.820730061745
17890,20222,4331,-22290,-10005,-13029,24567,-19406,-3324,-12858,16,1,52456,2020-11-02 15:15:15,2020-11-02 15:15:45,3,DF:DC:EF:28:D6:3E,16,16,-15174.3314049536,-15294.50054385419,21455.741994316642
17891,20478,31983,27890,21234,-17377,-2821,9521,-16382,7627,16,1,52481,2020-11-02 15:15:15,2020-11-02 15:15:45,3,DF:DC:EF:28:D6:3E,16,16,-20022.7082284109,-42636.62190406362,1150.0003521081953
17892,-5124,-11279,8182,7414,-14305,-22019,-9425,28672,25807,16,1,52507,2020-11-02 15:15:15,2020-11-02 15:15:45,3,DF:DC:EF:28:D6:3E,16,16,10268.358629978848,10679.0203732895,-967.3034234440918
17893,-14598,-17676,14071,17145,7969,8447,-26834,7678,-16941,16,1,52533,2020-11-02 15:15:15,2020-11-02 15:15:45,3,DF:DC:EF:28:D6:3E,16,16,12010.147107378021,24068.329373194098,86.65242398005557
17894,23033,-29455,-520,23806,-3552,6914,29485,-20741,15832,16,-1,52558,2020-11-02 15:15:15,2020-11-02 15:15:45,3,DF:DC:EF:28:D6:3E,16,16,19190.103289581544,-20655.212274135964,-24566.006098785663
17895,-13823,28931,-27125,31493,-1769,22273,-5332,-30471,-549,16,-1,52584,2020-11-02 15:15:15,2020-11-02 15:15:45,3,DF:DC:EF:28:D6:3E,16,16,-29931.88333989581,28931.0,5560.873467978551
17896,-6139,23808,2560,-18158,-5103,30205,4398,21752,4319,16,-1,52609,2020-11-02 15:15:15,2020-11-02 15:15:45,3,DF:DC:EF:28:D6:3E,16,16,6438.831157263395,23808.0,-1668.0450618176153
17897,-14078,-26364,26621,15890,-2549,15864,1584,-5129,28385,16,-1,52635,2020-11-02 15:15:15,2020-11-02 15:15:45,3,DF:DC:EF:28:D6:3E,16,16,-10750.34609178029,27886.925949393277,26621.0
17898,-28939,23049,7919,20764,23307,24818,-13006,24312,4836,16,-1,52661,2020-11-02 15:15:15,2020-11-02 15:15:45,3,DF:DC:EF:28:D6:3E,16,16,37271.17692685939,-2391.0421125425128,-6047.724456586329
17899,-4375,17675,-28448,18460,-29689,32250,-22218,-27400,21222,16,-1,52686,2020-11-02 15:15:15,2020-11-02 15:15:45,3,DF:DC:EF:28:D6:3E,16,16,-19027.161815819858,24442.420198737076,-13467.373985412909
17900,8430,27400,26594,-6636,30205,-5879,26170,20984,-8987,16,-1,52712,2020-11-02 15:15:15,2020-11-02 15:15:45,3,DF:DC:EF:28:D6:3E,16,16,-5550.493785555351,12746.845137725995,36548.265263502486
17901,-20497,27393,-1831,11800,-31238,-17392,-16322,14328,24291,16,-1,52737,2020-11-02 15:15:15,2020-11-02 15:15:45,3,DF:DC:EF:28:D6:3E,16,16,-1111.0399808697996,18700.704270615246,28686.32546953168
17902,9702,-5133,9165,6420,3061,6168,30275,-5640,-8993,16,-1,52763,2020-11-02 15:15:15,2020-11-02 15:15:45,3,DF:DC:EF:28:D6:3E,16,16,11412.101474635241,-4202.183227102756,7521.922231616358
17903,-12059,-27168,7112,2061,28656,-21205,-11590,17147,13274,16,-1,52789,2020-11-02 15:15:15,2020-11-02 15:15:45,3,DF:DC:EF:28:D6:3E,16,16,-26477.13343171586,15145.58850567749,1916.4558580369921
17904,14323,21451,12995,12300,24054,-14786,1726,-28674,-7983,16,-1,52814,2020-11-02 15:15:15,2020-11-02 15:15:45,3,DF:DC:EF:28:D6:3E,16,16,26978.411224956813,-2314.538080690725,-10048.482285905508
17905,4102,-30787,-17734,-2556,-13,15428,-28225,20738,14024,16,-1,52840,2020-11-02 15:15:15,2020-11-02 15:15:45,3,DF:DC:EF:28:D6:3E,16,16,-28124.735817372733,-19154.56516398801,11011.92070356158
17906,9520,27107,21450,31223,27375,17205,-31043,-19194,-26689,16,-1,52866,2020-11-02 15:15:15,2020-11-02 15:15:45,3,DF:DC:EF:28:D6:3E,16,16,18866.754494641482,-2139.869502414913,-30413.62987792743
17907,6202,-5894,24801,16621,14334,-10214,-3259,2824,-15687,16,-1,52891,2020-11-02 15:15:15,2020-11-02 15:15:45,3,DF:DC:EF:28:D6:3E,16,16,-7940.341713975945,-3186.6931865640204,24801.0
17908,-16611,-16893,-27677,-15636,15886,-14331,20802,9990,29508,16,-1,52917,2020-11-02 15:15:15,2020-11-02 15:15:45,3,DF:DC:EF:28:D6:3E,16,16,23207.659843198147,-5727.4700572804395,27493.92133445799
17909,29964,-30715,-7967,5616,-2542,32255,-11969,24835,-1724,16,-1,52942,2020-11-02 15:15:15,2020-11-02 15:15:45,3,DF:DC:EF:28:D6:3E,16,16,-43231.70233774769,5537.577485025273,2254.0538098551574
17910,27911,8441,16611,14317,20761,31489,23613,-2049,4422,16,-1,52968,2020-11-02 15:15:15,2020-11-02 15:15:45,3,DF:DC:EF:28:D6:3E,16,16,27911.0,7053.840445850247,-17245.84404905968
17911,-23805,-7192,21479,-1561,-17899,-13318,-2503,-15876,17339,16,-1,52993,2020-11-02 15:15:15,2020-11-02 15:15:45,3,DF:DC:EF:28:D6:3E,16,16,10543.04262898416,5761.827244963853,-30584.243147781424
17912,-28925,-6690,-22553,-26903,-14312,20210,-203,19451,-24898,16,-1,53019,2020-11-02 15:15:15,2020-11-02 15:15:45,3,DF:DC:EF:28:D6:3E,16,16,-11574.086578714152,23635.658806352054,26409.197008961502
17913,-1790,-28707,-11543,10219,30754,-4361,-14799,13817,12995,16,-1,53045,2020-11-02 15:15:15,2020-11-02 15:15:45,3,DF:DC:EF:28:D6:3E,16,16,-13323.91510735746,25628.200785916146,-11234.118064570044
17914,-2556,16353,23025,-21772,-29918,2037,-24531,27639,-11320,16,-1,53071,2020-11-02 15:15:15,2020-11-02 15:15:45,3,DF:DC:EF:28:D6:3E,16,16,-21661.304533523275,-18299.111850936708,-186.44402074480786
17915,4097,14819,-18704,-11776,-27110,-22550,12331,-2313,17614,16,-1,53096,2020-11-02 15:15:15,2020-11-02 15:15:45,3,DF:DC:EF:28:D6:3E,16,16,-5585.82751341636,-10153.962895032088,21258.48899890753
17916,-8456,14057,-28179,-15096,31519,28905,-29654,-8455,-17197,16,-1,53122,2020-11-02 15:15:15,2020-11-02 15:15:45,3,DF:DC:EF:28:D6:3E,16,16,13469.406496931711,-29402.408425655354,-4151.227937775121
17917,28657,-12560,3819,-6899,11303,-12300,-3030,23802,2522,16,-1,53147,2020-11-02 15:15:15,2020-11-02 15:15:45,3,DF:DC:EF:28:D6:3E,16,16,-21621.693972669505,-12560.0,19191.424119961164
17918,6386,-9225,18928,-12020,4385,23804,-22741,17401,-8737,16,-1,53173,2020-11-02 15:15:15,2020-11-02 15:15:45,3,DF:DC:EF:28:D6:3E,16,16,5187.206841044126,13768.063108314918,16361.055235946204
17919,-27143,-9473,23296,-19705,-24045,-1545,-2005,-17160,-19229,16,1,53198,2020-11-02 15:15:15,2020-11-02 15:15:45,3,DF:DC:EF:28:D6:3E,16,16,8451.740051863857,10773.525719502035,-34375.61676053171
17920,-16902,30986,-6902,-24818,-22520,31470,-17108,-3591,28134,16,1,53224,2020-11-02 15:15:15,2020-11-02 15:15:45,3,DF:DC:EF:28:D6:3E,16,16,-3460.5466325321613,25322.27939240377,-25303.244601772196
17921,-17432,-9964,12790,18973,32526,28911,-25809,-15365,24041,16,1,53249,2020-11-02 15:15:15,2020-11-02 15:15:45,3,DF:DC:EF:28:D6:3E,16,16,-16588.99028357614,-14362.551801763708,-9233.77101259667
17922,-7709,-5613,-17449,-28642,24586,-760,13108,8187,3819,16,1,53275,2020-11-02 15:15:15,2020-11-02 15:15:45,3,DF:DC:EF:28:D6:3E,16,16,-2349.7507424273927,18202.16299422043,7652.5802694446975
17923,-21507,11798,-30760,-3302,-9723,17177,-1992,26616,19177,16,1,53301,2020-11-02 15:15:15,2020-11-02 15:15:45,3,DF:DC:EF:28:D6:3E,16,16,-38628.4402279645,-6410.911421534802,3829.5265111770896
17924,7179,9486,-25892,-487,-20225,-30704,10302,-25866,25318,16,1,53326,2020-11-02 15:15:15,2020-11-02 15:15:45,3,DF:DC:EF:28:D6:3E,16,16,26406.499375381547,-10599.307591071629,-1506.442938788392
17925,-22530,-22778,29648,16659,30966,14846,5442,21239,15589,16,1,53352,2020-11-02 15:15:15,2020-11-02 15:15:45,3,DF:DC:EF:28:D6:3E,16,16,9688.889224573433,33564.87838569445,-26171.8637576212
17926,23529,11516,7889,19201,-28189,12538,20035,30714,-19227,16,1,53377,2020-11-02 15:15:15,2020-11-02 15:15:45,3,DF:DC:EF:28:D6:3E,16,16,-14244.987231216306,10609.975992365864,20808.10337882586
17927,32481,-8465,-24860,1022,18653,29958,1603,-1,-7452,16,1,53403,2020-11-02 15:15:15,2020-11-02 15:15:45,3,DF:DC:EF:28:D6:3E,16,16,10426.507310504203,-31905.47807671909,-24860.0
17928,24803,-10792,-4121,-4339,-17171,-29922,-7869,-31229,14817,16,1,53429,2020-11-02 15:15:15,2020-11-02 15:15:45,3,DF:DC:EF:28:D6:3E,16,16,2792.0218697253413,16243.944487546874,-21839.816742923253
17929,19433,-23078,-23604,6424,-18187,11818,16198,12805,6619,16,1,53454,2020-11-02 15:15:15,2020-11-02 15:15:45,3,DF:DC:EF:28:D6:3E,16,16,-35995.16197797295,1439.9508391022246,-13025.33088871294
17930,21228,24810,-24906,-9204,20983,-1233,-14150,-4346,7124,16,1,53480,2020-11-02 15:15:15,2020-11-02 15:15:45,3,DF:DC:EF:28:D6:3E,16,16,39214.152390669464,48.13361528550922,-12195.116048502034
17931,-9728,26855,18374,16896,-28420,4930,6981,-9465,-20278,16,1,53505,2020-11-02 15:15:15,2020-11-02 15:15:45,3,DF:DC:EF:28:D6:3E,16,16,32164.334996443777,5545.9012907303895,9387.62047113203
17932,19745,10734,-32034,-21255,-3066,31555,19777,-21243,-11073,16,1,53531,2020-11-02 15:15:15,2020-11-02 15:15:45,3,DF:DC:EF:28:D6:3E,16,16,-18233.04475765567,17095.31295283009,-30109.255900970467
17933,-17362,27885,19673,22770,-16375,-12502,-26818,-7167,-8380,16,1,53557,2020-11-02 15:15:15,2020-11-02 15:15:45,3,DF:DC:EF:28:D6:3E,16,16,-36682.364405507426,-4161.156693525054,-10155.201356619848
17934,44,-3366,-21805,29665,11023,-4594,10299,19454,322,16,1,53582,2020-11-02 15:15:15,2020-11-02 15:15:45,3,DF:DC:EF:28:D6:3E,16,16,-2105.8427487273448,16529.617262184027,14461.227350516981
17935,16927,-30515,-7968,-31780,-5095,2037,-8907,32251,836,16,1,53608,2020-11-02 15:15:15,2020-11-02 15:15:45,3,DF:DC:EF:28:D6:3E,16,16,-15692.92339442718,-23192.165670515606,22294.24106911912
17936,26892,-1832,-5147,-22041,28445,16612,-31184,11003,-17988,16,1,53633,2020-11-02 15:15:15,2020-11-02 15:15:45,3,DF:DC:EF:28:D6:3E,16,16,-11081.508078121968,-6040.183787004986,-24366.859779908442
17937,-7939,-2077,-32537,8944,19746,-5653,-16084,-5125,-4926,16,1,53659,2020-11-02 15:15:15,2020-11-02 15:15:45,3,DF:DC:EF:28:D6:3E,16,16,-7939.0,-28721.473397118792,15428.780376251312
17938,-8457,5611,20970,29942,31267,-13581,5674,16380,-15672,16,1,53685,2020-11-02 15:15:15,2020-11-02 15:15:45,3,DF:DC:EF:28:D6:3E,16,16,-4297.574250562946,-22873.592616030564,-1036.6708237287867
17939,-4623,23792,-27158,-26883,6437,763,31784,-2565,-28722,16,-1,53710,2020-11-02 15:15:15,2020-11-02 15:15:45,3,DF:DC:EF:28:D6:3E,16,16,17189.70687479271,-9905.96449642792,-30518.423975595688
17940,-28429,502,7665,15616,-29153,-256,-31705,3323,-12333,16,-1,53736,2020-11-02 15:15:15,2020-11-02 15:15:45,3,DF:DC:EF:28:D6:3E,16,16,5276.644297462179,28849.901466899963,2655.6506374565247
17941,4343,-20231,-6666,20994,-9959,9983,-13018,19450,3288,16,-1,53762,2020-11-02 15:15:15,2020-11-02 15:15:45,3,DF:DC:EF:28:D6:3E,16,16,-1312.0224596923108,2357.6900029652434,-21571.0560917907
17942,-26627,-1276,-15867,10245,-27117,7927,-31962,-22534,-23589,16,-1,53787,2020-11-02 15:15:15,2020-11-02 15:15:45,3,DF:DC:EF:28:D6:3E,16,16,-28999.44210212118,10852.322889072126,1909.5653110178073
17943,24571,23557,20489,-23287,25361,29174,-730,-15365,-29474,16,-1,53813,2020-11-02 15:15:15,2020-11-02 15:15:45,3,DF:DC:EF:28:D6:3E,16,16,-30774.66109749498,-20988.23839066521,13815.914540519423
17944,28408,-23032,-20730,22037,-4076,-11528,-10456,26364,-7711,16,-1,53838,2020-11-02 15:15:15,2020-11-02 15:15:45,3,DF:DC:EF:28:D6:3E,16,16,-38527.48609414149,4685.942322454142,16152.24900180677
17945,7409,-5365,-25355,25376,-2806,-18441,-19412,-13572,-29468,16,-1,53864,2020-11-02 15:15:15,2020-11-02 15:15:45,3,DF:DC:EF:28:D6:3E,16,16,-9206.349528185949,-25012.07586806585,-4023.8936535386038
17946,22249,-5359,10723,13346,25859,-29447,-8143,31741,742,16,-1,53890,2020-11-02 15:15:15,2020-11-02 15:15:45,3,DF:DC:EF:28:D6:3E,16,16,-3568.697172999383,6127.613312947713,24257.707364349422
17947,23270,-5614,32732,-1766,-13830,14333,28982,19198,11750,16,-1,53915,2020-11-02 15:15:15,2020-11-02 15:15:45,3,DF:DC:EF:28:D6:3E,16,16,-18367.133142253057,-31464.47790714993,-17805.301743166932
17948,-17696,-27138,-17181,21521,3056,6401,-14023,-1025,21221,16,-1,53941,2020-11-02 15:15:15,2020-11-02 15:15:45,3,DF:DC:EF:28:D6:3E,16,16,18129.850484134116,1788.6616309832098,31826.332367911804
17949,27359,5616,-3099,-14566,3823,23046,2877,15618,27619,16,-1,53966,2020-11-02 15:15:15,2020-11-02 15:15:45,3,DF:DC:EF:28:D6:3E,16,16,13534.082276662002,7078.210650274203,-23587.829254064232
17950,6362,-28445,-9016,7198,-25105,-23533,-28351,15108,-14368,16,-1,53992,2020-11-02 15:15:15,2020-11-02 15:15:45,3,DF:DC:EF:28:D6:3E,16,16,30128.5904371021,4757.036438400992,721.0877873637155
17951,-21018,3546,-27452,-4329,-3339,1064,-25020,-16123,-28709,16,-1,54018,2020-11-02 15:15:15,2020-11-02 15:15:45,3,DF:DC:EF:28:D6:3E,16,16,-20539.182144389364,-4362.93091499227,-27695.659852594265
17952,-27917,-12585,-16697,1558,-26367,25659,14918,774,-32045,16,-1,54043,2020-11-02 15:15:15,2020-11-02 15:15:45,3,DF:DC:EF:28:D6:3E,16,16,-27499.98838298548,-20977.97889425177,-4495.104386773567
17953,14596,-10038,-7478,-7414,18953,9554,12614,-2300,2248,16,-1,54069,2020-11-02 15:15:15,2020-11-02 15:15:45,3,DF:DC:EF:28:D6:3E,16,16,14596.0,10977.008103062664,-6015.581526776663
17954,-20693,-12331,-25633,29182,7172,2131,-30652,9731,-8006,16,-1,54095,2020-11-02 15:15:15,2020-11-02 15:15:45,3,DF:DC:EF:28:D6:3E,16,16,3017.486036250466,34319.936034940525,7095.158037607356
17955,29254,-29205,-25111,5887,-2553,25646,30275,10753,-7619,16,-1,54120,2020-11-02 15:15:15,2020-11-02 15:15:45,3,DF:DC:EF:28:D6:3E,16,16,-9199.133858431996,-45572.81561240347,-13333.614491671955
17956,-6097,-16406,-27423,28155,-5866,-8701,19523,-27139,24123,16,-1,54146,2020-11-02 15:15:15,2020-11-02 15:15:45,3,DF:DC:EF:28:D6:3E,16,16,331.1406030498183,-30385.27756046281,-11617.93559435783
17957,22549,-26909,15073,32751,20760,14325,21569,250,573,16,-1,54171,2020-11-02 15:15:15,2020-11-02 15:15:45,3,DF:DC:EF:28:D6:3E,16,16,22549.0,24512.606209535006,-18719.55519814148
17958,-15865,1768,-17175,-22028,-9692,-32528,-4547,2294,-27584,16,-1,54197,2020-11-02 15:15:15,2020-11-02 15:15:45,3,DF:DC:EF:28:D6:3E,16,16,9032.029233296787,-13162.313509747146,-17175.0
17959,-29187,32483,-30492,-23550,-16847,4591,32058,497,5050,16,1,54222,2020-11-02 15:15:15,2020-11-02 15:15:45,3,DF:DC:EF:28:D6:3E,16,16,-29187.0,-20025.32021262644,-39798.16457302742
17960,30717,5089,-15647,-30964,-19403,-28176,20789,-789,30403,16,1,54248,2020-11-02 15:15:15,2020-11-02 15:15:45,3,DF:DC:EF:28:D6:3E,16,16,5999.527251007659,-30258.031582760537,16208.572315323832
17961,6140,17112,15586,31507,18218,-15380,-17363,-30743,5840,16,1,54274,2020-11-02 15:15:15,2020-11-02 15:15:45,3,DF:DC:EF:28:D6:3E,16,16,4099.788374509933,-20898.30465753842,-10949.709481303198
17962,-21260,16858,2029,12563,-6376,-12062,-26328,25067,6106,16,1,54299,2020-11-02 15:15:15,2020-11-02 15:15:45,3,DF:DC:EF:28:D6:3E,16,16,13398.145121307774,-2370.0177470371586,-23562.031495333875
17963,-32532,24032,19455,-10737,-21234,21217,12327,22767,-29473,16,1,54325,2020-11-02 15:15:15,2020-11-02 15:15:45,3,DF:DC:EF:28:D6:3E,16,16,36240.195453903274,24890.102686617363,-9027.51874617449
17964,-1558,-29204,27644,8724,-26858,-11027,28967,-21518,-27165,16,1,54351,2020-11-02 15:15:15,2020-11-02 15:15:45,3,DF:DC:EF:28:D6:3E,16,16,-11493.969116267395,-14573.335334858168,-35707.11815831775
17965,4076,3058,-1806,-24805,-10977,4,20776,27378,3817,16,1,54402,2020-11-02 15:15:15,2020-11-02 15:15:45,3,DF:DC:EF:28:D6:3E,16,16,-4343.952917783206,-2772.5343200480415,1633.983626673936
17966,-21767,-17663,4861,-22505,-20211,-19190,2602,12528,-11028,16,1,54404,2020-11-02 15:15:15,2020-11-02 15:15:45,3,DF:DC:EF:28:D6:3E,16,16,-7580.511405661724,-20885.011001386025,17769.787317258953
17967,-6143,8452,-25345,14103,-1028,14600,-29651,-14354,-24340,16,1,54427,2020-11-02 15:15:15,2020-11-02 15:15:45,3,DF:DC:EF:28:D6:3E,16,16,-21334.61112764181,-16148.496303081462,-5966.759018233148
17968,5124,-26875,-13336,-729,12534,11784,11060,-31250,17898,16,1,54453,2020-11-02 15:15:15,2020-11-02 15:15:45,3,DF:DC:EF:28:D6:3E,16,16,27335.542945234287,-564.4735953687741,-13372.335564492218
17969,-10492,-16381,31166,26664,23802,-14830,22589,-30994,-9498,16,1,54479,2020-11-02 15:15:15,2020-11-02 15:15:45,3,DF:DC:EF:28:D6:3E,16,16,-8846.255604805969,35651.87140985031,653.1521644588411
17970,537,16130,26824,-15602,-27137,23840,32325,22510,-26400,16,1,54504,2020-11-02 15:15:15,2020-11-02 15:15:45,3,DF:DC:EF:28:D6:3E,16,16,-21856.962854630794,-21045.492264842178,7704.068736827149
17971,-30686,28160,-28459,-17910,25601,-6894,-25922,-24594,-1574,16,1,54530,2020-11-02 15:15:15,2020-11-02 15:15:45,3,DF:DC:EF:28:D6:3E,16,16,50264.42179617348,3131.2378504490152,-2866.030010358467
17972,-21741,-13566,-10024,9222,23803,6398,31168,6383,-3879,16,1,54555,2020-11-02 15:15:15,2020-11-02 15:15:45,3,DF:DC:EF:28:D6:3E,16,16,-3192.876326722235,-13460.418137217428,23786.775681742256
17973,23803,24834,-26673,19967,-16911,-21514,23231,21488,12252,16,1,54581,2020-11-02 15:15:15,2020-11-02 15:15:45,3,DF:DC:EF:28:D6:3E,16,16,43001.771405044514,-6446.333875648603,-2012.8908544580918
17974,-24078,-30215,-12853,26868,12515,-16631,30397,9460,9181,16,1,54607,2020-11-02 15:15:15,2020-11-02 15:15:45,3,DF:DC:EF:28:D6:3E,16,16,22069.62755316045,-4303.064005584116,33945.70809143076
17975,14087,4074,32466,-15624,12019,-14808,-25411,-29192,-2600,16,1,54632,2020-11-02 15:15:15,2020-11-02 15:15:45,3,DF:DC:EF:28:D6:3E,16,16,-13397.000520183065,-27233.293924065554,-18653.425425579855
17976,-27884,-5652,32221,-2563,-11254,9004,21951,29945,-21807,16,-1,54658,2020-11-02 15:15:15,2020-11-02 15:15:45,3,DF:DC:EF:28:D6:3E,16,16,-23060.94116809558,-4346.265279155017,-36013.30825632166
17977,12558,-32022,6867,21238,-22015,9242,9920,-19463,10188,16,-1,54683,2020-11-02 15:15:15,2020-11-02 15:15:45,3,DF:DC:EF:28:D6:3E,16,16,14475.521853695442,-20172.429291849083,24774.985378977213
17978,24084,-8732,-17194,-27931,1261,-30188,-11075,18684,20937,16,-1,54709,2020-11-02 15:15:15,2020-11-02 15:15:45,3,DF:DC:EF:28:D6:3E,16,16,26583.268347300476,15590.765442365037,-1475.9379717889278
17979,-25566,-11020,-31248,-17686,-9475,11793,22970,16638,-23866,16,-1,54735,2020-11-02 15:15:15,2020-11-02 15:15:45,3,DF:DC:EF:28:D6:3E,16,16,-11604.998326052657,38596.11347439458,11276.626203079188
17980,-19684,-21256,-25610,18421,-2284,-16634,3397,-261,-3900,16,-1,54760,2020-11-02 15:15:15,2020-11-02 15:15:45,3,DF:DC:EF:28:D6:3E,16,16,-19684.0,-21256.0,-25610.0
17981,15634,1265,-26379,-13835,27926,-27142,-30909,16632,22725,16,-1,54786,2020-11-02 15:15:15,2020-11-02 15:15:45,3,DF:DC:EF:28:D6:3E,16,16,8464.552056395958,-27120.219448701217,-11606.846149529647
17982,24844,-13076,31993,29680,26122,24814,-25792,20982,-10041,16,-1,54811,2020-11-02 15:15:15,2020-11-02 15:15:45,3,DF:DC:EF:28:D6:3E,16,16,-28819.894284879803,15890.67173457273,26993.673448280497
17983,-8440,-789,-9222,-2068,12036,1000,28732,-30986,-29237,16,-1,54837,2020-11-02 15:15:15,2020-11-02 15:15:45,3,DF:DC:EF:28:D6:3E,16,16,7509.696508660398,-6577.46764772194,7565.896026974267
17984,29957,6373,-24839,-10512,-244,-30743,21304,6903,-21297,16,-1,54863,2020-11-02 15:15:15,2020-11-02 15:15:45,3,DF:DC:EF:28:D6:3E,16,16,-37653.81015794036,-2535.1340550115115,-11435.75860679597
17985,18434,25567,-23300,2805,18703,26601,-4556,27895,1492,16,-1,54888,2020-11-02 15:15:15,2020-11-02 15:15:45,3,DF:DC:EF:28:D6:3E,16,16,5584.231633674906,25567.0,29180.793564628508
17986,19201,16611,1799,-2569,-18429,-18712,25394,8953,32215,16,-1,54914,2020-11-02 15:15:15,2020-11-02 15:15:45,3,DF:DC:EF:28:D6:3E,16,16,-9444.670090742138,-1549.2480261029468,-23584.701830437818
17987,-6145,18667,7172,-27134,-6904,15852,30769,14331,14298,16,-1,54940,2020-11-02 15:15:15,2020-11-02 15:15:45,3,DF:DC:EF:28:D6:3E,16,16,-6128.9834718575175,-15858.484155895516,12190.141093478296
17988,-12035,-5907,32257,19468,13592,18162,4146,28155,2014,16,-1,54965,2020-11-02 15:15:15,2020-11-02 15:15:45,3,DF:DC:EF:28:D6:3E,16,16,-16545.57711405427,-5907.0,-30192.700309228443
17989,-14086,24564,-18181,11541,-13285,-5387,-10445,3834,27874,16,-1,54991,2020-11-02 15:15:15,2020-11-02 15:15:45,3,DF:DC:EF:28:D6:3E,16,16,7673.338158606406,11985.123619613632,-30493.129493809818
17990,-25867,-19712,-18448,-24554,8983,-18441,17974,20216,19174,16,-1,55016,2020-11-02 15:15:15,2020-11-02 15:15:45,3,DF:DC:EF:28:D6:3E,16,16,-30636.073667005923,-17974.632232033666,-11676.340325329777
17991,32747,23813,-15885,-31979,-1266,-7686,-31944,-15882,3049,16,-1,55042,2020-11-02 15:15:15,2020-11-02 15:15:45,3,DF:DC:EF:28:D6:3E,16,16,-30293.97291221255,21987.359725459763,22149.253271777867
17992,22002,-11770,4583,4116,15105,5896,-11461,-5387,19177,16,-1,55067,2020-11-02 15:15:15,2020-11-02 15:15:45,3,DF:DC:EF:28:D6:3E,16,16,-23061.11835690896,-5869.714351229766,8795.22976184272
17993,-26623,6662,-32283,16918,-23557,-19184,-1473,-21515,-14874,16,-1,55093,2020-11-02 15:15:15,2020-11-02 15:15:45,3,DF:DC:EF:28:D6:3E,16,16,-6806.336147043174,-30880.88822504165,28202.889793174334
17994,-22005,-2300,469,24351,29694,3087,-29627,-15627,1764,16,-1,55119,2020-11-02 15:15:15,2020-11-02 15:15:45,3,DF:DC:EF:28:D6:3E,16,16,11041.819386295665,-1102.1585113824324,-19146.630441312973
17995,-27390,521,-26944,-233,-3067,-22771,16830,-24331,-22303,16,-1,55144,2020-11-02 15:15:15,2020-11-02 15:15:45,3,DF:DC:EF:28:D6:3E,16,16,-23053.062923213776,-27814.903533750952,13090.076709724615
17996,29692,32000,-26428,15359,6906,1301,-11072,-32010,-12066,16,1,55170,2020-11-02 15:15:15,2020-11-02 15:15:45,3,DF:DC:EF:28:D6:3E,16,16,8438.607219096593,30330.460598394868,-40161.01487874811
17997,-24065,6135,9429,6643,-2578,-31468,14016,-24839,10204,16,1,55196,2020-11-02 15:15:15,2020-11-02 15:15:45,3,DF:DC:EF:28:D6:3E,16,16,18538.427694442536,8278.185527803458,17130.873707583956
17998,25332,-23827,-13862,-13068,25318,-13811,-22594,-32003,-31782,16,1,55221,2020-11-02 15:15:15,2020-11-02 15:15:45,3,DF:DC:EF:28:D6:3E,16,16,-14057.959077310357,28737.80105729254,-19444.89069067098
17999,32231,24295,-20290,32501,-32035,19473,10429,-14334,17881,16,1,55247,2020-11-02 15:15:15,2020-11-02 15:15:45,3,DF:DC:EF:28:D6:3E,16,16,17551.359802152576,-33007.25909718514,25362.158858951105
18000,-271,3562,-26441,27378,-1301,-219,20666,-31225,8917,16,1,55272,2020-11-02 15:15:15,2020-11-02 15:15:45,3,DF:DC:EF:28:D6:3E,16,16,13608.62492703583,21573.59639753044,7827.709248031685
18001,-10490,-11541,1743,18927,5373,-8405,14914,2056,206,16,1,55298,2020-11-02 15:15:15,2020-11-02 15:15:45,3,DF:DC:EF:28:D6:3E,16,16,-10490.0,3217.8452256334076,-11219.545539096862
18002,-30447,9975,-12331,-29717,-6923,-21994,-16835,-27641,-20024,16,1,55324,2020-11-02 15:15:15,2020-11-02 15:15:45,3,DF:DC:EF:28:D6:3E,16,16,-18919.42225956732,12822.01863809696,25616.894706589293
18003,5136,24315,-23328,-13338,-3852,24070,30009,11528,15814,16,1,55349,2020-11-02 15:15:15,2020-11-02 15:15:45,3,DF:DC:EF:28:D6:3E,16,16,26285.462979391465,-20254.30369773865,7786.586073422103
18004,-13809,14093,-15130,999,7676,-5883,-204,19720,-4924,16,1,55375,2020-11-02 15:15:15,2020-11-02 15:15:45,3,DF:DC:EF:28:D6:3E,16,16,11535.660663609759,14093.0,16927.312664863446
18005,-4332,4613,-1810,12017,-7160,15367,20274,9991,-25148,16,1,55400,2020-11-02 15:15:15,2020-11-02 15:15:45,3,DF:DC:EF:28:D6:3E,16,16,3449.1616696081037,2602.4487345292473,4965.142229690239
18006,-17140,9211,7921,-23828,3602,25093,2352,-14076,-3643,16,1,55426,2020-11-02 15:15:15,2020-11-02 15:15:45,3,DF:DC:EF:28:D6:3E,16,16,-69.78813946820355,9211.0,-18881.656988082097
18007,-7163,-13322,-19469,-12305,8465,29948,-13267,21763,25032,16,1,55452,2020-11-02 15:15:15,2020-11-02 15:15:45,3,DF:DC:EF:28:D6:3E,16,16,-15702.04254832567,422.0319078759894,-19002.472546468915
18008,-9981,-31245,2292,15604,20750,31992,15916,13315,-1846,16,1,55477,2020-11-02 15:15:15,2020-11-02 15:15:45,3,DF:DC:EF:28:D6:3E,16,16,-22547.781550987635,10918.398205631001,21295.76901058554
18009,-5116,27378,-2315,15351,5136,-27144,13099,27139,-28979,16,1,55503,2020-11-02 15:15:15,2020-11-02 15:15:45,3,DF:DC:EF:28:D6:3E,16,16,4304.175802183041,-18193.70417783183,-20773.799940151694
18010,-32251,-11285,24057,23548,-24301,29175,-9942,-29949,-22832,16,1,55529,2020-11-02 15:15:15,2020-11-02 15:15:45,3,DF:DC:EF:28:D6:3E,16,16,-10301.11630095388,-15757.341221055503,37306.978912764396
18011,3588,13802,-5381,13571,-10734,23794,-23765,7940,6868,16,1,55554,2020-11-02 15:15:15,2020-11-02 15:15:45,3,DF:DC:EF:28:D6:3E,16,16,11560.168544195936,8843.773808894966,4524.85105245313
18012,27135,27885,29686,4094,-25838,7665,-21460,9989,-14121,16,-1,55580,2020-11-02 15:15:15,2020-11-02 15:15:45,3,DF:DC:EF:28:D6:3E,16,16,-15724.608240056523,21911.27168854483,-40838.375514796375
18013,-8451,3057,-17410,-14857,9741,-28940,-29140,-3579,-3878,16,-1,55605,2020-11-02 15:15:15,2020-11-02 15:15:45,3,DF:DC:EF:28:D6:3E,16,16,-8451.0,17562.026922846322,-2007.1271412695546
18014,-10240,23023,18946,9713,-29177,10231,26667,-15098,-6180,16,-1,55631,2020-11-02 15:15:15,2020-11-02 15:15:45,3,DF:DC:EF:28:D6:3E,16,16,16349.020698725171,-26777.016122101668,3093.2143135197566
18015,-5125,-12809,12304,11245,-18174,-24586,-7128,-6393,-291,16,-1,55656,2020-11-02 15:15:15,2020-11-02 15:15:45,3,DF:DC:EF:28:D6:3E,16,16,-17432.759502071982,3432.7267612113565,5102.9212345265905
18016,6632,12036,6931,-12033,-1785,7159,-14297,16905,9183,16,-1,55682,2020-11-02 15:15:15,2020-11-02 15:15:45,3,DF:DC:EF:28:D6:3E,16,16,-9373.634658236744,-12204.36110457352,-275.7250860476561
18017,-8214,-10739,-11256,-23273,-14844,-4097,23594,-15095,13024,16,-1,55708,2020-11-02 15:15:15,2020-11-02 15:15:45,3,DF:DC:EF:28:D6:3E,16,16,5800.068391088673,-9071.07032704923,-13912.884056888457
18018,-6403,-9468,23803,22045,-8184,-17653,-4050,18952,-20768,16,-1,55733,2020-11-02 15:15:15,2020-11-02 15:15:45,3,DF:DC:EF:28:D6:3E,16,16,-10937.072960836485,8004.666906898487,-22661.199984973075
18019,29174,26622,8684,14368,2051,-31239,-12237,16903,16097,16,-1,55759,2020-11-02 15:15:15,2020-11-02 15:15:45,3,DF:DC:EF:28:D6:3E,16,16,18473.53019620623,-32718.286066439032,-14950.165716958405
18020,-307,20495,12735,18466,25600,26085,15930,17929,10980,16,-1,55784,2020-11-02 15:15:15,2020-11-02 15:15:45,3,DF:DC:EF:28:D6:3E,16,16,18102.079912402212,-9025.423511497109,-13159.632680402578
18021,-32319,28695,-7489,-23793,26107,29192,29246,-17398,11749,16,-1,55810,2020-11-02 15:15:15,2020-11-02 15:15:45,3,DF:DC:EF:28:D6:3E,16,16,-15926.933794448309,32498.186240730356,24783.191440370716
18022,-16667,-13047,7909,-10485,3069,-6111,7742,-19191,-20000,16,-1,55836,2020-11-02 15:15:15,2020-11-02 15:15:45,3,DF:DC:EF:28:D6:3E,16,16,-19205.860078045,11105.323638562953,4286.26930387397
18023,31476,-32497,-6448,2835,1531,-31207,-17090,-10232,-14885,16,-1,55861,2020-11-02 15:15:15,2020-11-02 15:15:45,3,DF:DC:EF:28:D6:3E,16,16,11175.45421162852,6010.949980772417,43901.57164034616
18024,-2576,-31213,-1096,10761,2043,-24297,-31425,23560,-6185,16,-1,55887,2020-11-02 15:15:15,2020-11-02 15:15:45,3,DF:DC:EF:28:D6:3E,16,16,6709.7186572362725,-24891.621246205854,17817.83455631375
18025,-28929,-14320,19393,6137,-4616,-26344,-4803,-1529,-20781,16,-1,55913,2020-11-02 15:15:15,2020-11-02 15:15:45,3,DF:DC:EF:28:D6:3E,16,16,26618.654418736987,18259.153264482276,19393.0
18026,-16884,15118,21466,15086,-5640,28687,-26054,22279,20432,16,-1,55938,2020-11-02 15:15:15,2020-11-02 15:15:45,3,DF:DC:EF:28:D6:3E,16,16,-12498.86036441319,28173.088175554018,4946.526886954014
18027,-27642,-20214,-19223,32744,-13830,26628,-7882,20487,-16434,16,-1,55964,2020-11-02 15:15:15,2020-11-02 15:15:45,3,DF:DC:EF:28:D6:3E,16,16,-36416.45092333497,-14456.718250818436,-2656.141668810078
18028,20994,28157,16617,-20763,-5635,5128,-16590,6151,-19251,16,1,55990,2020-11-02 15:15:15,2020-11-02 15:15:45,3,DF:DC:EF:28:D6:3E,16,16,16338.422803479412,-1097.6552963012036,-35235.50009784516
18029,-500,-16403,-17674,-24089,-16898,-31222,-25298,-14587,-23348,16,1,56015,2020-11-02 15:15:15,2020-11-02 15:15:45,3,DF:DC:EF:28:D6:3E,16,16,-18884.950735630115,-15000.935466410572,-96.20730434269171
18030,-1522,8686,16618,5614,9483,-27384,-8149,20740,-8756,16,1,56041,2020-11-02 15:15:15,2020-11-02 15:15:45,3,DF:DC:EF:28:D6:3E,16,16,16657.26576047029,8624.847201329123,-1438.232296532572
18031,23056,-7954,3322,-18705,-25070,3587,-28631,30466,4559,16,1,56066,2020-11-02 15:15:15,2020-11-02 15:15:45,3,DF:DC:EF:28:D6:3E,16,16,14394.67477974557,2684.983470936232,19785.477950915312
18032,-9974,-18191,28922,11002,-492,17401,27688,4098,13010,16,1,56092,2020-11-02 15:15:15,2020-11-02 15:15:45,3,DF:DC:EF:28:D6:3E,16,16,-26564.211780399288,-23126.220395444736,-5137.686610470864
18033,32261,-14095,-15626,-15873,19734,-4109,-30424,-16126,-13099,16,1,56118,2020-11-02 15:15:15,2020-11-02 15:15:45,3,DF:DC:EF:28:D6:3E,16,16,8784.630414940164,-7204.4050718686285,36804.07366085094
18034,23298,30705,-26123,3841,-10987,6386,20521,-11005,-24359,16,1,56143,2020-11-02 15:15:15,2020-11-02 15:15:45,3,DF:DC:EF:28:D6:3E,16,16,28594.826190509466,7757.4471192655,35918.83749965125
18035,27904,-32015,-10506,-32002,23057,-6414,3882,-1020,10205,16,1,56169,2020-11-02 15:15:15,2020-11-02 15:15:45,3,DF:DC:EF:28:D6:3E,16,16,42016.28912156938,6182.6280377110525,-10506.0
18036,27138,-23565,-4869,6139,29964,32246,13354,-4347,-13089,16,1,56194,2020-11-02 15:15:15,2020-11-02 15:15:45,3,DF:DC:EF:28:D6:3E,16,16,1649.4279457417783,-30599.893281196997,-19401.374915999153
18037,-18685,-14858,-31489,28924,-498,9208,14890,32006,19170,16,1,56220,2020-11-02 15:15:15,2020-11-02 15:15:45,3,DF:DC:EF:28:D6:3E,16,16,-51.75064438308618,-35160.54256866498,-18032.750154868314
18038,8451,31994,-4608,-3841,23313,19191,-10966,-13818,12005,16,1,56245,2020-11-02 15:15:15,2020-11-02 15:15:45,3,DF:DC:EF:28:D6:3E,16,16,-21858.617497590432,15540.310295841264,19924.073328589293
18039,-5909,21505,10751,11270,-31214,-11285,-25812,-4857,-6680,16,1,56271,2020-11-02 15:15:15,2020-11-02 15:15:45,3,DF:DC:EF:28:D6:3E,16,16,-21867.403218787225,-7018.671456398974,9247.715093692304
18040,-23075,-22269,-17400,19974,-22274,-5397,-15314,-30966,-7957,16,1,56297,2020-11-02 15:15:15,2020-11-02 15:15:45,3,DF:DC:EF:28:D6:3E,16,16,5190.809559511445,-20215.56605822911,29925.079299180812
18041,32486,1032,-25595,-16633,-19712,8956,-7377,25868,14828,16,1,56322,2020-11-02 15:15:15,2020-11-02 15:15:45,3,DF:DC:EF:28:D6:3E,16,16,23284.679149369083,-463.3964301657579,34192.37086923699
18042,13798,-14857,19723,276,-26866,-14587,-30670,9995,22509,16,-1,56348,2020-11-02 15:15:15,2020-11-02 15:15:45,3,DF:DC:EF:28:D6:3E,16,16,3090.836343737922,22920.429989911496,-16285.349298488949
18043,15311,245,20963,8744,-14590,-16136,14392,-27126,-23570,16,-1,56373,2020-11-02 15:15:15,2020-11-02 15:15:45,3,DF:DC:EF:28:D6:3E,16,16,25249.87480209584,83.20998679684544,-6030.838546718264
18044,4791,-26123,10175,26652,27636,30210,-20419,8204,-15122,16,-1,56399,2020-11-02 15:15:15,2020-11-02 15:15:45,3,DF:DC:EF:28:D6:3E,16,16,25980.75072190887,-8826.788935244638,-7482.2338922727085
18045,21953,20734,10915,-2276,8695,21273,18496,4621,29419,16,-1,56425,2020-11-02 15:15:15,2020-11-02 15:15:45,3,DF:DC:EF:28:D6:3E,16,16,-14933.182335117755,-27310.78963070395,-7879.785853280575
18046,28640,5392,19604,-28655,-1288,-8402,17728,-27892,21476,16,-1,56450,2020-11-02 15:15:15,2020-11-02 15:15:45,3,DF:DC:EF:28:D6:3E,16,16,33647.51406244557,3390.145617783376,-9486.400271322722
18047,-1003,-9446,18856,-17156,3060,2348,-15556,17419,-14373,16,-1,56476,2020-11-02 15:15:15,2020-11-02 15:15:45,3,DF:DC:EF:28:D6:3E,16,16,18708.115812079075,-9769.132845753285,-593.3862181255336
18048,-7129,-7394,9684,19182,-12043,-25588,-27592,22794,-810,16,-1,56501,2020-11-02 15:15:15,2020-11-02 15:15:45,3,DF:DC:EF:28:D6:3E,16,16,5374.704101308434,-2495.83443189643,12812.380704300762
18049,-23791,-10212,-31513,-28438,24315,-26112,-5836,-17398,-10539,16,-1,56527,2020-11-02 15:15:15,2020-11-02 15:15:45,3,DF:DC:EF:28:D6:3E,16,16,-13587.669106497859,-38129.0488005354,4991.661028026039
18050,12559,-9206,-16655,18410,17155,-4856,21553,-8183,16085,16,-1,56553,2020-11-02 15:15:15,2020-11-02 15:15:45,3,DF:DC:EF:28:D6:3E,16,16,-7929.343028392737,-10222.577879246235,18774.77996251421
18051,-10480,16114,-4105,-22292,11784,-30969,19246,5384,24533,16,-1,56578,2020-11-02 15:15:15,2020-11-02 15:15:45,3,DF:DC:EF:28:D6:3E,16,16,-4784.473709578576,17980.042090002804,6337.927008421529
18052,18701,-11040,1535,-7687,-15346,5890,-9684,-18170,-13354,16,-1,56604,2020-11-02 15:15:15,2020-11-02 15:15:45,3,DF:DC:EF:28:D6:3E,16,16,4049.345839790886,20077.863181369532,-7378.850475512704
18053,13067,5600,-12299,20487,12057,6657,9774,4869,-15655,16,-1,56629,2020-11-02 15:15:15,2020-11-02 15:15:45,3,DF:DC:EF:28:D6:3E,16,16,6724.011954648794,-17447.730341893646,-1932.94054494803
18054,-13304,-10264,-18448,-7932,-1254,-22273,3888,-10750,26333,16,-1,56655,2020-11-02 15:15:15,2020-11-02 15:15:45,3,DF:DC:EF:28:D6:3E,16,16,-13216.120045992797,400.8413186337675,-21162.4269205397
18055,-3067,1262,-11528,-8960,-5357,-32261,-12752,11521,-28960,16,-1,56681,2020-11-02 15:15:15,2020-11-02 15:15:45,3,DF:DC:EF:28:D6:3E,16,16,11858.865844417536,1283.9084752233002,1269.9594132715274
18056,-8959,-16142,-22018,-7681,28177,-3079,-1488,22272,19939,16,-1,56706,2020-11-02 15:15:15,2020-11-02 15:15:45,3,DF:DC:EF:28:D6:3E,16,16,-3426.538409275962,16793.615290040358,23061.948942356958
18057,14078,-10507,24068,27137,12309,18942,6705,5631,2278,16,-1,56732,2020-11-02 15:15:15,2020-11-02 15:15:45,3,DF:DC:EF:28:D6:3E,16,16,14078.0,-25929.479990112995,4162.660260257819
18058,5115,-29961,31753,-25339,24601,27395,26673,-11524,-10008,16,-1,56758,2020-11-02 15:15:15,2020-11-02 15:15:45,3,DF:DC:EF:28:D6:3E,16,16,34607.309983122235,26824.832668203417,3852.2984119840785
18059,-27396,29943,4618,14859,27416,13575,14642,-16647,29931,16,1,56783,2020-11-02 15:15:15,2020-11-02 15:15:45,3,DF:DC:EF:28:D6:3E,16,16,-19268.628225541837,6406.687934634474,-35441.8439843931
18060,-4610,22262,-24829,-4336,-26607,-15612,-9421,1271,17901,16,1,56809,2020-11-02 15:15:15,2020-11-02 15:15:45,3,DF:DC:EF:28:D6:3E,16,16,5814.84815550075,8125.396664732605,-32147.993016193435
18061,2557,13045,-19974,-29421,30474,29696,11830,18165,-22802,16,1,56834,2020-11-02 15:15:15,2020-11-02 15:15:45,3,DF:DC:EF:28:D6:3E,16,16,1484.6030934087178,-12650.766711018641,-20332.855315435256
18062,-29196,5882,-1808,-16876,10754,25083,-6344,-6668,-28689,16,1,56860,2020-11-02 15:15:15,2020-11-02 15:15:45,3,DF:DC:EF:28:D6:3E,16,16,-4648.712726001753,-9874.720706041873,-27769.633864507057
18063,-22294,3336,18135,17682,-2058,-4871,-10693,2806,3568,16,1,56886,2020-11-02 15:15:15,2020-11-02 15:15:45,3,DF:DC:EF:28:D6:3E,16,16,-22294.0,17062.52480186732,6991.235111599572
18064,-16412,1300,715,1547,-9233,-4609,1854,-23304,-25617,16,1,56911,2020-11-02 15:15:15,2020-11-02 15:15:45,3,DF:DC:EF:28:D6:3E,16,16,-8349.565539634683,7678.453326755355,11953.287364076234
18065,3090,19219,-28242,-1263,246,11028,-5568,11002,2541,16,1,56937,2020-11-02 15:15:15,2020-11-02 15:15:45,3,DF:DC:EF:28:D6:3E,16,16,-22095.289427812062,19219.0,-17859.363065384405
18066,-25291,30756,9367,-1519,-1284,-5377,32068,24570,3819,16,1,56962,2020-11-02 15:15:15,2020-11-02 15:15:45,3,DF:DC:EF:28:D6:3E,16,16,36840.55841044641,17706.557856876603,-1599.3657704127022
18067,20485,6175,-18010,-23557,-21521,-25366,22340,5628,-25619,16,1,56988,2020-11-02 15:15:15,2020-11-02 15:15:45,3,DF:DC:EF:28:D6:3E,16,16,-10686.869320271308,17837.67379930333,18701.1809135437
18068,25073,13584,24770,-17676,-7188,-24591,-23230,16895,-13073,16,1,57014,2020-11-02 15:15:15,2020-11-02 15:15:45,3,DF:DC:EF:28:D6:3E,16,16,-18540.846183123707,25870.553572942852,-20339.242012504816
18069,7159,11265,29387,17906,30719,25353,25664,6145,-11537,16,1,57065,2020-11-02 15:15:15,2020-11-02 15:15:45,3,DF:DC:EF:28:D6:3E,16,16,21629.592875838927,11512.459506968291,-21008.83773857739
18070,29965,-13319,-17176,-23828,16382,11269,-8387,16896,27630,16,-1,57067,2020-11-02 15:15:15,2020-11-02 15:15:45,3,DF:DC:EF:28:D6:3E,16,16,-9378.997465829743,22261.891490757396,-28049.14536647601
18071,-5113,-30210,-13066,-6679,-29459,9729,-24518,-3583,28909,16,-1,57090,2020-11-02 15:15:15,2020-11-02 15:15:45,3,DF:DC:EF:28:D6:3E,16,16,26967.313155955686,13309.295971648015,-14322.495833048557
18072,-17645,19965,10996,-1556,-28425,-16887,19255,6147,29931,16,-1,57116,2020-11-02 15:15:15,2020-11-02 15:15:45,3,DF:DC:EF:28:D6:3E,16,16,-25071.57555579245,9605.744934935636,10488.32824596698
18073,7197,27389,-7687,2293,-20988,-2811,2613,-4607,31210,16,-1,57142,2020-11-02 15:15:15,2020-11-02 15:15:45,3,DF:DC:EF:28:D6:3E,16,16,28305.493707527537,867.8455929016964,-7687.0
18074,-30193,-8711,-3073,31216,-21760,18683,10035,-28159,-6422,16,-1,57167,2020-11-02 15:15:15,2020-11-02 15:15:45,3,DF:DC:EF:28:D6:3E,16,16,5202.3853564819565,-12027.321202952033,28726.657137294667
18075,21764,-2060,3599,-5905,-23809,11258,-24784,20994,25835,16,-1,57193,2020-11-02 15:15:15,2020-11-02 15:15:45,3,DF:DC:EF:28:D6:3E,16,16,13402.04888074203,17624.176216388587,800.9965617180299
18076,-25084,3573,-15856,28407,29957,25598,-11218,32514,2028,16,-1,57218,2020-11-02 15:15:15,2020-11-02 15:15:45,3,DF:DC:EF:28:D6:3E,16,16,3982.8325381364957,-11411.863796247144,-27336.651782342782
18077,7173,19702,17929,-4868,-16120,9726,10542,5890,11757,16,-1,57244,2020-11-02 15:15:15,2020-11-02 15:15:45,3,DF:DC:EF:28:D6:3E,16,16,-6771.608799928266,25469.624619988914,8155.569261405894
18078,5636,29430,19461,-4610,-4344,20991,-7123,-25599,31470,16,-1,57295,2020-11-02 15:15:15,2020-11-02 15:15:45,3,DF:DC:EF:28:D6:3E,16,16,26847.10555423479,23029.58522997559,5048.865664192833
18079,-10491,-5130,17925,3840,-15347,28419,-6611,30464,-529,16,-1,57297,2020-11-02 15:15:15,2020-11-02 15:15:45,3,DF:DC:EF:28:D6:3E,16,16,-16402.436427273242,12311.616573577987,-6088.331675792611
18080,-31485,-8203,-24570,12549,-4341,-17662,18478,6655,-32271,16,-1,57321,2020-11-02 15:15:15,2020-11-02 15:15:45,3,DF:DC:EF:28:D6:3E,16,16,-10408.033357226777,5667.696620437886,39010.63176434767
18081,-2816,6390,4356,25862,12812,-26877,11823,-18947,-4110,16,-1,57346,2020-11-02 15:15:15,2020-11-02 15:15:45,3,DF:DC:EF:28:D6:3E,16,16,2223.6669510378724,-6620.07787678891,-4355.062134586828
18082,14848,9969,-29690,-16889,23559,12547,9776,31228,-9741,16,-1,57372,2020-11-02 15:15:15,2020-11-02 15:15:45,3,DF:DC:EF:28:D6:3E,16,16,31795.809654875957,6689.395776843316,12067.254763683737
18083,-11010,-15378,3081,-15859,-2557,22784,-17359,-10245,21748,16,-1,57398,2020-11-02 15:15:15,2020-11-02 15:15:45,3,DF:DC:EF:28:D6:3E,16,16,2946.3095714700185,-16237.172143451555,-9740.074213936201
18084,-23303,-19478,3590,25620,-25085,1536,24628,29691,-11020,16,1,57423,2020-11-02 15:15:15,2020-11-02 15:15:45,3,DF:DC:EF:28:D6:3E,16,16,3006.3862923240845,23910.326554065847,-18829.984560250166
18085,-27149,21222,5888,-6631,12032,9983,5944,19195,1525,16,1,57449,2020-11-02 15:15:15,2020-11-02 15:15:45,3,DF:DC:EF:28:D6:3E,16,16,29846.329746975818,6511.714376584768,-16997.182281559664
18086,-9006,238,2554,-10462,-16133,-17414,-13252,4604,20981,16,1,57474,2020-11-02 15:15:15,2020-11-02 15:15:45,3,DF:DC:EF:28:D6:3E,16,16,8602.11993211931,-3471.979764463243,-1279.2518081259138
18087,-8254,-19732,-16690,-18649,28147,-21232,14147,-13827,10740,16,1,57526,2020-11-02 15:15:15,2020-11-02 15:15:45,3,DF:DC:EF:28:D6:3E,16,16,-12421.439773911352,23940.860760162162,-2929.071526204315
18088,27861,-24616,-29791,-16609,29167,-13012,10172,30464,-17170,16,1,57528,2020-11-02 15:15:15,2020-11-02 15:15:45,3,DF:DC:EF:28:D6:3E,16,16,-7277.149423386429,-44179.775449020985,16275.042105745506
18089,27100,25311,24451,-32491,-6934,-15574,-12865,-16380,-24088,16,1,57551,2020-11-02 15:15:15,2020-11-02 15:15:45,3,DF:DC:EF:28:D6:3E,16,16,-21210.12511997061,6657.659731104658,38454.05415947737
18090,23006,-19743,-4967,-17665,-1554,-20690,-2626,25609,32482,16,1,57577,2020-11-02 15:15:15,2020-11-02 15:15:45,3,DF:DC:EF:28:D6:3E,16,16,-22131.379000060064,5215.064364366564,20657.646071883755
18091,-16409,23008,29879,-24576,19193,19508,-838,17164,25050,16,1,57603,2020-11-02 15:15:15,2020-11-02 15:15:45,3,DF:DC:EF:28:D6:3E,16,16,-4809.705327732208,-40768.38837425738,2486.6101475905416
18092,-7947,-28452,-1591,-5622,-13044,-6596,-16317,6155,23504,16,1,57628,2020-11-02 15:15:15,2020-11-02 15:15:45,3,DF:DC:EF:28:D6:3E,16,16,-3921.5249523448247,-20441.318526222498,21023.23792753271
18093,-5880,1497,27861,-1016,-28648,7228,-6079,22022,-1594,16,1,57654,2020-11-02 15:15:15,2020-11-02 15:15:45,3,DF:DC:EF:28:D6:3E,16,16,7767.720180457805,24253.05565961741,-12825.854527851487
18094,-26338,27620,25310,-25600,-1259,-16090,-13759,3585,14528,16,-1,57679,2020-11-02 15:15:15,2020-11-02 15:15:45,3,DF:DC:EF:28:D6:3E,16,16,485.0578191521163,-28743.229609983115,-35647.47136193351
18095,20510,17380,26601,-16900,-28651,15885,-8895,-15876,28605,16,-1,57705,2020-11-02 15:15:15,2020-11-02 15:15:45,3,DF:DC:EF:28:D6:3E,16,16,29476.03642013667,-14483.252840146155,18754.63583030007
18096,-11756,22764,-14608,28661,28171,18166,-21952,-32262,13246,16,-1,57731,2020-11-02 15:15:15,2020-11-02 15:15:45,3,DF:DC:EF:28:D6:3E,16,16,19265.24464178131,17012.824004995302,14464.130263080875
18097,-7152,27119,-14602,-29193,-9713,15345,31806,16889,-4928,16,-1,57756,2020-11-02 15:15:15,2020-11-02 15:15:45,3,DF:DC:EF:28:D6:3E,16,16,-24436.400678837406,-6309.577451053914,19048.916589991848
18098,-15600,9967,14333,-13572,13587,-13844,-27332,23543,-31036,16,-1,57782,2020-11-02 15:15:15,2020-11-02 15:15:45,3,DF:DC:EF:28:D6:3E,16,16,19933.330694329958,6177.906795799742,-10612.811741140731
18099,10507,22257,21751,-12290,-15603,-32543,32058,3063,-32055,16,-1,57807,2020-11-02 15:15:15,2020-11-02 15:15:45,3,DF:DC:EF:28:D6:3E,16,16,-23074.52276434119,17782.811434035633,-15172.84138516684
18100,-28927,751,-11537,-3845,-4594,24795,-1481,248,-32305,16,-1,57833,2020-11-02 15:15:15,2020-11-02 15:15:45,3,DF:DC:EF:28:D6:3E,16,16,-8925.648169166763,-27525.772191897722,-11537.0
18101,-27147,1516,7406,-9228,12300,-5157,5429,8186,29909,16,-1,57859,2020-11-02 15:15:15,2020-11-02 15:15:45,3,DF:DC:EF:28:D6:3E,16,16,-939.1464473725532,8519.183908503277,26844.89170183941
18102,-27915,-27922,-7178,-7953,-29944,-18202,5682,-27140,-22311,16,-1,57884,2020-11-02 15:15:15,2020-11-02 15:15:45,3,DF:DC:EF:28:D6:3E,16,16,-16626.24874692157,25834.239886316285,25817.995567079823
18103,-18440,26606,-17413,22515,6667,17649,-22481,9982,-31012,16,-1,57910,2020-11-02 15:15:15,2020-11-02 15:15:45,3,DF:DC:EF:28:D6:3E,16,16,28006.594054833644,-6842.153358975695,22802.21550332367
18104,-22533,-30482,-28930,-5383,1044,-25606,10286,7678,23519,16,-1,57935,2020-11-02 15:15:15,2020-11-02 15:15:45,3,DF:DC:EF:28:D6:3E,16,16,36622.409956512434,30355.48715375414,-3343.1723909194716
18105,-16644,9967,28673,-10495,2076,-26113,-27603,-23556,-542,16,-1,57961,2020-11-02 15:15:15,2020-11-02 15:15:45,3,DF:DC:EF:28:D6:3E,16,16,2403.9093414230683,-28214.663917111844,19916.292675160348
18106,8447,-31506,-7165,-32504,-8167,9984,-10963,-17414,-17946,16,-1,57987,2020-11-02 15:15:15,2020-11-02 15:15:45,3,DF:DC:EF:28:D6:3E,16,16,8188.69436015352,24452.19812479531,-21221.50705161503
18107,6914,746,-3576,15627,-30186,-9986,-30674,3065,6378,16,-1,58012,2020-11-02 15:15:15,2020-11-02 15:15:45,3,DF:DC:EF:28:D6:3E,16,16,672.0855262156679,7785.022607690511,-299.01846631779574
18108,-22269,-25879,11272,15628,-26348,31740,20271,-18185,16621,16,-1,58038,2020-11-02 15:15:15,2020-11-02 15:15:45,3,DF:DC:EF:28:D6:3E,16,16,-31894.037808945526,11947.358445243972,11520.41511502128
18109,-12540,-3091,1544,-14320,26644,13308,18224,26870,31216,16,-1,58064,2020-11-02 15:15:15,2020-11-02 15:15:45,3,DF:DC:EF:28:D6:3E,16,16,5472.309534797708,-8479.639021720623,-8206.056751977469
18110,14335,19190,30720,17692,17680,-15369,-32718,29941,-25869,16,-1,58089,2020-11-02 15:15:15,2020-11-02 15:15:45,3,DF:DC:EF:28:D6:3E,16,16,32512.53539491004,-903.9964870494041,21437.92334966528
18111,6896,-26124,-27673,-1763,29700,18423,17206,-30475,-7435,16,-1,58115,2020-11-02 15:15:15,2020-11-02 15:15:45,3,DF:DC:EF:28:D6:3E,16,16,38389.70124783424,-4693.745933936812,112.73069540285542
18112,-29970,25070,-23083,32031,4609,18440,-11718,-19467,-12555,16,-1,58140,2020-11-02 15:15:15,2020-11-02 15:15:45,3,DF:DC:EF:28:D6:3E,16,16,-41693.76940655163,-15595.273039283236,8828.801759214242
18113,-32752,3315,-18031,24882,20478,-3560,-30909,-13068,29426,16,-1,58166,2020-11-02 15:15:15,2020-11-02 15:15:45,3,DF:DC:EF:28:D6:3E,16,16,21847.405791786307,-9586.417049059995,-28975.699445061095
18114,28450,-13304,22159,30481,31228,2566,19133,32757,-22033,16,-1,58191,2020-11-02 15:15:15,2020-11-02 15:15:45,3,DF:DC:EF:28:D6:3E,16,16,-29180.00987961686,-14304.820687229734,20526.06454076539
18115,12034,-30717,30139,31997,-11785,28397,-18756,28918,-24335,16,-1,58217,2020-11-02 15:15:15,2020-11-02 15:15:45,3,DF:DC:EF:28:D6:3E,16,16,-44449.072796621374,-1566.0616912820842,4305.5713093331215
18116,-5164,20724,9695,-6909,7923,19701,31419,1528,-18444,16,-1,58243,2020-11-02 15:15:15,2020-11-02 15:15:45,3,DF:DC:EF:28:D6:3E,16,16,7253.871843463487,-14294.774526049523,-17122.6417800529
18117,-16923,-14104,9432,7698,-21769,-13285,3262,29178,-7694,16,-1,58268,2020-11-02 15:15:15,2020-11-02 15:15:45,3,DF:DC:EF:28:D6:3E,16,16,-19348.586209663517,4029.732741909499,-13552.373766835142
18118,24319,-6943,15813,17936,-19217,19745,-15423,-26883,14830,16,-1,58294,2020-11-02 15:15:15,2020-11-02 15:15:45,3,DF:DC:EF:28:D6:3E,16,16,-9002.543252284522,-21824.119480776717,-18229.97539437529
18119,-12535,-28954,-590,-10237,-30494,14357,15555,-16894,13548,16,-1,58320,2020-11-02 15:15:15,2020-11-02 15:15:45,3,DF:DC:EF:28:D6:3E,16,16,-23484.407110757675,21071.192182743496,-543.9886525322756
18120,-32242,28652,17594,29177,28912,18709,24258,2823,-20758,16,1,58345,2020-11-02 15:15:15,2020-11-02 15:15:45,3,DF:DC:EF:28:D6:3E,16,16,31155.453507015038,9908.83446717114,-33184.11096103715
18121,22028,19185,7884,-29709,-4099,-4588,-18241,-18168,-18969,16,1,58371,2020-11-02 15:15:15,2020-11-02 15:15:45,3,DF:DC:EF:28:D6:3E,16,16,17597.355037165187,20569.605182201016,13515.875973991693
18122,-7151,8186,26331,-23825,-26628,-12784,18876,28937,-17692,16,1,58396,2020-11-02 15:15:15,2020-11-02 15:15:45,3,DF:DC:EF:28:D6:3E,16,16,-23309.78205774257,8616.664173542778,-13923.94042435282
18123,-7658,32258,-11028,1004,-5640,776,17221,11018,-15134,16,1,58422,2020-11-02 15:15:15,2020-11-02 15:15:45,3,DF:DC:EF:28:D6:3E,16,16,-31318.7728263816,4567.683320285796,14802.400134271615
18124,-20714,-1792,-2057,-23833,26101,-28674,-29375,22795,13026,16,1,58448,2020-11-02 15:15:15,2020-11-02 15:15:45,3,DF:DC:EF:28:D6:3E,16,16,-9729.997515362667,17741.999839211025,5202.009136523346
18125,-20202,-21004,10752,9444,-24844,24825,-23491,7949,29410,16,1,58473,2020-11-02 15:15:15,2020-11-02 15:15:45,3,DF:DC:EF:28:D6:3E,16,16,-3205.7060676341553,30550.49277931062,4613.584674547881
18126,-239,-23051,4099,16103,2055,26873,11834,-5619,-31261,16,1,58499,2020-11-02 15:15:15,2020-11-02 15:15:45,3,DF:DC:EF:28:D6:3E,16,16,-5692.260666693898,1434.6066079347263,-22666.000868765528
18127,-29172,-17926,16644,27377,18460,21766,-27592,12299,-26139,16,1,58524,2020-11-02 15:15:15,2020-11-02 15:15:45,3,DF:DC:EF:28:D6:3E,16,16,7259.558702482413,-7060.494142773853,36699.01941339942
18128,9487,-24840,16387,-2577,-30679,23826,7735,17669,25319,16,1,58550,2020-11-02 15:15:15,2020-11-02 15:15:45,3,DF:DC:EF:28:D6:3E,16,16,-13342.406411171065,26180.516866079135,10588.82740364046
18129,-16630,-6416,-13814,28392,4912,18959,4916,21246,8938,16,1,58576,2020-11-02 15:15:15,2020-11-02 15:15:45,3,DF:DC:EF:28:D6:3E,16,16,13240.902999904763,8746.650968817126,16022.582082074145
18130,17923,-29718,18958,31981,9525,-16120,-27089,8184,23535,16,-1,58601,2020-11-02 15:15:15,2020-11-02 15:15:45,3,DF:DC:EF:28:D6:3E,16,16,16699.010403334236,11566.445509940671,-33928.74307743964
18131,-15627,5354,15894,18430,7217,-23288,-12502,-29453,-2314,16,-1,58627,2020-11-02 15:15:15,2020-11-02 15:15:45,3,DF:DC:EF:28:D6:3E,16,16,-15443.748424580239,12224.323139093985,11727.925621749431
18132,-12296,-7191,-23029,-3058,-20193,31759,20008,-2321,26365,16,-1,58652,2020-11-02 15:15:15,2020-11-02 15:15:45,3,DF:DC:EF:28:D6:3E,16,16,15884.402810426456,2528.0855224430093,21783.74322625315
18133,-10755,2279,-1028,20243,4365,15631,-20440,-11028,-9728,16,-1,58678,2020-11-02 15:15:15,2020-11-02 15:15:45,3,DF:DC:EF:28:D6:3E,16,16,-5476.745467961013,4085.228048180971,-8673.916120964279
18134,-9215,234,16884,14359,4602,25868,-29652,-20758,9216,16,-1,58704,2020-11-02 15:15:15,2020-11-02 15:15:45,3,DF:DC:EF:28:D6:3E,16,16,18114.737244871998,-1630.7069273369707,-6263.986467608508
18135,29184,3562,2530,-1252,19695,-29946,-30156,-19734,-27397,16,-1,58729,2020-11-02 15:15:15,2020-11-02 15:15:45,3,DF:DC:EF:28:D6:3E,16,16,20337.68793936957,-21381.589026395948,26.45726980635186
18136,24565,4844,-23083,-4066,-14096,-7931,17980,23532,-9737,16,-1,58755,2020-11-02 15:15:15,2020-11-02 15:15:45,3,DF:DC:EF:28:D6:3E,16,16,-19593.47665833665,27668.38384669561,3206.970182451054
18137,-24088,-31255,-31046,27935,-19732,1045,24644,-25362,-24589,16,-1,58780,2020-11-02 15:15:15,2020-11-02 15:15:45,3,DF:DC:EF:28:D6:3E,16,16,-29710.801550066768,39090.5178821571,-10495.740467318417
18138,-3088,6625,-3937,-10219,-19991,20012,-11073,2291,17389,16,-1,58806,2020-11-02 15:15:15,2020-11-02 15:15:45,3,DF:DC:EF:28:D6:3E,16,16,3019.4697887765874,-699.7417783419824,-7701.91545255518
18139,27396,-18987,27034,-11257,-32017,18489,3781,9721,5606,16,-1,58832,2020-11-02 15:15:15,2020-11-02 15:15:45,3,DF:DC:EF:28:D6:3E,16,16,37550.44857486023,-18987.0,-8446.406562957842
18140,25358,28106,7314,14838,7915,9011,31173,-16129,21472,16,-1,58857,2020-11-02 15:15:15,2020-11-02 15:15:45,3,DF:DC:EF:28:D6:3E,16,16,-14061.859067369125,-13133.202432582893,33410.374278571726
18141,25115,-31021,25008,-7184,11509,5428,26306,-21499,-29478,16,-1,58883,2020-11-02 15:15:15,2020-11-02 15:15:45,3,DF:DC:EF:28:D6:3E,16,16,-44930.82773461394,-13686.934772846693,-3514.8635259831863
18142,6689,-25633,976,16886,1558,-13518,20670,12294,14546,16,-1,58908,2020-11-02 15:15:15,2020-11-02 15:15:45,3,DF:DC:EF:28:D6:3E,16,16,-20056.711034034783,-16823.93854474388,-4174.85572683757
18143,-489,-16154,-18472,-25614,27680,-26851,29115,20482,-27701,16,-1,58934,2020-11-02 15:15:15,2020-11-02 15:15:45,3,DF:DC:EF:28:D6:3E,16,16,15611.335436925016,16034.472298450568,-10079.063695901048
18144,-12273,11225,-8221,-7708,-25068,26118,-4284,5118,13001,16,-1,58960,2020-11-02 15:15:15,2020-11-02 15:15:45,3,DF:DC:EF:28:D6:3E,16,16,-5099.493491175198,-15831.055559673265,-8221.0
18145,-30700,-803,-16907,-14885,2809,19695,-7361,-16387,15306,16,-1,58985,2020-11-02 15:15:15,2020-11-02 15:15:45,3,DF:DC:EF:28:D6:3E,16,16,4813.318970119939,24712.128591593733,-24395.165893357214
18146,-12266,-3611,3,5612,-1790,-9494,-12997,-4866,4557,16,-1,59011,2020-11-02 15:15:15,2020-11-02 15:15:45,3,DF:DC:EF:28:D6:3E,16,16,-12266.0,1505.4341190522084,3282.224567757895
18147,-9971,-30481,16900,23799,-31986,-15131,-16071,25087,5073,16,-1,59036,2020-11-02 15:15:15,2020-11-02 15:15:45,3,DF:DC:EF:28:D6:3E,16,16,-9135.778275564466,28051.698238147466,-21065.658861180644
18148,24837,-18188,-9989,13314,-22511,4839,29497,14335,-11307,16,-1,59062,2020-11-02 15:15:15,2020-11-02 15:15:45,3,DF:DC:EF:28:D6:3E,16,16,-10809.472257649082,-10442.459863005999,-28663.048957161267
18149,-11517,24569,22775,-16637,30223,-6164,-3527,-11778,-2855,16,-1,59088,2020-11-02 15:15:15,2020-11-02 15:15:45,3,DF:DC:EF:28:D6:3E,16,16,-15916.485779441462,24569.0,-19950.122667112544
18150,11269,-6151,-12299,17664,-24051,-24080,4154,17918,14301,16,-1,59113,2020-11-02 15:15:15,2020-11-02 15:15:45,3,DF:DC:EF:28:D6:3E,16,16,10957.99540477616,-9162.816318318088,10585.636344862234
18151,-26874,28152,-4621,-25093,-26353,-16658,29241,-22019,-32288,16,-1,59139,2020-11-02 15:15:15,2020-11-02 15:15:45,3,DF:DC:EF:28:D6:3E,16,16,5271.500969547389,30351.0282891329,24230.703256825116
18152,17669,-25354,-523,4344,-18670,6893,3640,-2052,23524,16,-1,59164,2020-11-02 15:15:15,2020-11-02 15:15:45,3,DF:DC:EF:28:D6:3E,16,16,-30737.19960307637,3200.537073780233,-523.0
18153,-9726,-21260,-17161,26359,25106,6891,14902,-21252,-29208,16,-1,59190,2020-11-02 15:15:15,2020-11-02 15:15:45,3,DF:DC:EF:28:D6:3E,16,16,-20228.096010938203,17818.810016528605,10695.641091918045
18154,-21503,-16397,19449,-32007,-12271,-29973,-28364,-8964,-15124,16,1,59216,2020-11-02 15:15:15,2020-11-02 15:15:45,3,DF:DC:EF:28:D6:3E,16,16,-7600.599337132402,-6992.599448282893,-31667.627976725005
18155,16384,31474,11258,12541,17170,7406,28723,6909,-14096,16,1,59241,2020-11-02 15:15:15,2020-11-02 15:15:45,3,DF:DC:EF:28:D6:3E,16,16,23701.14988566573,4392.299385439139,-28368.1845771963
18156,28671,11506,-1284,13058,2067,16115,4915,-3332,30452,16,1,59267,2020-11-02 15:15:15,2020-11-02 15:15:45,3,DF:DC:EF:28:D6:3E,16,16,19166.26122369023,-24229.50077292696,-1284.0
18157,14849,-31508,-12548,-30202,-29165,-17672,29747,14076,31991,16,1,59293,2020-11-02 15:15:15,2020-11-02 15:15:45,3,DF:DC:EF:28:D6:3E,16,16,-14986.63995124806,-23264.141049973485,-24594.298794204195
18158,-17912,22005,-23814,15880,-1260,16379,13364,-16134,13562,16,1,59318,2020-11-02 15:15:15,2020-11-02 15:15:45,3,DF:DC:EF:28:D6:3E,16,16,-3143.716234473357,-23160.39401260314,-28738.120370304063
18159,7179,31730,16381,-26615,-10729,-32012,-20428,8697,-21251,16,1,59344,2020-11-02 15:15:15,2020-11-02 15:15:45,3,DF:DC:EF:28:D6:3E,16,16,9293.091993065951,30719.643215983055,-17222.371029887832
18160,-2816,29419,-6404,-13043,-3054,24812,10805,32248,5890,16,1,59369,2020-11-02 15:15:15,2020-11-02 15:15:45,3,DF:DC:EF:28:D6:3E,16,16,-29374.60528542887,-6355.5981115256445,3340.294892674286
18161,1287,-23831,23007,-21222,21999,-19468,-9161,7674,-2557,16,1,59395,2020-11-02 15:15:15,2020-11-02 15:15:45,3,DF:DC:EF:28:D6:3E,16,16,28029.569648019,6483.778696331636,16468.1151976736
18162,17157,-11025,11443,7206,-17151,-2327,19773,-2052,-11004,16,1,59421,2020-11-02 15:15:15,2020-11-02 15:15:45,3,DF:DC:EF:28:D6:3E,16,16,17095.50463107452,-9412.397540551121,-12884.332227458934
18163,-15393,-29721,-22095,18973,11537,31716,13122,-17413,-23799,16,1,59446,2020-11-02 15:15:15,2020-11-02 15:15:45,3,DF:DC:EF:28:D6:3E,16,16,-36170.79036218964,-7779.594581902946,15479.765751320514
18164,15834,13809,-14130,1040,-12039,16632,-15548,17660,12044,16,1,59472,2020-11-02 15:15:15,2020-11-02 15:15:45,3,DF:DC:EF:28:D6:3E,16,16,23823.74054716563,-7372.209519671433,4375.025730141723
18165,-13337,-31515,26315,26903,-13316,22025,31163,31229,-20213,16,1,59497,2020-11-02 15:15:15,2020-11-02 15:15:45,3,DF:DC:EF:28:D6:3E,16,16,41820.304054821354,-10497.854178988682,-2099.344040166455
18166,-28180,19938,9426,31511,-5882,3351,-31553,-27395,-5880,16,1,59523,2020-11-02 15:15:15,2020-11-02 15:15:45,3,DF:DC:EF:28:D6:3E,16,16,16016.49558637859,-31205.8262389964,7081.948734146485
18167,-11537,-25123,-23598,-28907,5890,-26076,-31293,-19202,12036,16,1,59549,2020-11-02 15:15:15,2020-11-02 15:15:45,3,DF:DC:EF:28:D6:3E,16,16,-20657.089916944038,7884.689900085625,28848.733132371286
18168,-27662,20446,-7989,-31725,255,-29906,-28730,6146,-30210,16,1,59574,2020-11-02 15:15:15,2020-11-02 15:15:45,3,DF:DC:EF:28:D6:3E,16,16,-13008.326829257716,3478.090332438193,32645.606162891414
18169,-31757,-17962,-20539,12303,-29948,-196,-14649,-15354,-29449,16,-1,59600,2020-11-02 15:15:15,2020-11-02 15:15:45,3,DF:DC:EF:28:D6:3E,16,16,8072.499849733007,-12198.715534601912,-39230.30842960481
18170,-29703,20686,21718,19716,-9454,-1454,-32060,13835,-1557,16,-1,59625,2020-11-02 15:15:15,2020-11-02 15:15:45,3,DF:DC:EF:28:D6:3E,16,16,35999.70820293621,-14958.081428641744,16190.340894421292
18171,25347,22484,-19729,15865,28701,8280,25532,17931,8156,16,-1,59651,2020-11-02 15:15:15,2020-11-02 15:15:45,3,DF:DC:EF:28:D6:3E,16,16,11058.519328683391,-37612.38149585608,502.01042550774946
18172,-12531,-15402,-25356,-31761,9238,-434,-10175,-20730,-29490,16,-1,59677,2020-11-02 15:15:15,2020-11-02 15:15:45,3,DF:DC:EF:28:D6:3E,16,16,31988.451210279076,3583.2339336457353,-1036.2069022955839
18173,-13282,-27928,7167,13038,13075,3638,-21955,-14336,-12859,16,-1,59702,2020-11-02 15:15:15,2020-11-02 15:15:45,3,DF:DC:EF:28:D6:3E,16,16,22566.73002584945,-19560.51874859182,-10764.729407951352
18174,-12000,30960,-25347,13561,10267,-30444,16444,12027,-29246,16,-1,59728,2020-11-02 15:15:15,2020-11-02 15:15:45,3,DF:DC:EF:28:D6:3E,16,16,1651.9800625553034,41416.09352092461,-5193.281076443566
18175,22290,-31250,22765,15870,-13534,760,12091,28918,32196,16,-1,59753,2020-11-02 15:15:15,2020-11-02 15:15:45,3,DF:DC:EF:28:D6:3E,16,16,4720.324104994939,-43086.46437376509,10626.709420703797
18176,-4860,15078,11493,-11268,-31456,-14366,824,-19213,-20022,16,-1,59805,2020-11-02 15:15:15,2020-11-02 15:15:45,3,DF:DC:EF:28:D6:3E,16,16,-1029.7451546335835,-15377.205076601234,-12063.827002599874
18177,-21509,-30246,-28694,-23562,30738,7382,18995,-7436,21970,16,-1,59807,2020-11-02 15:15:15,2020-11-02 15:15:45,3,DF:DC:EF:28:D6:3E,16,16,26816.624585941838,-38158.84763862002,-5057.096569103938
18178,27638,24286,-15374,17652,29711,-16416,29743,4600,-2345,16,-1,59830,2020-11-02 15:15:15,2020-11-02 15:15:45,3,DF:DC:EF:28:D6:3E,16,16,27638.0,-7853.481962511178,-27649.45737378062
18179,1785,6629,-4361,19449,-9708,17911,-2772,13305,-12325,16,-1,59856,2020-11-02 15:15:15,2020-11-02 15:15:45,3,DF:DC:EF:28:D6:3E,16,16,7987.063551825609,1522.578762884425,191.72044729824597
18180,23553,6375,7927,-23038,-24544,-20985,-25301,16119,-16417,16,-1,59882,2020-11-02 15:15:15,2020-11-02 15:15:45,3,DF:DC:EF:28:D6:3E,16,16,-5030.169441046177,13438.12049725266,-21268.19399703894
18181,-14078,16099,7420,18187,22830,-22772,7722,25075,-17947,16,-1,59907,2020-11-02 15:15:15,2020-11-02 15:15:45,3,DF:DC:EF:28:D6:3E,16,16,4389.863109859094,-1853.6651578200826,-22129.557437042935
18182,-11520,30444,-12544,-28389,-27346,10507,17960,-23825,-3347,16,-1,59933,2020-11-02 15:15:15,2020-11-02 15:15:45,3,DF:DC:EF:28:D6:3E,16,16,20179.71889191714,-28369.122185400985,-2207.107580747239
18183,-19201,6640,-25616,-16601,-1499,9997,-2777,25324,6390,16,-1,59958,2020-11-02 15:15:15,2020-11-02 15:15:45,3,DF:DC:EF:28:D6:3E,16,16,11668.19385960314,30461.55161511817,2212.3702796347534
18184,-31228,-2044,20982,-9437,-23529,-1785,-27352,-17943,-27908,16,-1,59984,2020-11-02 15:15:15,2020-11-02 15:15:45,3,DF:DC:EF:28:D6:3E,16,16,-10609.161780444085,34532.91944354673,10702.028079849002
18185,7423,10255,26606,-11742,5385,-24062,-10198,-24088,22528,16,-1,60010,2020-11-02 15:15:15,2020-11-02 15:15:45,3,DF:DC:EF:28:D6:3E,16,16,-3442.9645472963457,-27720.519173680394,-9373.579992066969
18186,17146,31242,-29975,-16105,20480,-18676,23343,-31001,12032,16,-1,60035,2020-11-02 15:15:15,2020-11-02 15:15:45,3,DF:DC:EF:28:D6:3E,16,16,38789.023127064356,18828.76233391,-17590.84701829899
18187,-7419,-13068,-2591,18967,-9998,30492,-9927,5094,26616,16,-1,60061,2020-11-02 15:15:15,2020-11-02 15:15:45,3,DF:DC:EF:28:D6:3E,16,16,-2144.1706954121237,11654.987333927766,9596.419554965241
18188,-30954,18933,8404,-11487,17906,-27366,29884,28903,-21780,16,1,60086,2020-11-02 15:15:15,2020-11-02 15:15:45,3,DF:DC:EF:28:D6:3E,16,16,-4384.482276238496,-14190.121626219887,-34156.29640933626
18189,-14076,-4359,-13402,-16361,24561,-9203,-26172,21226,-16152,16,1,60112,2020-11-02 15:15:15,2020-11-02 15:15:45,3,DF:DC:EF:28:D6:3E,16,16,5693.719073439297,-18778.505077088143,-3420.171221229786
18190,26872,-14871,8352,4336,-12583,14359,15812,7664,-11032,16,1,60138,2020-11-02 15:15:15,2020-11-02 15:15:45,3,DF:DC:EF:28:D6:3E,16,16,-1066.4374850148915,-941.2439967045311,-31795.96986772416
18191,-2063,11484,-23117,20205,-4375,-30169,-27198,-13322,-14875,16,1,60163,2020-11-02 15:15:15,2020-11-02 15:15:45,3,DF:DC:EF:28:D6:3E,16,16,17731.784491770628,14742.166780027706,-11780.757673734326
18192,4075,-12601,-13917,-10259,24552,1334,-20799,-8708,-8737,16,1,60189,2020-11-02 15:15:15,2020-11-02 15:15:45,3,DF:DC:EF:28:D6:3E,16,16,2961.7362604516757,14841.160369999368,11833.925477012519
18193,20981,-4418,29094,21478,-1552,66,24510,-31742,-13353,16,1,60214,2020-11-02 15:15:15,2020-11-02 15:15:45,3,DF:DC:EF:28:D6:3E,16,16,26425.030888063386,-2109.8243409562665,-24565.184811338273
18194,-19959,969,-10292,9700,-25853,11588,28997,-3325,24269,16,1,60240,2020-11-02 15:15:15,2020-11-02 15:15:45,3,DF:DC:EF:28:D6:3E,16,16,5785.022321200631,21376.326272036444,-3848.6488349361057
18195,-16108,30426,15074,-17684,4107,13871,10305,15361,1733,16,1,60266,2020-11-02 15:15:15,2020-11-02 15:15:45,3,DF:DC:EF:28:D6:3E,16,16,37389.45638630029,3754.9043333497884,603.2085744909241
18196,-27114,14055,-5655,-29456,12302,25885,-962,-16899,21952,16,1,60291,2020-11-02 15:15:15,2020-11-02 15:15:45,3,DF:DC:EF:28:D6:3E,16,16,-18244.545918415115,-11596.380348706853,-22301.380070277442
18197,-25323,16364,2545,9200,-23787,-12016,8253,-13319,11966,16,1,60317,2020-11-02 15:15:15,2020-11-02 15:15:45,3,DF:DC:EF:28:D6:3E,16,16,-4746.801392989335,-5728.047831314816,-29328.641198965975
18198,-18162,-30741,22769,-24845,-27876,-12541,-7878,-30987,-18242,16,1,60342,2020-11-02 15:15:15,2020-11-02 15:15:45,3,DF:DC:EF:28:D6:3E,16,16,-30775.4822434809,-6962.7355705371865,28243.312342145146
18199,-1531,-25110,20456,25335,-13536,30458,-18633,-21519,4290,16,1,60368,2020-11-02 15:15:15,2020-11-02 15:15:45,3,DF:DC:EF:28:D6:3E,16,16,3873.478176769241,27745.462474509826,16324.50537963277
18200,31744,-9498,9959,-19979,12318,17140,-5838,12271,-30521,16,-1,60394,2020-11-02 15:15:15,2020-11-02 15:15:45,3,DF:DC:EF:28:D6:3E,16,16,-3412.827662693288,-85.40107096984502,-34429.93661048235
18201,-24067,-4377,-20756,11509,28689,7400,29485,-29457,17101,16,-1,60419,2020-11-02 15:15:15,2020-11-02 15:15:45,3,DF:DC:EF:28:D6:3E,16,16,22742.697625245688,1117.7429698363308,22598.90504825456
18202,21755,19167,2284,22778,-9956,748,-18136,31217,2771,16,-1,60445,2020-11-02 15:15:15,2020-11-02 15:15:45,3,DF:DC:EF:28:D6:3E,16,16,10933.079257876008,-18652.868083932,19452.734002819045
18203,-20995,-18467,16364,12291,-4835,-27921,21541,12531,473,16,-1,60470,2020-11-02 15:15:15,2020-11-02 15:15:45,3,DF:DC:EF:28:D6:3E,16,16,-8363.51773144352,15972.903622828759,26916.881896156803
18204,15873,-32038,20976,17422,18463,22260,8740,-14092,-31010,16,-1,60496,2020-11-02 15:15:15,2020-11-02 15:15:45,3,DF:DC:EF:28:D6:3E,16,16,35681.50567819379,-2626.4998986967603,20935.849632130303
18205,10502,8922,20969,-6120,31534,-25865,25892,-9995,20965,16,-1,60522,2020-11-02 15:15:15,2020-11-02 15:15:45,3,DF:DC:EF:28:D6:3E,16,16,-24076.880273582054,-6706.9736622279115,-2216.6166979828395
18206,16639,28892,-22287,25885,-3544,28914,26661,-11018,16109,16,-1,60547,2020-11-02 15:15:15,2020-11-02 15:15:45,3,DF:DC:EF:28:D6:3E,16,16,26212.434748819636,28636.596971058545,10058.22710302534
18207,10227,9708,4319,16410,17957,12270,-3801,-20744,8691,16,-1,60573,2020-11-02 15:15:15,2020-11-02 15:15:45,3,DF:DC:EF:28:D6:3E,16,16,-13968.686629097541,-3787.22147219373,-2832.543270389062
18208,-6176,-29184,518,-17389,27176,-26370,-1496,31736,7418,16,-1,60599,2020-11-02 15:15:15,2020-11-02 15:15:45,3,DF:DC:EF:28:D6:3E,16,16,23342.554416365878,-17660.33134357451,-5775.379308249591
18209,-17438,-26117,8444,27427,-21233,-753,3628,12534,-18691,16,-1,60624,2020-11-02 15:15:15,2020-11-02 15:15:45,3,DF:DC:EF:28:D6:3E,16,16,-18471.04643590444,23748.024211116433,12342.384641182167
18210,-28685,-19722,12505,-21211,-3584,29216,-17102,-28686,5372,16,-1,60650,2020-11-02 15:15:15,2020-11-02 15:15:45,3,DF:DC:EF:28:D6:3E,16,16,4069.534790160127,19578.012232837893,31117.549029486978
18211,-15355,-28686,-2864,4644,23803,-12768,10812,-24337,17142,16,-1,60675,2020-11-02 15:15:15,2020-11-02 15:15:45,3,DF:DC:EF:28:D6:3E,16,16,15814.710712246966,-3102.5988848260795,28410.102468097808
18212,20975,14835,-15966,26406,-9493,-17907,9541,-7696,-20495,16,-1,60701,2020-11-02 15:15:15,2020-11-02 15:15:45,3,DF:DC:EF:28:D6:3E,16,16,-4979.489465783603,-22376.953482590838,19733.66776598096
18213,-18704,13046,128,12298,-16156,-22499,-2115,-18187,19950,16,-1,60726,2020-11-02 15:15:15,2020-11-02 15:15:45,3,DF:DC:EF:28:D6:3E,16,16,-20154.681554018516,-10304.897473147432,-2766.2276703166135
18214,15114,-3089,-18520,26359,14582,11819,19135,8698,-19992,16,-1,60752,2020-11-02 15:15:15,2020-11-02 15:15:45,3,DF:DC:EF:28:D6:3E,16,16,-22194.571873954024,-8892.721473381367,-3047.261250492131
18215,-17401,6886,-29759,-26640,-32264,20002,-28482,29948,739,16,1,60778,2020-11-02 15:15:15,2020-11-02 15:15:45,3,DF:DC:EF:28:D6:3E,16,16,-28586.07253962236,18020.695484601805,-9690.246075858988
18216,-3836,27875,188,-23823,-3350,4126,-26692,-10753,-6690,16,1,60803,2020-11-02 15:15:15,2020-11-02 15:15:45,3,DF:DC:EF:28:D6:3E,16,16,-26106.761542874938,6673.093018071877,8103.8692188131035
18217,9742,31205,-25920,-30214,512,23340,3771,-11007,16857,16,1,60829,2020-11-02 15:15:15,2020-11-02 15:15:45,3,DF:DC:EF:28:D6:3E,16,16,-39641.61578180692,11632.959331798162,-5807.025434103654
18218,-18913,-4884,207,-6664,-28401,26664,1722,16640,23506,16,1,60855,2020-11-02 15:15:15,2020-11-02 15:15:45,3,DF:DC:EF:28:D6:3E,16,16,-8963.812930725104,-2906.531836011978,17111.39983838886
18219,6681,-28175,1495,30700,-21233,528,-17596,-28419,32718,16,1,60880,2020-11-02 15:15:15,2020-11-02 15:15:45,3,DF:DC:EF:28:D6:3E,16,16,26246.705162102167,10348.260869200416,-6687.703351424514
18220,-18156,-15120,-2334,6116,15373,3588,8257,14331,-25139,16,1,60906,2020-11-02 15:15:15,2020-11-02 15:15:45,3,DF:DC:EF:28:D6:3E,16,16,8069.144653465176,150.8907519226732,22328.64591824678
18221,-748,17650,20205,22757,15893,24318,-15556,-24072,25038,16,1,60931,2020-11-02 15:15:15,2020-11-02 15:15:45,3,DF:DC:EF:28:D6:3E,16,16,20124.491413167972,6429.960211008669,16552.476734500313
18222,26895,6124,26608,17128,6942,23798,-4809,32501,-32559,16,1,60957,2020-11-02 15:15:15,2020-11-02 15:15:45,3,DF:DC:EF:28:D6:3E,16,16,-10946.02350456483,-15414.136510371522,33337.951797870635
18223,-23548,-27932,-4365,-8984,-1759,-3601,-24271,22515,13783,16,1,60983,2020-11-02 15:15:15,2020-11-02 15:15:45,3,DF:DC:EF:28:D6:3E,16,16,-28232.867963110642,9878.863227447604,21425.951108665962
18224,-20996,-17443,-5889,-14098,-4071,31981,15147,25075,31709,16,1,61008,2020-11-02 15:15:15,2020-11-02 15:15:45,3,DF:DC:EF:28:D6:3E,16,16,18867.38525028749,-19314.142597141974,-7124.342464712087
18225,30702,9946,2564,-15622,-1265,-8721,-21977,13301,-28191,16,-1,61034,2020-11-02 15:15:15,2020-11-02 15:15:45,3,DF:DC:EF:28:D6:3E,16,16,17872.20425300248,-6182.4134372542485,-26276.83191006515
18226,-26133,27882,22282,3337,1041,-27903,-9690,-14603,14564,16,-1,61059,2020-11-02 15:15:15,2020-11-02 15:15:45,3,DF:DC:EF:28:D6:3E,16,16,-39595.412348068916,5261.703308052944,-19009.07510333988
18227,-10246,-5145,-15102,26641,-13790,-5864,-10970,28658,-6168,16,-1,61085,2020-11-02 15:15:15,2020-11-02 15:15:45,3,DF:DC:EF:28:D6:3E,16,16,-12618.327421414935,-9013.09085940194,-10911.642921491388
18228,22029,-18709,24064,-31977,30477,22540,1064,-20498,7404,16,-1,61111,2020-11-02 15:15:15,2020-11-02 15:15:45,3,DF:DC:EF:28:D6:3E,16,16,2125.0546455985727,-31317.334741723436,-20714.4467806423
18229,32001,-18197,15867,278,-18678,19954,-27863,-26642,-4114,16,-1,61136,2020-11-02 15:15:15,2020-11-02 15:15:45,3,DF:DC:EF:28:D6:3E,16,16,-39188.655218450716,-113.83222419575031,-8437.585163666805
18230,-22550,20461,-1290,28691,8964,-18195,12587,3825,18417,16,-1,61162,2020-11-02 15:15:15,2020-11-02 15:15:45,3,DF:DC:EF:28:D6:3E,16,16,23360.40380254293,4086.0576044567156,19141.96406942609
18231,-18453,27888,-26375,2070,-9212,-15875,-27347,8690,-26382,16,-1,61187,2020-11-02 15:15:15,2020-11-02 15:15:45,3,DF:DC:EF:28:D6:3E,16,16,-15884.619881283543,15742.014638613193,36245.85775429821
18232,1013,-15372,-15365,15132,-22781,25093,23089,22769,-1806,16,-1,61213,2020-11-02 15:15:15,2020-11-02 15:15:45,3,DF:DC:EF:28:D6:3E,16,16,2056.168101053434,-1580.4606004908746,-21602.82608897517
18233,-15886,12283,-18707,7968,-1286,2821,-14538,6129,-1807,16,-1,61239,2020-11-02 15:15:15,2020-11-02 15:15:45,3,DF:DC:EF:28:D6:3E,16,16,-11430.815099369394,-22121.75855693658,11539.202680975493
18234,17135,2811,25563,19230,26352,-6386,19005,-527,7663,16,-1,61264,2020-11-02 15:15:15,2020-11-02 15:15:45,3,DF:DC:EF:28:D6:3E,16,16,14635.34860035032,10965.900869598327,-24910.489847940902
18235,-12047,7925,-28726,25124,-14352,-12263,8005,-14349,27626,16,-1,61290,2020-11-02 15:15:15,2020-11-02 15:15:45,3,DF:DC:EF:28:D6:3E,16,16,12995.843431984556,-28484.489026359704,-7270.546636844945
18236,21231,-32275,-7241,-23518,32491,18712,-4417,17655,21222,16,-1,61315,2020-11-02 15:15:15,2020-11-02 15:15:45,3,DF:DC:EF:28:D6:3E,16,16,26374.459749298385,28841.66912946633,4172.416776764785
18237,-7738,-23577,22913,-16875,32224,19474,-25916,26364,10725,16,-1,61341,2020-11-02 15:15:15,2020-11-02 15:15:45,3,DF:DC:EF:28:D6:3E,16,16,17776.740925346498,24114.188715708864,15596.490844298609
18238,-2365,29399,128,18157,27101,6964,-3901,14596,-2078,16,-1,61367,2020-11-02 15:15:15,2020-11-02 15:15:45,3,DF:DC:EF:28:D6:3E,16,16,1100.577339067679,29399.0,2097.221619364703
18239,-2328,14525,-31090,6111,-23819,-15801,1468,12810,-32039,16,-1,61392,2020-11-02 15:15:15,2020-11-02 15:15:45,3,DF:DC:EF:28:D6:3E,16,16,-21672.712199287715,-22059.654569276878,15054.849557900845
18240,31230,10187,-18756,16353,31227,-30156,-24257,-12535,23503,16,-1,61418,2020-11-02 15:15:15,2020-11-02 15:15:45,3,DF:DC:EF:28:D6:3E,16,16,26067.00390631085,18651.835918067598,20087.203121237628
18241,-1,-11289,-1589,31216,-18945,-23000,6714,-29177,-13368,16,-1,61443,2020-11-02 15:15:15,2020-11-02 15:15:45,3,DF:DC:EF:28:D6:3E,16,16,-196.9408637501199,11013.65458757167,-2937.1874168746767
18242,11271,-4387,24277,-22285,-19180,-8653,25143,-15871,1476,16,-1,61469,2020-11-02 15:15:15,2020-11-02 15:15:45,3,DF:DC:EF:28:D6:3E,16,16,6719.849235954622,21240.42874331924,15470.673936387451
18243,-31205,13778,11248,-15880,-15333,807,30518,-2823,4545,16,-1,61495,2020-11-02 15:15:15,2020-11-02 15:15:45,3,DF:DC:EF:28:D6:3E,16,16,-31205.0,14694.277832723314,-10021.426394218353
18244,12826,-25887,-5145,-12809,-18934,-23303,-15051,-25866,9665,16,-1,61520,2020-11-02 15:15:15,2020-11-02 15:15:45,3,DF:DC:EF:28:D6:3E,16,16,842.6247105717894,12592.028699145407,-26492.354875266035
18245,-25331,21985,-25864,-5905,-25066,7664,2610,-523,-7996,16,-1,61546,2020-11-02 15:15:15,2020-11-02 15:15:45,3,DF:DC:EF:28:D6:3E,16,16,4813.3418910557575,33193.84771067988,-25864.0
18246,-10231,17887,2301,-2313,18452,6122,27694,-29962,-24631,16,-1,61571,2020-11-02 15:15:15,2020-11-02 15:15:45,3,DF:DC:EF:28:D6:3E,16,16,18854.992765106814,-6607.858672674352,5544.202610811771
18247,-30459,737,-1287,31995,-8173,2279,-3797,30968,17102,16,-1,61597,2020-11-02 15:15:15,2020-11-02 15:15:45,3,DF:DC:EF:28:D6:3E,16,16,2411.8025394225333,-7040.89418874299,-29572.947714655704
18248,-27647,2018,8953,-23296,-31210,-4375,-29142,-26374,-14382,16,-1,61623,2020-11-02 15:15:15,2020-11-02 15:15:45,3,DF:DC:EF:28:D6:3E,16,16,-16215.62152677887,-16176.992341793872,17998.435467390165
18249,28416,-13594,-30216,-22524,29466,-23825,12074,7420,24535,16,-1,61648,2020-11-02 15:15:15,2020-11-02 15:15:45,3,DF:DC:EF:28:D6:3E,16,16,14921.843806612367,-33412.00284138358,-23795.9910812397
18250,16384,-24086,-5385,-24570,3609,29169,-30422,2813,-12837,16,-1,61674,2020-11-02 15:15:15,2020-11-02 15:15:45,3,DF:DC:EF:28:D6:3E,16,16,-8335.294504377729,-14203.596292360755,-24624.170948255825
18251,253,-2067,-16900,-30201,-7656,20979,13099,-19715,8416,16,-1,61700,2020-11-02 15:15:15,2020-11-02 15:15:45,3,DF:DC:EF:28:D6:3E,16,16,-14183.063234750087,7944.933401425755,-5066.088089047581
18252,11259,18929,9729,-23543,4630,14839,13868,-7171,996,16,-1,61725,2020-11-02 15:15:15,2020-11-02 15:15:45,3,DF:DC:EF:28:D6:3E,16,16,-4993.3541698037525,-16723.798134587916,16586.336337131754
18253,3579,27121,-21244,11789,18965,-23300,-23251,20477,23783,16,1,61751,2020-11-02 15:15:15,2020-11-02 15:15:45,3,DF:DC:EF:28:D6:3E,16,16,-2106.880839283511,84.85320266859162,-34571.94340882584
18254,1276,6385,27138,27413,8469,10751,-3793,-5381,19690,16,1,61776,2020-11-02 15:15:15,2020-11-02 15:15:45,3,DF:DC:EF:28:D6:3E,16,16,-2164.2816771244206,-6141.032960509453,27138.0
18255,-4875,-13575,-28432,17181,32276,22014,31795,14074,-532,16,1,61802,2020-11-02 15:15:15,2020-11-02 15:15:45,3,DF:DC:EF:28:D6:3E,16,16,6531.841997390791,-31114.849144885648,2371.935246192583
18256,-23578,-7428,-7204,-29161,-21745,17924,14903,10232,-8722,16,1,61828,2020-11-02 15:15:15,2020-11-02 15:15:45,3,DF:DC:EF:28:D6:3E,16,16,-477.63444770586375,18588.913622487395,17810.643999307475
18257,-19472,-24834,17895,-5874,-21772,20492,30266,-29705,-26387,16,1,61853,2020-11-02 15:15:15,2020-11-02 15:15:45,3,DF:DC:EF:28:D6:3E,16,16,-22153.179589726642,10173.890173395092,26867.191103742378
18258,28146,17150,16079,-14056,-1808,10505,27966,14585,-12566,16,1,61879,2020-11-02 15:15:15,2020-11-02 15:15:45,3,DF:DC:EF:28:D6:3E,16,16,14634.265710265521,29672.84584460288,-15818.171310356334
18259,-11295,5898,28576,-10722,8951,-1778,-8381,-25862,-7192,16,1,61904,2020-11-02 15:15:15,2020-11-02 15:15:45,3,DF:DC:EF:28:D6:3E,16,16,31188.362501137362,1829.4864611298763,1700.067288724602
18260,23787,4350,-17748,6147,-32262,-19672,22714,-4101,4836,16,1,61930,2020-11-02 15:15:15,2020-11-02 15:15:45,3,DF:DC:EF:28:D6:3E,16,16,23787.0,-1801.8694571654141,18184.25886472513
