id,accelerationx,accelerationy,accelerationz,angularvelocityx,angularvelocityy,angularvelocityz,pitch,roll,yaw,mdlcircle_id,hallsensor,timestamp,starttime,endtime,train_mode,blemac,training_id,training_handle_id,accelerationWorldx,accelerationWorldy,accelerationWorldz
18840,-26610,-22522,32506,16384,15872,-4352,12080,30442,17941,17,1,38490,2020-11-02 15:16:11,2020-11-02 15:16:41,3,DF:DC:EF:28:D6:3E,17,17,-21962.04254263382,23519.821417097013,-35163.32333360155
18841,-4342,32006,-12808,26368,2816,32512,18736,24042,14357,17,1,38516,2020-11-02 15:16:11,2020-11-02 15:16:41,3,DF:DC:EF:28:D6:3E,17,17,31403.012813683952,3180.502458911302,-14526.4260688051
18842,-5621,-6135,26361,24576,1024,29696,25904,19946,10517,17,1,38541,2020-11-02 15:16:11,2020-11-02 15:16:41,3,DF:DC:EF:28:D6:3E,17,17,-18114.92675212358,16133.540139111657,13254.980133703346
18843,-1519,19208,-21509,10752,31232,-16640,30512,13290,8213,17,1,38567,2020-11-02 15:16:11,2020-11-02 15:16:41,3,DF:DC:EF:28:D6:3E,17,17,1065.7600438912996,-26429.85724205798,11585.271153204845
18844,-14071,11271,24568,14848,12288,-30464,-31440,6122,5909,17,1,38593,2020-11-02 15:16:11,2020-11-02 15:16:41,3,DF:DC:EF:28:D6:3E,17,17,21108.388720520194,-4811.377658340723,21445.318292164276
18845,16658,15114,-28933,12800,5632,-29696,-25808,1258,2581,17,1,38618,2020-11-02 15:16:11,2020-11-02 15:16:41,3,DF:DC:EF:28:D6:3E,17,17,16658.0,12017.396911011656,30350.18379653091
18846,-1015,-7162,-2057,-9985,3072,-20736,-21712,-3607,-3052,17,1,38644,2020-11-02 15:16:11,2020-11-02 15:16:41,3,DF:DC:EF:28:D6:3E,17,17,-1015.0,6800.042404073243,3047.116063231885
18847,-7918,24329,-14853,-15105,3840,30464,-19408,-8727,-7916,17,1,38669,2020-11-02 15:16:11,2020-11-02 15:16:41,3,DF:DC:EF:28:D6:3E,17,17,-29466.885370528456,-2565.3303021137417,-572.9930201956677
18848,-20471,-3577,29432,-27393,-13825,256,-19920,-8983,-11500,17,1,38695,2020-11-02 15:16:11,2020-11-02 15:16:41,3,DF:DC:EF:28:D6:3E,17,17,1573.0666675838556,-15053.008251785475,-32696.05171623961
18849,5393,520,15100,23551,-13313,5888,-22480,-7703,-15084,17,1,38721,2020-11-02 15:16:11,2020-11-02 15:16:41,3,DF:DC:EF:28:D6:3E,17,17,-5003.489877294156,-14816.348347622745,-3578.5136145768256
18850,19978,-7159,9466,29439,-30977,16640,-24016,-6935,-20716,17,1,38746,2020-11-02 15:16:11,2020-11-02 15:16:41,3,DF:DC:EF:28:D6:3E,17,17,-20704.571259659693,-441.7927668330003,10540.515599573288
18851,-4340,28678,16379,27903,-28929,-2304,-18384,-9239,31508,17,-1,38772,2020-11-02 15:16:11,2020-11-02 15:16:41,3,DF:DC:EF:28:D6:3E,17,17,-20837.08666681913,-21498.85427084222,-14599.65784806471
18852,16910,-4342,5115,25599,24831,-28415,-6352,-16663,10004,17,-1,38797,2020-11-02 15:16:11,2020-11-02 15:16:41,3,DF:DC:EF:28:D6:3E,17,17,-8602.638512151527,-9773.675159628716,12705.674854304434
18853,-4087,-6651,-1800,-13314,-13057,20738,6705,-30231,-16877,17,-1,38823,2020-11-02 15:16:11,2020-11-02 15:16:41,3,DF:DC:EF:28:D6:3E,17,17,1213.5574449318174,7647.270737563144,2055.699052454181
18854,29202,18952,-31491,-9218,-31234,-10238,27697,17641,8979,17,-1,38849,2020-11-02 15:16:11,2020-11-02 15:16:41,3,DF:DC:EF:28:D6:3E,17,17,15334.197125720986,-43155.542873845865,-10299.500316674668
18855,28170,-11258,14841,-19201,23035,-12287,21042,21481,-2799,17,-1,38874,2020-11-02 15:16:11,2020-11-02 15:16:41,3,DF:DC:EF:28:D6:3E,17,17,-30185.692790064764,9050.973487111325,12142.922824404333
18856,22537,-3834,28151,-10241,1020,-12543,26675,-28183,-23280,17,-1,38900,2020-11-02 15:16:11,2020-11-02 15:16:41,3,DF:DC:EF:28:D6:3E,17,17,-724.0512306544533,-35589.504995059826,-6925.143321404939
18857,-2034,-29178,761,32255,10750,-13054,11572,-29463,-22513,17,-1,38925,2020-11-02 15:16:11,2020-11-02 15:16:41,3,DF:DC:EF:28:D6:3E,17,17,27674.782653856135,-7621.160291314809,-5665.358053637028
18858,9228,-24059,-19976,9471,18685,-8958,-4300,31721,-23538,17,-1,38951,2020-11-02 15:16:11,2020-11-02 15:16:41,3,DF:DC:EF:28:D6:3E,17,17,3976.0594186972103,32203.95279407094,3182.5173897780332
18859,-20725,-27386,16377,-30979,507,-28669,-14795,-30743,21517,17,-1,38977,2020-11-02 15:16:11,2020-11-02 15:16:41,3,DF:DC:EF:28:D6:3E,17,17,-15060.00601830408,-24407.147667374185,25004.241869563564
18860,1291,22537,-5131,17917,-17416,5125,16951,-2071,3851,17,-1,39002,2020-11-02 15:16:11,2020-11-02 15:16:41,3,DF:DC:EF:28:D6:3E,17,17,1291.0,-4713.0961582203745,22628.085526693776
18861,-27128,-23802,-20492,-10501,9722,7,-19400,14570,-22008,17,-1,39028,2020-11-02 15:16:11,2020-11-02 15:16:41,3,DF:DC:EF:28:D6:3E,17,17,-29544.977090274384,-25092.470588749246,14827.268814178684
18862,-31737,16390,9716,5371,8446,16394,9018,234,4870,17,-1,39053,2020-11-02 15:16:11,2020-11-02 15:16:41,3,DF:DC:EF:28:D6:3E,17,17,-31737.0,679.8227047852888,19041.286644816268
18863,-8181,-23804,-22027,19706,5632,-3317,-13253,14057,8963,17,-1,39079,2020-11-02 15:16:11,2020-11-02 15:16:41,3,DF:DC:EF:28:D6:3E,17,17,25495.275578060973,20970.481528656917,-5383.097031912671
18864,-1523,259,17909,13561,9726,29450,-29123,-21784,-1537,17,-1,39105,2020-11-02 15:16:11,2020-11-02 15:16:41,3,DF:DC:EF:28:D6:3E,17,17,755.8052004893336,-17099.90632890717,-5490.068582587448
18865,30989,16642,6133,-2057,13053,-24567,4415,-31000,-6660,17,1,39130,2020-11-02 15:16:11,2020-11-02 15:16:41,3,DF:DC:EF:28:D6:3E,17,17,21930.800029294645,-3353.9221998394687,-27976.404164090032
18866,-22515,5890,-8460,-4873,10494,1547,-22720,28136,-23559,17,1,39156,2020-11-02 15:16:11,2020-11-02 15:16:41,3,DF:DC:EF:28:D6:3E,17,17,-571.1196039034194,11408.595718663762,-21970.586954519993
18867,15376,3,-9487,-1288,-1026,31500,-15294,19432,-5899,17,1,39182,2020-11-02 15:16:11,2020-11-02 15:16:41,3,DF:DC:EF:28:D6:3E,17,17,-15183.737099395916,7678.888348665551,-6075.636215669646
18868,29202,-29439,-4115,-6665,-18687,270,17733,3304,-16655,17,1,39207,2020-11-02 15:16:11,2020-11-02 15:16:41,3,DF:DC:EF:28:D6:3E,17,17,14876.635148667356,-38923.30893219276,-80.61279376359789
18869,-29672,12029,14824,-5135,-28413,-22003,-326,-23833,10733,17,1,39233,2020-11-02 15:16:11,2020-11-02 15:16:41,3,DF:DC:EF:28:D6:3E,17,17,6418.627243841045,32259.881919222298,12766.230605094663
18870,-23525,-2315,-16147,5863,4867,-10745,3515,20199,-29719,17,1,39258,2020-11-02 15:16:11,2020-11-02 15:16:41,3,DF:DC:EF:28:D6:3E,17,17,8179.909979768014,19491.192437687725,19305.25703221577
18871,-5862,-22030,-5640,-24860,25347,-13311,-7612,-5914,2536,17,1,39284,2020-11-02 15:16:11,2020-11-02 15:16:41,3,DF:DC:EF:28:D6:3E,17,17,-16201.890777917386,-16648.756152591657,3436.742322603936
18872,-7143,28145,-2560,-17684,14345,22015,19009,-12059,11752,17,1,39310,2020-11-02 15:16:11,2020-11-02 15:16:41,3,DF:DC:EF:28:D6:3E,17,17,26232.506617617695,8768.349316012345,-9202.647490207884
18873,1562,-20751,31750,-31753,10252,27900,16957,8676,28650,17,1,39335,2020-11-02 15:16:11,2020-11-02 15:16:41,3,DF:DC:EF:28:D6:3E,17,17,-26821.820541152396,19337.665688805417,-18648.082302644772
18874,30744,9459,14600,-18946,-8952,25590,22327,12771,2544,17,1,39361,2020-11-02 15:16:11,2020-11-02 15:16:41,3,DF:DC:EF:28:D6:3E,17,17,-24723.124287488863,-11424.691143017675,-22495.994637980155
18875,-5615,-20236,-17141,31235,1286,-15120,28720,-13853,32759,17,1,39386,2020-11-02 15:16:11,2020-11-02 15:16:41,3,DF:DC:EF:28:D6:3E,17,17,-24354.349559651615,4148.836431704489,-11157.53627774782
18876,32263,-12555,10766,12553,-10751,-15122,-19668,-20763,-28932,17,1,39412,2020-11-02 15:16:11,2020-11-02 15:16:41,3,DF:DC:EF:28:D6:3E,17,17,-22080.17908018289,-25468.907304326076,13350.520683130659
18877,-10237,-10252,15369,-31219,5887,-11279,26412,-15897,-6146,17,1,39438,2020-11-02 15:16:11,2020-11-02 15:16:41,3,DF:DC:EF:28:D6:3E,17,17,18851.612298492022,4570.3435995611135,-8356.70432223703
18878,-7934,8172,-31478,-9201,-14081,16626,16173,-28951,-29952,17,1,39463,2020-11-02 15:16:11,2020-11-02 15:16:41,3,DF:DC:EF:28:D6:3E,17,17,-19240.05478360005,23874.72572156009,13431.760407494834
18879,-3078,10974,-14581,-31724,-25864,9201,25903,-22293,23809,17,1,39489,2020-11-02 15:16:11,2020-11-02 15:16:41,3,DF:DC:EF:28:D6:3E,17,17,-15658.602986710433,9726.328328063191,-1647.7289702188837
18880,-27661,9686,15113,-28132,6129,10991,29235,-25362,9217,17,1,39514,2020-11-02 15:16:11,2020-11-02 15:16:41,3,DF:DC:EF:28:D6:3E,17,17,-6782.851155955143,21343.980812453337,24202.88617652411
18881,2280,-8749,20995,-14298,10995,5103,-30408,-7183,-23551,17,1,39540,2020-11-02 15:16:11,2020-11-02 15:16:41,3,DF:DC:EF:28:D6:3E,17,17,14970.567947072283,17264.166693372797,603.3819068627217
18882,-14628,-32034,-26380,-26321,-3338,-1803,-6594,22260,-13566,17,1,39566,2020-11-02 15:16:11,2020-11-02 15:16:41,3,DF:DC:EF:28:D6:3E,17,17,-42695.200267496795,1642.2398162166264,-10511.082841666439
18883,11729,-2573,10200,17457,-30720,8707,-7495,32245,-3326,17,1,39591,2020-11-02 15:16:11,2020-11-02 15:16:41,3,DF:DC:EF:28:D6:3E,17,17,-4033.809585603509,7192.806212041822,13424.667184817128
18884,24012,-22289,25798,11558,-4336,5409,18626,1013,15615,17,1,39617,2020-11-02 15:16:11,2020-11-02 15:16:41,3,DF:DC:EF:28:D6:3E,17,17,-26746.621895241955,14166.407525138628,-28685.250286944673
18885,-8975,-25394,-563,-28651,11537,-2757,30922,20983,16118,17,1,39642,2020-11-02 15:16:11,2020-11-02 15:16:41,3,DF:DC:EF:28:D6:3E,17,17,1922.6545601627085,14405.79750599348,-22682.575419440305
18886,-17684,-27954,-11073,-20723,1276,-5072,-23090,27133,5872,17,1,39694,2020-11-02 15:16:11,2020-11-02 15:16:41,3,DF:DC:EF:28:D6:3E,17,17,-10490.492364641588,32990.01813129684,-4285.974176789006
18887,-17211,2497,21680,26872,-25611,-12751,-22322,16132,-788,17,1,39696,2020-11-02 15:16:11,2020-11-02 15:16:41,3,DF:DC:EF:28:D6:3E,17,17,-12674.396599178686,587.4705107266091,24728.333531513083
18888,-7738,32176,9922,-5656,-29965,20281,-1335,-245,25320,17,1,39719,2020-11-02 15:16:11,2020-11-02 15:16:41,3,DF:DC:EF:28:D6:3E,17,17,29408.771427270527,-15175.499436214828,9922.0
18889,16831,32434,11978,-6411,29177,305,-830,-30447,737,17,1,39745,2020-11-02 15:16:11,2020-11-02 15:16:41,3,DF:DC:EF:28:D6:3E,17,17,16260.313205446633,32434.0,-12741.94880937676
18890,25035,-28241,15574,-22529,23813,-3023,19899,7699,-8746,17,-1,39770,2020-11-02 15:16:11,2020-11-02 15:16:41,3,DF:DC:EF:28:D6:3E,17,17,20163.376111697173,16275.479563385508,-31549.989077019673
18891,-26876,-29748,-27148,-19965,-26871,20015,-10176,11793,29644,17,-1,39796,2020-11-02 15:16:11,2020-11-02 15:16:41,3,DF:DC:EF:28:D6:3E,17,17,-31472.82748561817,-30801.105928228753,20125.351864217155
18892,27394,-19493,32517,-25077,28172,5412,10814,32013,-5179,17,-1,39822,2020-11-02 15:16:11,2020-11-02 15:16:41,3,DF:DC:EF:28:D6:3E,17,17,6652.328910733417,-37894.22486128602,26599.583008493064
18893,-3560,-11556,17897,-15362,3603,31778,1853,12553,21697,17,-1,39847,2020-11-02 15:16:11,2020-11-02 15:16:41,3,DF:DC:EF:28:D6:3E,17,17,-15946.710960806562,13945.964264100447,-4210.68109418478
18894,-5345,-28711,-8205,23285,-22252,-26100,-30149,-1276,19903,17,-1,39873,2020-11-02 15:16:11,2020-11-02 15:16:41,3,DF:DC:EF:28:D6:3E,17,17,5330.494484700449,-480.7996960127193,-29859.12308157914
18895,-14571,8917,15099,28392,6668,-10770,11577,1283,-29759,17,-1,39899,2020-11-02 15:16:11,2020-11-02 15:16:41,3,DF:DC:EF:28:D6:3E,17,17,12590.650024187811,-18919.628777399583,1824.8040699793
18896,-11009,-12582,31736,-27159,-6647,-9241,24630,-765,21445,17,-1,39924,2020-11-02 15:16:11,2020-11-02 15:16:41,3,DF:DC:EF:28:D6:3E,17,17,6348.832139783813,-33472.955992422714,-11221.944955763238
18897,12790,16874,-5130,-17162,-18923,-19215,-460,12036,13257,17,-1,39950,2020-11-02 15:16:11,2020-11-02 15:16:41,3,DF:DC:EF:28:D6:3E,17,17,-11187.337335214514,-16103.409564905847,-9495.080817613629
18898,-776,5615,7927,23555,-29410,-14087,-32459,7426,13261,17,-1,39975,2020-11-02 15:16:11,2020-11-02 15:16:41,3,DF:DC:EF:28:D6:3E,17,17,2965.2392108795557,7959.558690837377,4777.081940827221
18899,-27395,19185,-23822,16649,-24291,8697,-6346,20991,-5168,17,-1,40001,2020-11-02 15:16:11,2020-11-02 15:16:41,3,DF:DC:EF:28:D6:3E,17,17,23026.28941150551,-9679.822062013447,32590.320262086214
18900,-12289,-16655,-22290,-13305,-15076,-24589,1592,-18436,-9004,17,-1,40026,2020-11-02 15:16:11,2020-11-02 15:16:41,3,DF:DC:EF:28:D6:3E,17,17,-5741.8157746497745,-21882.987536990888,20332.70897017622
18901,-30720,-1040,-28687,23555,15127,-24341,6456,4091,23769,17,-1,40052,2020-11-02 15:16:11,2020-11-02 15:16:41,3,DF:DC:EF:28:D6:3E,17,17,37923.33974647673,7837.779248413477,-16374.782072639538
18902,29436,28143,-4876,28417,-18414,-28701,24375,-1542,27358,17,-1,40078,2020-11-02 15:16:11,2020-11-02 15:16:41,3,DF:DC:EF:28:D6:3E,17,17,-35955.137273527595,-7841.086572354272,-18111.52633012005
18903,32502,-25110,-16391,30470,-31469,25056,-6346,-17413,-3101,17,-1,40103,2020-11-02 15:16:11,2020-11-02 15:16:41,3,DF:DC:EF:28:D6:3E,17,17,-33908.736040347205,-27359.54181233522,-7563.734326715832
18904,-4631,-12566,-31758,26386,-32233,-18465,4408,15356,-1303,17,-1,40129,2020-11-02 15:16:11,2020-11-02 15:16:41,3,DF:DC:EF:28:D6:3E,17,17,-26950.291681080183,-12566.0,17426.94761869388
18905,-8738,-20747,-10774,25111,-5351,-6167,-23494,30971,-27921,17,-1,40154,2020-11-02 15:16:11,2020-11-02 15:16:41,3,DF:DC:EF:28:D6:3E,17,17,-20241.200393440544,-9785.673900206246,-10835.318267194767
18906,27622,16123,18679,7957,25356,15092,18749,5882,4339,17,1,40180,2020-11-02 15:16:11,2020-11-02 15:16:41,3,DF:DC:EF:28:D6:3E,17,17,1278.270396690128,-18597.62965323924,-32005.08162892109
18907,3053,14846,29169,-15845,15096,-22537,-25280,-13830,26356,17,1,40206,2020-11-02 15:16:11,2020-11-02 15:16:41,3,DF:DC:EF:28:D6:3E,17,17,-27874.291754511694,16345.040761059843,6034.781495932864
18908,14799,-18947,-21558,-25305,-21509,-14595,-5051,15356,16885,17,1,40231,2020-11-02 15:16:11,2020-11-02 15:16:41,3,DF:DC:EF:28:D6:3E,17,17,27948.896470410054,-15539.850541261181,-4485.399117309968
18909,1484,-23053,-26440,-27359,24578,11806,21951,6141,-12558,17,1,40257,2020-11-02 15:16:11,2020-11-02 15:16:41,3,DF:DC:EF:28:D6:3E,17,17,15784.58893306382,-29318.074452104524,11136.154077375868
18910,-4123,23273,21180,21012,18178,5687,-12349,30207,-4629,17,1,40282,2020-11-02 15:16:11,2020-11-02 15:16:41,3,DF:DC:EF:28:D6:3E,17,17,27575.24104447804,9573.934173206295,-12456.722032141784
18911,28147,15083,16818,-19973,6647,7991,16068,2052,27620,17,1,40308,2020-11-02 15:16:11,2020-11-02 15:16:41,3,DF:DC:EF:28:D6:3E,17,17,-34721.81225015462,-7203.079999946869,6716.175591761916
18912,-23842,-12837,-8783,7391,-25108,3625,3519,-8952,22494,17,1,40334,2020-11-02 15:16:11,2020-11-02 15:16:41,3,DF:DC:EF:28:D6:3E,17,17,7247.851778208371,11933.608728562554,-24807.826372229738
18913,29402,1734,-1074,-31014,21214,4118,-12989,25613,-29735,17,1,40359,2020-11-02 15:16:11,2020-11-02 15:16:41,3,DF:DC:EF:28:D6:3E,17,17,-3580.574930929074,-18090.82962934082,22989.980480334605
18914,-9761,-26130,25055,2298,30674,5141,5437,18707,-8237,17,1,40385,2020-11-02 15:16:11,2020-11-02 15:16:41,3,DF:DC:EF:28:D6:3E,17,17,-14856.14425104849,-25224.740887832148,-23426.7896036518
18915,-498,24025,24811,30735,14591,-1482,-11466,13586,-23863,17,1,40411,2020-11-02 15:16:11,2020-11-02 15:16:41,3,DF:DC:EF:28:D6:3E,17,17,9478.069038530846,-30193.329175174284,13840.644154822141
18916,16197,-28695,25845,-13301,2562,-15071,4405,-21492,23235,17,1,40436,2020-11-02 15:16:11,2020-11-02 15:16:41,3,DF:DC:EF:28:D6:3E,17,17,-8851.332492752128,33651.80777504252,-23300.635304092844
18917,540,-10504,4313,5128,-18172,-26111,5942,1803,9154,17,1,40462,2020-11-02 15:16:11,2020-11-02 15:16:41,3,DF:DC:EF:28:D6:3E,17,17,8121.313983871189,-4572.902383607728,-6508.487379212858
18918,-27125,-5899,-26670,-14858,13072,-15362,-16586,-31735,-26429,17,1,40487,2020-11-02 15:16:11,2020-11-02 15:16:41,3,DF:DC:EF:28:D6:3E,17,17,11206.046738716213,20370.959992937787,30680.632839885096
18919,16395,13039,-29979,-32533,-29164,13300,28981,-5113,-25146,17,1,40513,2020-11-02 15:16:11,2020-11-02 15:16:41,3,DF:DC:EF:28:D6:3E,17,17,8240.59768935048,28780.84341263294,-21007.32227533472
18920,25592,-5392,13035,28142,23063,11503,8500,14855,4555,17,1,40539,2020-11-02 15:16:11,2020-11-02 15:16:41,3,DF:DC:EF:28:D6:3E,17,17,-8371.667832354124,-13881.884320211939,-24313.44933210796
18921,22257,-16139,16618,10736,-26854,-22537,8499,2054,32719,17,1,40564,2020-11-02 15:16:11,2020-11-02 15:16:41,3,DF:DC:EF:28:D6:3E,17,17,-15457.471594282179,-27782.903069722386,-4601.756504897896
18922,-16903,-4619,20462,26611,32541,16125,-2255,-6397,22739,17,1,40615,2020-11-02 15:16:11,2020-11-02 15:16:41,3,DF:DC:EF:28:D6:3E,17,17,26739.03567138448,854.1348277333645,-3167.7182735339993
18923,-19206,18423,495,27897,18977,3836,12593,25089,-25385,17,1,40617,2020-11-02 15:16:11,2020-11-02 15:16:41,3,DF:DC:EF:28:D6:3E,17,17,6121.990410609977,5329.567467335183,-25350.332029847694
18924,16888,25847,-20754,24062,10787,-21254,-10960,-258,20956,17,-1,40641,2020-11-02 15:16:11,2020-11-02 15:16:41,3,DF:DC:EF:28:D6:3E,17,17,-16225.257399206002,5846.916611747623,-32962.93460031707
18925,-6663,-22026,244,29957,18468,24568,-13776,-17924,27105,17,-1,40667,2020-11-02 15:16:11,2020-11-02 15:16:41,3,DF:DC:EF:28:D6:3E,17,17,4631.235338697241,-9000.299468196034,-20667.511938314976
18926,15101,4340,12279,20239,12066,4083,-26575,-6662,-12826,17,-1,40692,2020-11-02 15:16:11,2020-11-02 15:16:41,3,DF:DC:EF:28:D6:3E,17,17,-16085.172417047157,-5999.360118051644,10145.173654886186
18927,-28935,-20243,-22793,-26856,22038,27113,-24781,28410,2540,17,-1,40718,2020-11-02 15:16:11,2020-11-02 15:16:41,3,DF:DC:EF:28:D6:3E,17,17,19232.13550423912,30481.507092695705,-21622.59957323648
18928,-21274,-23573,-16658,19485,16914,16103,-3274,11771,-7440,17,-1,40743,2020-11-02 15:16:11,2020-11-02 15:16:41,3,DF:DC:EF:28:D6:3E,17,17,-23236.641345652613,-7440.354186137598,26276.56746149185
18929,-15899,1787,24315,8221,12820,-4360,-23494,7162,-32012,17,-1,40769,2020-11-02 15:16:11,2020-11-02 15:16:41,3,DF:DC:EF:28:D6:3E,17,17,12858.312401824933,-25521.787187675982,5522.044542020025
18930,10723,15610,-31239,-2782,26115,-5119,25919,-9480,23029,17,-1,40795,2020-11-02 15:16:11,2020-11-02 15:16:41,3,DF:DC:EF:28:D6:3E,17,17,-24667.860952731346,23218.204638205974,13672.65736406434
18931,2522,15116,-29475,13610,29438,-6396,-25531,13049,-11788,17,-1,40846,2020-11-02 15:16:11,2020-11-02 15:16:41,3,DF:DC:EF:28:D6:3E,17,17,116.75850230948708,-29605.195302550692,-15071.44132291165
18932,9929,-233,20667,-21472,30458,-2794,16575,19706,-18446,17,-1,40848,2020-11-02 15:16:11,2020-11-02 15:16:41,3,DF:DC:EF:28:D6:3E,17,17,8324.114804194776,20071.04793600227,7323.002558874624
18933,-550,6147,31406,30222,13308,17965,10947,-31747,-21267,17,-1,40871,2020-11-02 15:16:11,2020-11-02 15:16:41,3,DF:DC:EF:28:D6:3E,17,17,-24125.576946978294,19900.55271040117,6808.045519528645
18934,2533,-14358,-27976,-20484,27646,1328,-13629,11265,5607,17,-1,40897,2020-11-02 15:16:11,2020-11-02 15:16:41,3,DF:DC:EF:28:D6:3E,17,17,22151.081590437403,-19463.4685337314,11212.841121242767
18935,-25393,-8499,-6202,-24851,21498,-4053,1985,-26620,1249,17,-1,40923,2020-11-02 15:16:11,2020-11-02 15:16:41,3,DF:DC:EF:28:D6:3E,17,17,11904.283388689926,-8499.0,23271.38349995034
18936,-11562,12222,23510,17399,27388,-11985,12733,17927,16090,17,-1,40948,2020-11-02 15:16:11,2020-11-02 15:16:41,3,DF:DC:EF:28:D6:3E,17,17,19221.966160631026,21591.524874035553,315.1166981608985
18937,-26125,1989,-13094,-18421,-19697,27441,-23365,1799,17618,17,-1,40974,2020-11-02 15:16:11,2020-11-02 15:16:41,3,DF:DC:EF:28:D6:3E,17,17,24648.58483298535,-12210.075574782957,10064.089734755606
18938,5122,-1578,-1573,-24821,18713,30757,13756,11524,15563,17,-1,40999,2020-11-02 15:16:11,2020-11-02 15:16:41,3,DF:DC:EF:28:D6:3E,17,17,-715.4331529699508,-3451.8177461721507,-4332.713543593955
18939,12797,7905,-10788,21757,-31211,-17897,26044,5377,29894,17,-1,41025,2020-11-02 15:16:11,2020-11-02 15:16:41,3,DF:DC:EF:28:D6:3E,17,17,-9153.81466345704,-16052.978821679306,1068.9836564674733
18940,-20734,6879,-536,8434,-13553,27408,2491,-20482,19651,17,-1,41076,2020-11-02 15:16:11,2020-11-02 15:16:41,3,DF:DC:EF:28:D6:3E,17,17,-21366.733250665482,-3902.7835511084977,-2395.3462689354483
18941,-5362,30938,-3597,-18195,5388,-24057,-31419,-25604,30913,17,-1,41078,2020-11-02 15:16:11,2020-11-02 15:16:41,3,DF:DC:EF:28:D6:3E,17,17,18867.024290893452,-20682.546261115192,-14666.866453461233
18942,3093,30943,21499,-26641,-20727,9468,579,-1798,30657,17,-1,41102,2020-11-02 15:16:11,2020-11-02 15:16:41,3,DF:DC:EF:28:D6:3E,17,17,30549.360970539252,5811.4062232555225,21499.0
18943,-23023,-11292,-2822,-1547,6928,15348,-10944,10489,13763,17,-1,41127,2020-11-02 15:16:11,2020-11-02 15:16:41,3,DF:DC:EF:28:D6:3E,17,17,10090.15840562206,-1680.2490277383936,23683.26294145802
18944,23819,-10782,28666,-13830,10519,-29974,-24002,-13322,-13626,17,-1,41153,2020-11-02 15:16:11,2020-11-02 15:16:41,3,DF:DC:EF:28:D6:3E,17,17,-19371.401866214997,-7130.778850156502,32851.73699711726
18945,-22017,-12321,-11524,11521,531,-11043,1084,27637,-19508,17,-1,41179,2020-11-02 15:16:11,2020-11-02 15:16:41,3,DF:DC:EF:28:D6:3E,17,17,-24620.10311667407,8936.03828323825,-9129.93145236239
18946,12024,220,29181,2056,31237,-9002,7738,-7946,16595,17,-1,41204,2020-11-02 15:16:11,2020-11-02 15:16:41,3,DF:DC:EF:28:D6:3E,17,17,25102.033036287667,3870.951575084535,18736.579419639893
18947,5628,-5671,30455,-18167,-22004,3797,-25031,9721,-15399,17,-1,41230,2020-11-02 15:16:11,2020-11-02 15:16:41,3,DF:DC:EF:28:D6:3E,17,17,-10378.964929762044,23799.39013621898,-17810.327513294425
18948,-28425,-17443,-20986,28164,29447,-29486,7481,28411,-28704,17,-1,41256,2020-11-02 15:16:11,2020-11-02 15:16:41,3,DF:DC:EF:28:D6:3E,17,17,2959.1563104070647,39033.132902122015,-4506.550762596322
18949,-29966,-16414,-29423,30979,-12033,9431,-1736,255,14310,17,1,41281,2020-11-02 15:16:11,2020-11-02 15:16:41,3,DF:DC:EF:28:D6:3E,17,17,27395.46406788841,-20417.372517173586,-29423.0
18950,27380,8681,-5872,-30966,12806,24032,18746,-25855,-22,17,1,41307,2020-11-02 15:16:11,2020-11-02 15:16:41,3,DF:DC:EF:28:D6:3E,17,17,-12570.160297654895,-7765.468175660926,-25321.791388131645
18951,-21770,-21014,-13560,-9711,-247,7655,5949,25858,21999,17,1,41332,2020-11-02 15:16:11,2020-11-02 15:16:41,3,DF:DC:EF:28:D6:3E,17,17,-32832.97121853983,4623.222176152483,-128.5055347726293
18952,-28941,1775,-27649,-29166,8456,-2837,29504,18434,-270,17,1,41358,2020-11-02 15:16:11,2020-11-02 15:16:41,3,DF:DC:EF:28:D6:3E,17,17,27304.373003389745,-26009.796890963888,13533.698222679808
18953,-6414,1269,10739,18193,-20728,-22800,-30653,-15359,-14347,17,1,41384,2020-11-02 15:16:11,2020-11-02 15:16:41,3,DF:DC:EF:28:D6:3E,17,17,-8534.119315980002,5233.411735340519,-7606.318893460697
18954,-26653,14584,15090,28175,-10738,2291,9798,2816,3576,17,1,41409,2020-11-02 15:16:11,2020-11-02 15:16:41,3,DF:DC:EF:28:D6:3E,17,17,-26653.0,-4818.0283319702085,20425.17463798859
18955,-23861,9725,-27146,-14577,13578,6656,-6213,17406,761,17,1,41435,2020-11-02 15:16:11,2020-11-02 15:16:41,3,DF:DC:EF:28:D6:3E,17,17,20397.569142153927,-17588.131429027497,25988.94126212734
18956,16592,-20753,1008,4883,1275,-1261,-19522,-19970,-2314,17,1,41460,2020-11-02 15:16:11,2020-11-02 15:16:41,3,DF:DC:EF:28:D6:3E,17,17,-16698.42311307481,20687.56325007339,430.0340811399469
18957,29886,-27154,-9285,28182,28661,2075,9410,-22271,-1805,17,1,41486,2020-11-02 15:16:11,2020-11-02 15:16:41,3,DF:DC:EF:28:D6:3E,17,17,-25654.464193165033,-6858.310719602148,31804.65340221464
18958,19128,-18727,-26454,-31740,28419,-24525,10179,-5884,24814,17,1,41512,2020-11-02 15:16:11,2020-11-02 15:16:41,3,DF:DC:EF:28:D6:3E,17,17,-14095.149627527351,-34895.58504346835,-141.17525166777705
18959,-19499,7599,24009,19962,-9206,23105,3520,18183,-17180,17,1,41537,2020-11-02 15:16:11,2020-11-02 15:16:41,3,DF:DC:EF:28:D6:3E,17,17,-2533.4586798540495,-23796.089718535375,-21017.030813720743
18960,-17432,-70,-5413,-4342,-3325,-29890,-31811,18696,-27174,17,1,41563,2020-11-02 15:16:11,2020-11-02 15:16:41,3,DF:DC:EF:28:D6:3E,17,17,-15045.735612207038,9509.539007020296,4046.5541836881757
18961,-23043,-20540,-23083,-7917,-7667,-21697,-15940,-23800,13264,17,1,41588,2020-11-02 15:16:11,2020-11-02 15:16:41,3,DF:DC:EF:28:D6:3E,17,17,-3862.239528481141,38336.42249486131,-1047.928489988486
18962,-19943,-6698,222,-31478,-26094,15406,15292,-23034,2247,17,1,41614,2020-11-02 15:16:11,2020-11-02 15:16:41,3,DF:DC:EF:28:D6:3E,17,17,8356.411791216986,2585.4874824374588,19134.29835279488
18963,19983,-12059,-8996,-7938,-27123,-7151,-16197,-26876,25026,17,1,41640,2020-11-02 15:16:11,2020-11-02 15:16:41,3,DF:DC:EF:28:D6:3E,17,17,-1131.2381170881335,3527.306083024074,-24737.5463237385
18964,-8448,7656,28385,26102,-16884,-12539,-23622,-24318,-11072,17,1,41665,2020-11-02 15:16:11,2020-11-02 15:16:41,3,DF:DC:EF:28:D6:3E,17,17,-24521.199673966312,-10831.448040779032,14733.694882458327
18965,-18683,23018,-7182,-1293,-2807,6657,-28091,-11776,23744,17,1,41691,2020-11-02 15:16:11,2020-11-02 15:16:41,3,DF:DC:EF:28:D6:3E,17,17,788.896212624275,15615.928374706695,-26191.303151270222
18966,23562,-9746,8945,16882,-23548,-32001,-13757,-12033,31168,17,1,41716,2020-11-02 15:16:11,2020-11-02 15:16:41,3,DF:DC:EF:28:D6:3E,17,17,7581.695006955125,17341.617666272643,19286.046316918673
18967,14099,14067,23291,-9230,18178,-17668,-16831,19199,-12864,17,1,41742,2020-11-02 15:16:11,2020-11-02 15:16:41,3,DF:DC:EF:28:D6:3E,17,17,21063.458331220216,9199.732656640075,20268.90754765288
18968,27665,-22027,32497,16888,-29691,-16394,20032,-5634,-4671,17,1,41768,2020-11-02 15:16:11,2020-11-02 15:16:41,3,DF:DC:EF:28:D6:3E,17,17,27665.0,17220.587820696506,-35280.236579559365
18969,-12541,25076,-5919,-26124,525,11759,-6850,-259,27076,17,1,41793,2020-11-02 15:16:11,2020-11-02 15:16:41,3,DF:DC:EF:28:D6:3E,17,17,14681.593512354933,3890.671707337007,-24298.775763476333
18970,28919,-4883,26080,-3865,-24554,-17171,-16325,-32260,8392,17,1,41819,2020-11-02 15:16:11,2020-11-02 15:16:41,3,DF:DC:EF:28:D6:3E,17,17,-20555.36707115955,15638.979938166694,-29550.25957692266
18971,28409,-28697,30447,9442,21018,1768,-25546,10235,-5684,17,-1,41845,2020-11-02 15:16:11,2020-11-02 15:16:41,3,DF:DC:EF:28:D6:3E,17,17,-19672.110136216288,-4284.754586717419,-46392.43321836203
18972,-26895,-29725,21499,22248,284,-4380,28721,23291,-16686,17,-1,41870,2020-11-02 15:16:11,2020-11-02 15:16:41,3,DF:DC:EF:28:D6:3E,17,17,14660.911673062237,2756.418264916294,-42971.891723119465
18973,3315,-11034,-27644,-3080,-9441,-10009,13614,17916,-11304,17,-1,41896,2020-11-02 15:16:11,2020-11-02 15:16:41,3,DF:DC:EF:28:D6:3E,17,17,23354.536307802973,18649.22189954648,-1923.8693793989023
18974,-12294,30437,10752,27658,-5343,30184,-2003,11261,223,17,-1,41921,2020-11-02 15:16:11,2020-11-02 15:16:41,3,DF:DC:EF:28:D6:3E,17,17,2405.019480311593,30437.0,16154.37467992252
18975,25084,16867,13565,27926,-16609,-19738,7984,-7939,19429,17,-1,41947,2020-11-02 15:16:11,2020-11-02 15:16:41,3,DF:DC:EF:28:D6:3E,17,17,4836.58843040834,1635.09877410013,32736.002113174673
18976,-20228,-27418,-31245,-26344,1309,-30235,-29645,19454,20971,17,-1,41972,2020-11-02 15:16:11,2020-11-02 15:16:41,3,DF:DC:EF:28:D6:3E,17,17,-18044.38869680523,-19836.22598143403,37657.574382481005
18977,-29699,19183,19961,3601,24087,24036,23606,17918,6129,17,-1,41998,2020-11-02 15:16:11,2020-11-02 15:16:41,3,DF:DC:EF:28:D6:3E,17,17,11623.446840393723,22854.765110843076,31480.38764495652
18978,21746,-10,16130,-5109,11524,16099,13880,-29441,-15627,17,-1,42024,2020-11-02 15:16:11,2020-11-02 15:16:41,3,DF:DC:EF:28:D6:3E,17,17,-13217.607675248017,6353.693327039977,-22759.414413581744
18979,32743,-23048,27394,-22000,-1023,25843,25402,25601,23800,17,-1,42049,2020-11-02 15:16:11,2020-11-02 15:16:41,3,DF:DC:EF:28:D6:3E,17,17,40851.624129257136,-7466.4763732848805,25082.705706703062
18980,11761,-12313,-27659,-14302,30213,-20477,-27074,-1536,-8712,17,-1,42075,2020-11-02 15:16:11,2020-11-02 15:16:41,3,DF:DC:EF:28:D6:3E,17,17,30740.925471498922,5761.806413180559,8760.619784740124
18981,3553,12519,-1583,-6096,9989,251,-28091,12032,2553,17,-1,42100,2020-11-02 15:16:11,2020-11-02 15:16:41,3,DF:DC:EF:28:D6:3E,17,17,8077.353602559784,-6984.946139519107,-7604.074250507528
18982,-7499,-778,21951,27165,-24324,-12800,5055,6656,-17927,17,-1,42126,2020-11-02 15:16:11,2020-11-02 15:16:41,3,DF:DC:EF:28:D6:3E,17,17,-14384.891741586387,-1264.6520481844477,18170.36683118595
18983,18360,23784,11462,-31473,-19472,-9705,-12863,4611,10232,17,-1,42152,2020-11-02 15:16:11,2020-11-02 15:16:41,3,DF:DC:EF:28:D6:3E,17,17,9478.404638279146,15732.920513009554,-26396.60504012536
18984,31681,-20531,-24645,-14057,26111,-31457,4292,24582,6900,17,-1,42177,2020-11-02 15:16:11,2020-11-02 15:16:41,3,DF:DC:EF:28:D6:3E,17,17,16165.00857074061,-12823.588282522956,40085.30689003419
18985,12783,23501,21434,-4844,26132,4662,-1340,-29176,-15636,17,-1,42203,2020-11-02 15:16:11,2020-11-02 15:16:41,3,DF:DC:EF:28:D6:3E,17,17,11307.11953959697,-31766.348165755062,-6177.913719800107
18986,-24322,-5425,19657,32517,23575,-3023,20675,-12280,5859,17,-1,42229,2020-11-02 15:16:11,2020-11-02 15:16:41,3,DF:DC:EF:28:D6:3E,17,17,13220.496732191394,25395.741516342823,-13699.004963471554
18987,-24066,31199,7893,-2569,29707,-30943,10944,-21496,-549,17,1,42254,2020-11-02 15:16:11,2020-11-02 15:16:41,3,DF:DC:EF:28:D6:3E,17,17,19518.50708900674,10215.161157691367,-33608.447889463554
18988,-14349,3047,3806,31217,-29944,-12775,-18500,6920,22487,17,1,42280,2020-11-02 15:16:11,2020-11-02 15:16:41,3,DF:DC:EF:28:D6:3E,17,17,11522.1690562769,862.022489369613,9806.129892388544
18989,-2,22248,-15894,-14352,-17143,-2020,-22715,-3322,-8238,17,1,42305,2020-11-02 15:16:11,2020-11-02 15:16:41,3,DF:DC:EF:28:D6:3E,17,17,-20422.163083388994,-13110.543327039204,12595.302801651553
18990,-8687,-16151,-22796,-17422,-5363,6426,-27582,-27132,-19506,17,1,42331,2020-11-02 15:16:11,2020-11-02 15:16:41,3,DF:DC:EF:28:D6:3E,17,17,-3702.9040054312864,-28618.016544557267,4824.315182697668
18991,-11750,22252,-19464,-24590,2063,28940,24896,-24575,28364,17,1,42357,2020-11-02 15:16:11,2020-11-02 15:16:41,3,DF:DC:EF:28:D6:3E,17,17,-25138.77920819694,15681.619860114704,11584.035500825328
18992,30226,-8214,1018,-19984,24332,-15877,18750,28159,-17716,17,1,42382,2020-11-02 15:16:11,2020-11-02 15:16:41,3,DF:DC:EF:28:D6:3E,17,17,19063.04175141443,-5351.516917005631,24291.53971799303
18993,518,4331,14844,-15887,-12791,-14863,572,-32514,-5938,17,1,42408,2020-11-02 15:16:11,2020-11-02 15:16:41,3,DF:DC:EF:28:D6:3E,17,17,11414.61118944964,-9761.320767105062,3713.9587067406246
18994,-28168,16877,-12290,1526,-14070,-30478,6970,11774,-22319,17,1,42433,2020-11-02 15:16:11,2020-11-02 15:16:41,3,DF:DC:EF:28:D6:3E,17,17,-15665.035417081854,-21890.07534719591,22466.524423587576
18995,-32518,20722,-28921,-11780,-15088,-17160,825,15613,724,17,1,42459,2020-11-02 15:16:11,2020-11-02 15:16:41,3,DF:DC:EF:28:D6:3E,17,17,-12765.528050385565,20722.0,41603.91638529742
18996,3342,5356,12807,29957,-16877,-30463,14393,2300,20437,17,1,42485,2020-11-02 15:16:11,2020-11-02 15:16:41,3,DF:DC:EF:28:D6:3E,17,17,-1350.6200023934873,14207.031018744246,-459.39551758090147
18997,27669,4329,-18693,14346,-30697,-13838,7226,30968,26584,17,1,42510,2020-11-02 15:16:11,2020-11-02 15:16:41,3,DF:DC:EF:28:D6:3E,17,17,4496.828158584776,-22436.34690468328,24700.828429120917
18998,19209,23271,-6659,-19969,-14077,19168,27961,14329,-26660,17,1,42536,2020-11-02 15:16:11,2020-11-02 15:16:41,3,DF:DC:EF:28:D6:3E,17,17,28431.228952223555,-1937.3500450720758,-11949.029168476587
18999,4858,32492,28929,-25861,-20989,-24609,-6345,-20229,13537,17,1,42561,2020-11-02 15:16:11,2020-11-02 15:16:41,3,DF:DC:EF:28:D6:3E,17,17,-36784.44104007635,-20306.339769221144,12279.036262919604
19000,10748,15602,-6655,-4352,-22777,16360,10039,-25603,1765,17,1,42587,2020-11-02 15:16:11,2020-11-02 15:16:41,3,DF:DC:EF:28:D6:3E,17,17,189.1748406142151,14029.785980051267,-14365.244558782684
19001,12799,-18700,-23037,16906,-1520,-29972,-11465,-2307,-15384,17,1,42613,2020-11-02 15:16:11,2020-11-02 15:16:41,3,DF:DC:EF:28:D6:3E,17,17,-17297.65407675526,-6159.300368662758,26590.636555176767
19002,-7683,6132,-11265,25620,-4338,-8983,-1735,-27139,-10260,17,1,42638,2020-11-02 15:16:11,2020-11-02 15:16:41,3,DF:DC:EF:28:D6:3E,17,17,3266.985437432725,6261.173624226638,13177.8089604794
19003,15856,-24844,-8968,-10984,-16377,-29461,19773,-15363,-19984,17,1,42664,2020-11-02 15:16:11,2020-11-02 15:16:41,3,DF:DC:EF:28:D6:3E,17,17,15017.988466659644,-23981.595058438415,12182.16798719998
19004,13543,1770,-1043,1056,-9219,-15374,-28607,27646,3315,17,1,42689,2020-11-02 15:16:11,2020-11-02 15:16:41,3,DF:DC:EF:28:D6:3E,17,17,-10382.013412890612,-367.60420632242403,8928.17241332477
19005,-24104,-25876,24026,5158,6655,27122,-29766,23039,-780,17,1,42715,2020-11-02 15:16:11,2020-11-02 15:16:41,3,DF:DC:EF:28:D6:3E,17,17,29376.248821594407,-30379.15733410301,-6477.783019026552
19006,-2884,30963,23251,1313,-24067,-30722,4032,-26625,15862,17,1,42741,2020-11-02 15:16:11,2020-11-02 15:16:41,3,DF:DC:EF:28:D6:3E,17,17,-36261.750403102786,4829.344253608948,-13015.249432231776
19007,-23631,228,-19755,-9451,8699,27166,-4157,-16383,12788,17,1,42766,2020-11-02 15:16:11,2020-11-02 15:16:41,3,DF:DC:EF:28:D6:3E,17,17,-11775.01025840631,25180.983269658405,-13266.626737328888
19008,2765,18115,-5668,1042,-24836,13879,-7739,6150,2798,17,1,42792,2020-11-02 15:16:11,2020-11-02 15:16:41,3,DF:DC:EF:28:D6:3E,17,17,-13909.763003924318,5018.1187289101945,-12217.268581692846
19009,32210,13736,-12081,16150,14328,-27339,30662,-30709,-3354,17,-1,42820,2020-11-02 15:16:11,2020-11-02 15:16:41,3,DF:DC:EF:28:D6:3E,17,17,-6780.143788253795,-7688.380382682501,-35595.37630510157
19010,-31251,-19532,7884,9761,18700,31290,-1851,-8689,10462,17,-1,42843,2020-11-02 15:16:11,2020-11-02 15:16:41,3,DF:DC:EF:28:D6:3E,17,17,3728.163213188367,-30343.862410750033,-22037.06636676716
19011,-7159,-19505,23515,30495,-23009,11310,24003,-12529,17106,17,-1,42869,2020-11-02 15:16:11,2020-11-02 15:16:41,3,DF:DC:EF:28:D6:3E,17,17,-29245.199288893848,-9498.91887804235,-6256.22807298884
19012,-16382,14045,-9509,23569,-13800,28955,7362,-26355,13514,17,-1,42894,2020-11-02 15:16:11,2020-11-02 15:16:41,3,DF:DC:EF:28:D6:3E,17,17,-20736.162051202722,7846.377836330799,8031.124967014081
19013,1547,-21535,-13597,19969,-24048,11796,-25152,-19701,7109,17,-1,42920,2020-11-02 15:16:11,2020-11-02 15:16:41,3,DF:DC:EF:28:D6:3E,17,17,-20766.145974594958,12756.468971603648,7554.304980494695
19014,-15585,-24094,-26133,28407,30990,-20986,-23362,-6391,25538,17,-1,42946,2020-11-02 15:16:11,2020-11-02 15:16:41,3,DF:DC:EF:28:D6:3E,17,17,31756.526597488224,-17582.961223569233,-13737.148287526199
19015,13339,31200,19441,19443,25874,-28428,11197,775,-22846,17,-1,42971,2020-11-02 15:16:11,2020-11-02 15:16:41,3,DF:DC:EF:28:D6:3E,17,17,-13135.17647242463,-2375.8066300185856,36757.911854388876
19016,20492,7388,29175,-30992,-12015,6119,-14917,-25597,26821,17,-1,42997,2020-11-02 15:16:11,2020-11-02 15:16:41,3,DF:DC:EF:28:D6:3E,17,17,35834.589245078554,5607.714728307505,-3181.3491104283876
19017,27132,-10023,16635,-16913,-24565,-31267,1210,11521,5322,17,-1,43022,2020-11-02 15:16:11,2020-11-02 15:16:41,3,DF:DC:EF:28:D6:3E,17,17,3835.2667260481467,-10023.0,-31593.66041059611
19018,21744,18654,30459,2032,-4346,20189,-28348,4352,-30257,17,-1,43048,2020-11-02 15:16:11,2020-11-02 15:16:41,3,DF:DC:EF:28:D6:3E,17,17,39964.771838457025,10853.313190366514,-5791.937300410664
19019,-31503,11239,-15877,10479,-32505,-19740,16194,-19969,16596,17,-1,43074,2020-11-02 15:16:11,2020-11-02 15:16:41,3,DF:DC:EF:28:D6:3E,17,17,-20865.09595732173,22138.18850852161,-21104.066888941525
19020,-25099,-21015,19999,32753,-1018,-8470,-14785,32767,2776,17,-1,43125,2020-11-02 15:16:11,2020-11-02 15:16:41,3,DF:DC:EF:28:D6:3E,17,17,-17462.944273999794,26930.365009125006,-21008.35654587177
19021,-3340,-26122,-8970,-16621,-8180,-7957,-16320,-19970,-27941,17,1,43127,2020-11-02 15:16:11,2020-11-02 15:16:41,3,DF:DC:EF:28:D6:3E,17,17,-1680.1039751107246,-2207.1398218671693,-27681.78405449232
19022,-15878,-16400,19453,30722,-24814,27377,-12479,10236,-29986,17,1,43150,2020-11-02 15:16:11,2020-11-02 15:16:41,3,DF:DC:EF:28:D6:3E,17,17,-24312.766703945308,4227.806342321703,17044.210798137676
19023,-1031,-15380,1541,-7175,13063,-24856,-21952,10491,-6175,17,1,43176,2020-11-02 15:16:11,2020-11-02 15:16:41,3,DF:DC:EF:28:D6:3E,17,17,12987.502357009027,8356.329563194038,1215.9690612734792
19024,-13839,30448,12808,-4607,-14585,12522,-26049,21243,-23323,17,1,43202,2020-11-02 15:16:11,2020-11-02 15:16:41,3,DF:DC:EF:28:D6:3E,17,17,12089.214983772006,31280.224589222755,-12571.472456475665
19025,2803,-8972,-13050,-17138,-26609,8434,-32704,11514,-14360,17,1,43227,2020-11-02 15:16:11,2020-11-02 15:16:41,3,DF:DC:EF:28:D6:3E,17,17,14206.479968875792,7086.371358820577,2572.03438134451
19026,-24588,-10254,-9211,15636,29447,-30220,-16830,-10760,747,17,1,43253,2020-11-02 15:16:11,2020-11-02 15:16:41,3,DF:DC:EF:28:D6:3E,17,17,-24356.240972355306,-4108.3689365369555,-13581.296380605902
19027,20719,24558,12039,18709,17397,-15117,30533,-26375,-4884,17,1,43278,2020-11-02 15:16:11,2020-11-02 15:16:41,3,DF:DC:EF:28:D6:3E,17,17,-28780.495308971636,18510.665293275433,-2519.5646787868213
19028,24289,7916,-5378,-32741,-26399,3827,11196,9981,-4114,17,1,43304,2020-11-02 15:16:11,2020-11-02 15:16:41,3,DF:DC:EF:28:D6:3E,17,17,16283.411105550578,8802.464009549061,-18409.47069114769
19029,-10567,-28696,-13604,17703,31206,-22283,-30527,25857,-13071,17,1,43330,2020-11-02 15:16:11,2020-11-02 15:16:41,3,DF:DC:EF:28:D6:3E,17,17,-8295.690205497614,-29913.685321638593,12511.74150517803
19030,416,5856,-25394,-4564,-8198,-4590,1992,-27900,18418,17,1,43355,2020-11-02 15:16:11,2020-11-02 15:16:41,3,DF:DC:EF:28:D6:3E,17,17,18468.711719363724,-8547.847358187912,16283.796270162466
19031,-17187,30401,-26936,-7124,26906,6963,31437,24839,-8981,17,1,43381,2020-11-02 15:16:11,2020-11-02 15:16:41,3,DF:DC:EF:28:D6:3E,17,17,6636.25349847594,-42180.43247518191,11042.333164263115
19032,28680,-12845,-10580,28696,-20731,16418,-10801,25611,17125,17,1,43406,2020-11-02 15:16:11,2020-11-02 15:16:41,3,DF:DC:EF:28:D6:3E,17,17,23811.019171205917,-13957.458796332165,18376.548505558767
19033,-19994,-21287,-12884,5119,-29937,18451,-6450,12301,31969,17,1,43432,2020-11-02 15:16:11,2020-11-02 15:16:41,3,DF:DC:EF:28:D6:3E,17,17,-16240.3181565407,-23865.331340043067,13623.211339632544
19034,-12827,2779,12498,-32529,-2284,-2288,7882,13581,31452,17,1,43458,2020-11-02 15:16:11,2020-11-02 15:16:41,3,DF:DC:EF:28:D6:3E,17,17,-4785.8241692009,-15602.930234699954,7880.306409815454
19035,-26398,-15903,-27673,-18445,30491,-25586,22981,26635,-21289,17,-1,43483,2020-11-02 15:16:11,2020-11-02 15:16:41,3,DF:DC:EF:28:D6:3E,17,17,3998.7967676875796,11224.742834220706,-39668.24315137163
19036,-18968,-23834,31212,4602,-4837,-20465,19138,-25336,20947,17,-1,43509,2020-11-02 15:16:11,2020-11-02 15:16:41,3,DF:DC:EF:28:D6:3E,17,17,10688.453037454414,-20908.439328866527,36750.88652668447
19037,3572,26089,-4881,6395,30745,-20721,29376,-21755,-31537,17,-1,43534,2020-11-02 15:16:11,2020-11-02 15:16:41,3,DF:DC:EF:28:D6:3E,17,17,-2554.4505235465467,953.3479269468673,26641.793788199375
19038,-20737,28651,5110,-8199,29719,5387,8639,-17918,-29236,17,-1,43560,2020-11-02 15:16:11,2020-11-02 15:16:41,3,DF:DC:EF:28:D6:3E,17,17,-5973.2250676017175,19221.505005350507,-29527.43466034697
19039,-9208,-29718,-31487,-23302,-30440,-12032,13502,18175,-4406,17,-1,43586,2020-11-02 15:16:11,2020-11-02 15:16:41,3,DF:DC:EF:28:D6:3E,17,17,7151.561228436293,40998.09976696822,15079.421225420005
19040,-31483,-31771,27647,-18686,-3560,-22029,10174,20475,16843,17,-1,43611,2020-11-02 15:16:11,2020-11-02 15:16:41,3,DF:DC:EF:28:D6:3E,17,17,24485.319279995892,43652.03208352926,16121.463138784693
19041,2812,-25125,23545,-3321,-8933,-8728,-20034,-21258,20173,17,-1,43637,2020-11-02 15:16:11,2020-11-02 15:16:41,3,DF:DC:EF:28:D6:3E,17,17,-3984.199742890419,-27913.324456417413,19962.776966131772
19042,-6407,-26918,-14089,8446,19223,12257,-31299,2546,1745,17,-1,43663,2020-11-02 15:16:11,2020-11-02 15:16:41,3,DF:DC:EF:28:D6:3E,17,17,-6407.0,5874.665397429833,-29808.840156373753
19043,-25353,11995,13067,-30736,-32502,30170,30788,24815,-31529,17,-1,43688,2020-11-02 15:16:11,2020-11-02 15:16:41,3,DF:DC:EF:28:D6:3E,17,17,-8903.991894481109,26068.11137183278,-14091.615267553158
19044,-22032,16608,-2028,-4877,-6136,-21032,-10948,-27409,-24097,17,-1,43714,2020-11-02 15:16:11,2020-11-02 15:16:41,3,DF:DC:EF:28:D6:3E,17,17,-7457.481124878739,-2483.0001591743467,26524.859235849253
19045,-31250,-8728,-13032,-29945,-22002,26338,7480,-23568,-19994,17,-1,43739,2020-11-02 15:16:11,2020-11-02 15:16:41,3,DF:DC:EF:28:D6:3E,17,17,-8561.815560288873,-7533.930666026716,33053.11953554607
19046,-18952,30953,5134,-7655,-28140,-16152,14135,-22288,-10260,17,-1,43765,2020-11-02 15:16:11,2020-11-02 15:16:41,3,DF:DC:EF:28:D6:3E,17,17,-6613.033498382867,-22181.378980529007,-28423.206776706455
19047,-28167,-537,-3830,-21472,7442,10470,3128,-31248,-1806,17,-1,43791,2020-11-02 15:16:11,2020-11-02 15:16:41,3,DF:DC:EF:28:D6:3E,17,17,-11662.592749902513,-537.0,25923.593874112463
19048,22257,-10259,-9980,-16096,11532,-15390,22585,6385,8441,17,-1,43816,2020-11-02 15:16:11,2020-11-02 15:16:41,3,DF:DC:EF:28:D6:3E,17,17,599.8098487333227,22338.296831400316,-14172.588077610004
19049,-7452,26868,-7420,7967,2053,-3095,13883,13554,7166,17,-1,43844,2020-11-02 15:16:11,2020-11-02 15:16:41,3,DF:DC:EF:28:D6:3E,17,17,18926.535746633508,21269.73039279259,-4675.782463857729
19050,-2585,-23819,19968,-14303,-29955,31740,2879,-13070,8960,17,-1,43867,2020-11-02 15:16:11,2020-11-02 15:16:41,3,DF:DC:EF:28:D6:3E,17,17,10814.033485869038,-27242.72029387275,-10660.153880517726
19051,-30229,-14371,-27416,-11479,12284,-30452,-13755,-22029,-19458,17,-1,43893,2020-11-02 15:16:11,2020-11-02 15:16:41,3,DF:DC:EF:28:D6:3E,17,17,-28881.485961924704,15023.443697986768,-28497.56210774121
19052,14838,22232,3796,7464,-13573,-19182,27073,-25100,-30213,17,-1,43919,2020-11-02 15:16:11,2020-11-02 15:16:41,3,DF:DC:EF:28:D6:3E,17,17,4284.269585778802,-26618.6082911129,1390.1117799177252
19053,-8476,6102,14279,-14566,-4107,-25066,27847,30455,9465,17,-1,43944,2020-11-02 15:16:11,2020-11-02 15:16:41,3,DF:DC:EF:28:D6:3E,17,17,192.25614411601146,12918.004137891256,-12085.322820201123
19054,30189,-15155,-14920,787,17914,12325,-26421,-2565,14582,17,-1,43970,2020-11-02 15:16:11,2020-11-02 15:16:41,3,DF:DC:EF:28:D6:3E,17,17,-31837.85477694906,18629.52313772773,-1716.9789931065625
19055,-14598,4823,27067,12293,-6401,24351,25293,24576,-2830,17,-1,43995,2020-11-02 15:16:11,2020-11-02 15:16:41,3,DF:DC:EF:28:D6:3E,17,17,25693.742739574016,17331.849957074493,2902.4098776782794
19056,-25877,-9508,-23860,-14858,28932,25364,28620,-7422,7920,17,-1,44021,2020-11-02 15:16:11,2020-11-02 15:16:41,3,DF:DC:EF:28:D6:3E,17,17,-7951.2727179926305,-34301.59204222308,-9460.38257857496
19057,21466,-6170,1247,28145,2040,-2287,1738,9221,20206,17,-1,44047,2020-11-02 15:16:11,2020-11-02 15:16:41,3,DF:DC:EF:28:D6:3E,17,17,-11650.163831110553,7893.061049026114,-17389.259184468734
19058,-3122,20711,23527,13816,5107,1819,-11577,6665,-14612,17,-1,44072,2020-11-02 15:16:11,2020-11-02 15:16:41,3,DF:DC:EF:28:D6:3E,17,17,22340.65888153781,18118.797364733848,-12838.079170751354
19059,25811,8410,-31250,-17153,14070,-19934,-23099,19725,5353,17,1,44098,2020-11-02 15:16:11,2020-11-02 15:16:41,3,DF:DC:EF:28:D6:3E,17,17,-21771.940013773725,18152.93512690978,-30165.408920066762
19060,18657,-18989,-5643,29703,14071,25376,19907,6673,11236,17,1,44123,2020-11-02 15:16:11,2020-11-02 15:16:41,3,DF:DC:EF:28:D6:3E,17,17,-9720.835851669957,21127.9986818213,-14128.773515271792
19061,17112,28380,32487,22795,3069,24865,-8000,-20205,26590,17,1,44149,2020-11-02 15:16:11,2020-11-02 15:16:41,3,DF:DC:EF:28:D6:3E,17,17,42782.74456603043,-15746.439117235766,8679.662178044782
19062,32246,5601,-24842,27914,-25851,-14291,-19014,-32748,27348,17,1,44175,2020-11-02 15:16:11,2020-11-02 15:16:41,3,DF:DC:EF:28:D6:3E,17,17,-27747.99737234191,-18280.76042678485,-24169.466709942175
19063,12557,24801,-8704,-19699,20744,-11480,22593,-17902,12746,17,1,44200,2020-11-02 15:16:11,2020-11-02 15:16:41,3,DF:DC:EF:28:D6:3E,17,17,27093.744386476163,-3152.1967259082385,-10223.50903171042
19064,5639,21223,-24068,-14058,-17648,-26853,24128,-29681,31172,17,1,44226,2020-11-02 15:16:11,2020-11-02 15:16:41,3,DF:DC:EF:28:D6:3E,17,17,-30404.954954336215,-10332.542711398393,-5500.904411268521
19065,3342,28900,-526,22554,-233,12827,13122,23819,-29504,17,1,44252,2020-11-02 15:16:11,2020-11-02 15:16:41,3,DF:DC:EF:28:D6:3E,17,17,4765.939626768456,-24600.310819079907,-14790.745994663632
19066,2585,28645,10985,19988,538,-22260,-6844,-1786,-8771,17,1,44277,2020-11-02 15:16:11,2020-11-02 15:16:41,3,DF:DC:EF:28:D6:3E,17,17,22198.28035611515,11181.350554665201,-18168.71552986068
19067,-2291,-1309,22754,5891,-11495,26102,1722,-14078,3262,17,1,44303,2020-11-02 15:16:11,2020-11-02 15:16:41,3,DF:DC:EF:28:D6:3E,17,17,-19736.76124746206,-1309.0,-11552.205523651315
19068,31222,15581,14310,-6926,20251,12264,-8635,-19202,193,17,1,44328,2020-11-02 15:16:11,2020-11-02 15:16:41,3,DF:DC:EF:28:D6:3E,17,17,-30150.428265651175,20459.900020332483,9731.449612253116
19069,-2581,16088,1525,19177,8984,-20507,-31934,12283,16581,17,1,44354,2020-11-02 15:16:11,2020-11-02 15:16:41,3,DF:DC:EF:28:D6:3E,17,17,-9268.236442902686,12799.294287724173,-4253.091696011497
19070,-11539,27097,-506,25837,-9450,22502,9022,4345,6090,17,1,44380,2020-11-02 15:16:11,2020-11-02 15:16:41,3,DF:DC:EF:28:D6:3E,17,17,-18912.449644406643,-1569.3468596703767,22527.946308570292
19071,32751,28126,-22516,-4356,17431,5606,571,-29961,30159,17,-1,44405,2020-11-02 15:16:11,2020-11-02 15:16:41,3,DF:DC:EF:28:D6:3E,17,17,23481.39865839146,19773.932201312527,-37792.66668738245
19072,-30733,-18718,-8956,-10232,-13800,-15647,30265,-32522,-31275,17,-1,44431,2020-11-02 15:16:11,2020-11-02 15:16:41,3,DF:DC:EF:28:D6:3E,17,17,15045.268343810309,1866.8630133130546,33841.4756172402
19073,-2067,29673,-4873,-16112,32022,-31,8249,16630,-9253,17,-1,44456,2020-11-02 15:16:11,2020-11-02 15:16:41,3,DF:DC:EF:28:D6:3E,17,17,28379.60110238778,-6936.362137240161,-7415.569335554189
19074,5618,-6416,502,7440,-30959,-12828,26169,13814,-26911,17,-1,44482,2020-11-02 15:16:11,2020-11-02 15:16:41,3,DF:DC:EF:28:D6:3E,17,17,-4624.178114999037,-1643.2544488184512,-6992.544284965404
19075,8442,-6669,17145,-8948,-23290,-15646,-22983,12023,25830,17,-1,44507,2020-11-02 15:16:11,2020-11-02 15:16:41,3,DF:DC:EF:28:D6:3E,17,17,5436.111317766317,19475.891262814752,-912.3065602466013
19076,12272,5880,-24068,26123,24581,-22817,-5831,5881,18155,17,-1,44533,2020-11-02 15:16:11,2020-11-02 15:16:41,3,DF:DC:EF:28:D6:3E,17,17,10800.250975629446,15708.618653701596,-20025.9553294217
19077,-7704,-9473,27646,-16882,6652,-12825,-11718,-28165,2799,17,-1,44559,2020-11-02 15:16:11,2020-11-02 15:16:41,3,DF:DC:EF:28:D6:3E,17,17,2847.7386097506187,29080.595644633875,7720.103805250086
19078,-536,30461,14073,29725,-16382,-16143,-3267,-9988,32753,17,-1,44584,2020-11-02 15:16:11,2020-11-02 15:16:41,3,DF:DC:EF:28:D6:3E,17,17,25768.509578925517,20273.941813877274,7152.645902625298
19079,-10518,-19981,21988,31530,13058,17914,-25277,4349,-1294,17,-1,44610,2020-11-02 15:16:11,2020-11-02 15:16:41,3,DF:DC:EF:28:D6:3E,17,17,-10518.0,-3580.120078354894,-29493.98659429681
19080,-27405,28652,25057,9770,-26115,-17670,-24387,3325,-26893,17,-1,44635,2020-11-02 15:16:11,2020-11-02 15:16:41,3,DF:DC:EF:28:D6:3E,17,17,46438.04684446506,3896.5689245650683,5305.556887583232
19081,-15162,20715,24285,-12001,22505,17654,707,-8194,-22027,17,-1,44661,2020-11-02 15:16:11,2020-11-02 15:16:41,3,DF:DC:EF:28:D6:3E,17,17,31264.000729098436,-16467.825787679405,362.8584263504472
19082,-17503,6630,32206,-24549,-20248,6924,25031,259,-31753,17,-1,44687,2020-11-02 15:16:11,2020-11-02 15:16:41,3,DF:DC:EF:28:D6:3E,17,17,-24181.708777471857,-11099.482953110186,-26068.84699742505
19083,-3638,17107,-21803,-18408,-27392,26922,-27446,-27897,23796,17,-1,44712,2020-11-02 15:16:11,2020-11-02 15:16:41,3,DF:DC:EF:28:D6:3E,17,17,-10983.431390058826,-20853.82803570435,-15024.559665998253
19084,3302,11984,-22036,-26868,16122,18725,21707,15884,-28945,17,-1,44738,2020-11-02 15:16:11,2020-11-02 15:16:41,3,DF:DC:EF:28:D6:3E,17,17,14068.122791540336,16695.615788066472,-12784.72098168
19085,-23599,7622,-28428,28681,-12303,-31205,28363,-14320,13037,17,-1,44763,2020-11-02 15:16:11,2020-11-02 15:16:41,3,DF:DC:EF:28:D6:3E,17,17,24854.943195108415,9361.880907111798,-26790.77926542992
19086,16853,-15162,-29210,-6889,27132,-20449,-309,-1004,11242,17,-1,44789,2020-11-02 15:16:11,2020-11-02 15:16:41,3,DF:DC:EF:28:D6:3E,17,17,21864.097832453088,5989.246945394745,-29210.0
19087,21231,27612,4060,12308,-17664,-1765,28106,-4841,-7709,17,-1,44815,2020-11-02 15:16:11,2020-11-02 15:16:41,3,DF:DC:EF:28:D6:3E,17,17,-1130.5341067980871,-25956.724092812263,-23550.623601148778
19088,-30484,-27926,4833,-20992,27383,12049,-21305,27930,31711,17,-1,44840,2020-11-02 15:16:11,2020-11-02 15:16:41,3,DF:DC:EF:28:D6:3E,17,17,32998.23274348925,-11683.7672045932,-22518.877430178138
19089,16623,-26130,-4113,-8189,-6916,-25321,-22847,-25828,2777,17,-1,44868,2020-11-02 15:16:11,2020-11-02 15:16:41,3,DF:DC:EF:28:D6:3E,17,17,-4993.256562265163,25288.077343019406,-17652.148061832715
19090,-24054,-27918,5357,-29423,12556,8733,-30142,-5861,-17974,17,-1,44892,2020-11-02 15:16:11,2020-11-02 15:16:41,3,DF:DC:EF:28:D6:3E,17,17,-10012.028967670873,11761.039264945683,-33884.2783656215
19091,26385,-13842,-25878,-8177,-7667,25109,13118,26136,7875,17,-1,44917,2020-11-02 15:16:11,2020-11-02 15:16:41,3,DF:DC:EF:28:D6:3E,17,17,-33222.71817374829,2471.1165003749047,21156.196571909386
19092,19980,-17426,29673,27398,5907,-25074,-20419,-5100,-23616,17,-1,44943,2020-11-02 15:16:11,2020-11-02 15:16:41,3,DF:DC:EF:28:D6:3E,17,17,-29284.936105674762,1107.4069289190506,-26916.89009117377
19093,-5112,30702,-2332,17665,2588,-14077,29246,-6640,-8256,17,-1,44968,2020-11-02 15:16:11,2020-11-02 15:16:41,3,DF:DC:EF:28:D6:3E,17,17,17640.3464738964,-15493.279631139534,-20565.992184969044
19094,-22275,10218,-31006,12793,-23264,17653,-8385,-24820,-15677,17,-1,44994,2020-11-02 15:16:11,2020-11-02 15:16:41,3,DF:DC:EF:28:D6:3E,17,17,-16779.170112550037,12766.128970390546,33428.14063697625
19095,25328,-22044,31466,-27410,-19681,13290,3136,-26872,20936,17,1,45020,2020-11-02 15:16:11,2020-11-02 15:16:41,3,DF:DC:EF:28:D6:3E,17,17,-4074.5771534358973,22847.65231898753,-39735.84377525362
19096,-27159,2020,1266,-11032,-2788,16616,-27330,26885,31181,17,1,45045,2020-11-02 15:16:11,2020-11-02 15:16:41,3,DF:DC:EF:28:D6:3E,17,17,2700.2390048267316,-17160.54184090737,-21012.35232055849
19097,-7695,-4635,29695,30441,22044,-19991,4412,-7934,30674,17,1,45096,2020-11-02 15:16:11,2020-11-02 15:16:41,3,DF:DC:EF:28:D6:3E,17,17,-12711.978799254095,26633.176492209353,9569.157744657648
19098,-776,-11800,-30969,-28431,-8169,4839,-6855,16897,-28969,17,1,45098,2020-11-02 15:16:11,2020-11-02 15:16:41,3,DF:DC:EF:28:D6:3E,17,17,29439.60219776089,-14823.029537878592,3536.771798797746
19099,-14599,23020,-8952,2045,274,-26396,2873,-256,-24356,17,1,45122,2020-11-02 15:16:11,2020-11-02 15:16:41,3,DF:DC:EF:28:D6:3E,17,17,-7879.050221000638,-26095.43578128079,-8952.0
19100,-16649,-14609,-6911,24584,9492,-541,-1991,-1024,-16159,17,1,45148,2020-11-02 15:16:11,2020-11-02 15:16:41,3,DF:DC:EF:28:D6:3E,17,17,-6355.49742682301,21218.38199433798,-6911.0
19101,-4879,15347,8954,12814,8729,26343,6460,-8705,2023,17,1,45173,2020-11-02 15:16:11,2020-11-02 15:16:41,3,DF:DC:EF:28:D6:3E,17,17,-17573.862280473728,757.4882901884357,5485.867482647587
19102,-14609,-23311,24574,5900,-6892,-16660,4414,-6915,28139,17,1,45199,2020-11-02 15:16:11,2020-11-02 15:16:41,3,DF:DC:EF:28:D6:3E,17,17,1033.810891396275,36860.13278987158,984.3392473451077
19103,-8460,27383,19459,1285,23292,4592,831,10238,27630,17,1,45224,2020-11-02 15:16:11,2020-11-02 15:16:41,3,DF:DC:EF:28:D6:3E,17,17,13008.41909637395,-26831.434451514942,17632.587101362937
19104,4612,19445,-19711,16907,-11537,14583,3904,32512,11759,17,1,45250,2020-11-02 15:16:11,2020-11-02 15:16:41,3,DF:DC:EF:28:D6:3E,17,17,-26091.452226377394,10284.567839326417,-1168.706582919258
19105,-10767,2795,-7436,15128,249,-25627,25923,-19710,-22031,17,1,45276,2020-11-02 15:16:11,2020-11-02 15:16:41,3,DF:DC:EF:28:D6:3E,17,17,-11221.028233751687,5930.353715606001,-4237.197208668197
19106,31438,30191,-29721,-25316,31223,18914,-10309,6404,23286,17,-1,45301,2020-11-02 15:16:11,2020-11-02 15:16:41,3,DF:DC:EF:28:D6:3E,17,17,5120.877228363888,19234.617284248226,-48856.81406252892
19107,5568,32245,-3357,-19944,14331,-25092,29632,5893,-2824,17,-1,45327,2020-11-02 15:16:11,2020-11-02 15:16:41,3,DF:DC:EF:28:D6:3E,17,17,-23811.605559467764,5927.578380217574,-21906.240052247696
19108,14807,-11286,21226,7700,-4357,14607,-30525,28166,-14345,17,-1,45352,2020-11-02 15:16:11,2020-11-02 15:16:41,3,DF:DC:EF:28:D6:3E,17,17,-18903.471927515857,15299.070275774731,14344.382830311177
19109,7645,-11545,8177,24851,-25095,-31729,-4411,-28152,-3083,17,-1,45378,2020-11-02 15:16:11,2020-11-02 15:16:41,3,DF:DC:EF:28:D6:3E,17,17,1191.2685226306157,-11545.0,-11130.598964430867
19110,-19246,-4114,7670,-3562,-1542,20493,-17720,-25334,-25100,17,-1,45404,2020-11-02 15:16:11,2020-11-02 15:16:41,3,DF:DC:EF:28:D6:3E,17,17,-8655.312436017039,2134.4084327951123,19149.21093092198
19111,-30017,-19735,5623,-31975,31226,2069,-18741,13069,3315,17,-1,45429,2020-11-02 15:16:11,2020-11-02 15:16:41,3,DF:DC:EF:28:D6:3E,17,17,9962.064708728241,20331.019725730424,28451.986690758025
19112,22207,25285,-27160,28187,-23040,-16093,-15411,10513,-19729,17,-1,45455,2020-11-02 15:16:11,2020-11-02 15:16:41,3,DF:DC:EF:28:D6:3E,17,17,-7110.942281074083,34561.16562514782,-25002.159996814953
19113,28640,-10812,11743,1303,-9723,8489,-20788,30485,7657,17,-1,45480,2020-11-02 15:16:11,2020-11-02 15:16:41,3,DF:DC:EF:28:D6:3E,17,17,-779.1952177185094,21664.354998211886,24598.69041888483
19114,14078,26844,-3355,25100,1544,-20446,3783,14360,-31521,17,-1,45506,2020-11-02 15:16:11,2020-11-02 15:16:41,3,DF:DC:EF:28:D6:3E,17,17,-28268.568650135647,-928.6281432482574,-11404.916538236284
19115,3081,18151,22507,1800,-16633,-24548,16575,-6376,14549,17,-1,45532,2020-11-02 15:16:11,2020-11-02 15:16:41,3,DF:DC:EF:28:D6:3E,17,17,27284.59876854308,7711.756240064231,6449.488098558518
19116,24331,3562,-14358,9740,6414,-25829,31813,28695,10444,17,-1,45557,2020-11-02 15:16:11,2020-11-02 15:16:41,3,DF:DC:EF:28:D6:3E,17,17,18344.25831736004,4957.097261657275,21207.379435574705
19117,3088,-9237,3812,-3827,30996,-3308,-17598,8724,15558,17,-1,45583,2020-11-02 15:16:11,2020-11-02 15:16:41,3,DF:DC:EF:28:D6:3E,17,17,-8633.555657469831,-4402.388909957183,-3933.1851716969377
19118,-11510,22771,-7716,-24566,15387,32003,-23741,-8689,-13884,17,-1,45608,2020-11-02 15:16:11,2020-11-02 15:16:41,3,DF:DC:EF:28:D6:3E,17,17,2164.449126335502,26463.637088621093,2350.8017826400487
19119,12795,-1803,-4905,11006,-24038,6904,2885,-23285,5062,17,-1,45634,2020-11-02 15:16:11,2020-11-02 15:16:41,3,DF:DC:EF:28:D6:3E,17,17,-12075.486368435302,-1803.0,-6477.165967128925
19120,20211,-29458,-23581,15854,-23777,7414,6980,20743,-1081,17,-1,45660,2020-11-02 15:16:11,2020-11-02 15:16:41,3,DF:DC:EF:28:D6:3E,17,17,-25304.81997504895,3926.501966491347,34301.17365830946
19121,-13328,17379,29424,26600,-6621,-16400,32065,-17150,-14646,17,-1,45685,2020-11-02 15:16:11,2020-11-02 15:16:41,3,DF:DC:EF:28:D6:3E,17,17,24682.888742914736,-25714.639205443993,-8657.328389216607
19122,19442,-16928,25081,-12048,-6872,-6682,-15298,-3843,-29745,17,-1,45711,2020-11-02 15:16:11,2020-11-02 15:16:41,3,DF:DC:EF:28:D6:3E,17,17,-23109.5262342086,27110.89853862339,4955.20803386626
19123,-26632,22494,-4103,-1797,19491,26078,-28356,23802,6614,17,1,45737,2020-11-02 15:16:11,2020-11-02 15:16:41,3,DF:DC:EF:28:D6:3E,17,17,11107.203616254832,-4167.128993477508,-33035.48293545555
19124,2044,-13601,-13319,32256,-14568,32726,-32710,14073,-29219,17,1,45762,2020-11-02 15:16:11,2020-11-02 15:16:41,3,DF:DC:EF:28:D6:3E,17,17,-13127.51334254564,-12953.67648097954,5141.163007277988
19125,1010,-27427,31732,2306,10775,-32049,-22728,-7,-25115,17,1,45788,2020-11-02 15:16:11,2020-11-02 15:16:41,3,DF:DC:EF:28:D6:3E,17,17,-24598.254911272412,-19910.73298588841,-27543.943441067357
19126,-27162,-30989,1023,19962,-2040,16339,-7370,-32004,19437,17,1,45813,2020-11-02 15:16:11,2020-11-02 15:16:41,3,DF:DC:EF:28:D6:3E,17,17,-15410.64158389534,18239.88895433434,33599.96236465553
19127,2548,-9216,15120,-29702,-23817,-3346,27445,-17153,-2833,17,1,45839,2020-11-02 15:16:11,2020-11-02 15:16:41,3,DF:DC:EF:28:D6:3E,17,17,1584.2582699697941,17466.83333893492,3527.211199220117
19128,30463,-1289,26886,-27890,-1789,-15631,25142,25601,19953,17,1,45865,2020-11-02 15:16:11,2020-11-02 15:16:41,3,DF:DC:EF:28:D6:3E,17,17,4286.395263696864,-22015.151352302706,33903.87607012746
19129,14587,-10766,-11269,28698,-9204,30955,8250,-16127,31988,17,1,45892,2020-11-02 15:16:11,2020-11-02 15:16:41,3,DF:DC:EF:28:D6:3E,17,17,5700.30775564563,-6347.4148807500205,19567.69025262204
19130,32494,2294,-2834,13085,9479,-25622,-4290,-10751,11768,17,1,45916,2020-11-02 15:16:11,2020-11-02 15:16:41,3,DF:DC:EF:28:D6:3E,17,17,-10384.442160017843,17177.9427531814,25811.54144551748
19131,11488,-2308,-1308,-19178,-20483,-6159,11843,28930,-7942,17,1,45941,2020-11-02 15:16:11,2020-11-02 15:16:41,3,DF:DC:EF:28:D6:3E,17,17,4375.02370473539,-2834.7603845255035,10575.21504014591
19132,25568,-4870,-20758,-23534,-14853,-1024,15942,25347,-27397,17,1,45967,2020-11-02 15:16:11,2020-11-02 15:16:41,3,DF:DC:EF:28:D6:3E,17,17,-2811.982977866094,-28721.63782584653,16598.02278384667
19133,27358,25851,4319,32279,2560,-26618,-11588,-2557,-9734,17,1,45993,2020-11-02 15:16:11,2020-11-02 15:16:41,3,DF:DC:EF:28:D6:3E,17,17,9033.875559914824,-26711.528513586916,-25303.585967917807
19134,30172,5876,15579,18454,-7413,-16108,-4673,-22525,-32264,17,1,46018,2020-11-02 15:16:11,2020-11-02 15:16:41,3,DF:DC:EF:28:D6:3E,17,17,-14731.27747992172,-29084.523757802424,-11165.220221356025
19135,-17169,14064,-11810,31763,26639,2844,28354,-3582,-8717,17,1,46044,2020-11-02 15:16:11,2020-11-02 15:16:41,3,DF:DC:EF:28:D6:3E,17,17,-24532.89258314425,4651.1663959575335,-2924.139131611446
19136,-18706,18418,9184,-12021,-1781,-30182,11716,-7934,13551,17,1,46069,2020-11-02 15:16:11,2020-11-02 15:16:41,3,DF:DC:EF:28:D6:3E,17,17,23295.08793467201,-12415.289651247002,-8756.853144340022
19137,-10271,20710,-23835,-29947,9991,-24547,-20796,-16381,-12310,17,1,46095,2020-11-02 15:16:11,2020-11-02 15:16:41,3,DF:DC:EF:28:D6:3E,17,17,-15657.294339193575,23138.954083891753,-17942.7618799171
19138,28137,-25899,3050,-26102,6157,-31961,-10300,15365,14565,17,-1,46121,2020-11-02 15:16:11,2020-11-02 15:16:41,3,DF:DC:EF:28:D6:3E,17,17,6392.90580228004,13489.83009612934,-35339.87421285958
19139,-2822,-25384,14830,30993,-31976,-31707,-22331,29445,18142,17,-1,46146,2020-11-02 15:16:11,2020-11-02 15:16:41,3,DF:DC:EF:28:D6:3E,17,17,-13586.163003538466,-25561.304663993484,-5854.563921914898
19140,-1281,-11550,12262,11792,21268,-23525,4295,-1788,7640,17,-1,46172,2020-11-02 15:16:11,2020-11-02 15:16:41,3,DF:DC:EF:28:D6:3E,17,17,9026.862620714117,-7318.415964315929,12262.0
19141,14850,9452,24290,19203,2318,277,30919,-4604,-20013,17,-1,46197,2020-11-02 15:16:11,2020-11-02 15:16:41,3,DF:DC:EF:28:D6:3E,17,17,-11036.01572089325,-27809.148383029205,-2173.59775921422
19142,25095,24557,-16920,-8712,-13813,25104,12998,-6652,18896,17,-1,46249,2020-11-02 15:16:11,2020-11-02 15:16:41,3,DF:DC:EF:28:D6:3E,17,17,10315.140647721528,-6688.6035509216035,36985.836883276315
19143,21517,23021,18928,-269,8206,31241,6596,-1533,-27187,17,-1,46251,2020-11-02 15:16:11,2020-11-02 15:16:41,3,DF:DC:EF:28:D6:3E,17,17,-11423.917889808705,18564.723336886254,29598.345586734733
19144,-19699,-2582,-28682,31730,-26354,6912,-1855,6914,8652,17,-1,46274,2020-11-02 15:16:11,2020-11-02 15:16:41,3,DF:DC:EF:28:D6:3E,17,17,-16618.218048762035,-30660.147342193657,1079.186192820769
19145,-19192,29419,3322,-22542,29454,246,704,-23553,20172,17,-1,46300,2020-11-02 15:16:11,2020-11-02 15:16:41,3,DF:DC:EF:28:D6:3E,17,17,-19059.73452314008,-26999.487574160183,12353.149381440839
19146,-12542,490,-8708,-20236,7951,-11539,8382,-7940,462,17,-1,46326,2020-11-02 15:16:11,2020-11-02 15:16:41,3,DF:DC:EF:28:D6:3E,17,17,-3164.3464987532398,7592.277465582551,-12873.04789556209
19147,-6402,15081,-13055,-22282,-31729,14056,7356,250,-2864,17,-1,46351,2020-11-02 15:16:11,2020-11-02 15:16:41,3,DF:DC:EF:28:D6:3E,17,17,-6402.0,19133.702781464504,5636.577318779323
19148,-9214,14825,-24327,-15628,-10481,31459,4166,28407,3029,17,-1,46377,2020-11-02 15:16:11,2020-11-02 15:16:41,3,DF:DC:EF:28:D6:3E,17,17,24433.40662599329,14825.0,8928.010172981838
19149,-7422,-27673,8442,-3346,4620,-22307,-20159,-12555,-30502,17,-1,46402,2020-11-02 15:16:11,2020-11-02 15:16:41,3,DF:DC:EF:28:D6:3E,17,17,-25388.621390702858,14953.110890554795,-4895.9938290725695
19150,7936,-15386,2300,-16409,14596,13018,-7621,31478,-16928,17,-1,46428,2020-11-02 15:16:11,2020-11-02 15:16:41,3,DF:DC:EF:28:D6:3E,17,17,-1073.6456320836342,12979.660850649923,11635.06687814099
19151,9468,-4634,-19201,-22813,-5380,-25380,8502,-20743,-27675,17,-1,46479,2020-11-02 15:16:11,2020-11-02 15:16:41,3,DF:DC:EF:28:D6:3E,17,17,-5522.744240275145,-14493.672958054474,15467.001042266345
19152,31995,-16658,-13050,-31771,-15877,29667,26417,-26627,28136,17,1,46481,2020-11-02 15:16:11,2020-11-02 15:16:41,3,DF:DC:EF:28:D6:3E,17,17,3979.874368525141,3059.55097961798,-38029.87295290211
19153,11519,-29956,-22774,-19984,-8198,-19220,16174,2561,-27671,17,1,46505,2020-11-02 15:16:11,2020-11-02 15:16:41,3,DF:DC:EF:28:D6:3E,17,17,-32635.81547754952,-12966.649369449267,-17761.5856624655
19154,-13054,14590,25604,-15617,-32507,24045,25133,27395,-6934,17,1,46530,2020-11-02 15:16:11,2020-11-02 15:16:41,3,DF:DC:EF:28:D6:3E,17,17,24249.05825935412,-19552.698846480387,8277.377202550007
19155,28664,27899,-13573,-29430,-32753,487,8751,-29179,17134,17,1,46556,2020-11-02 15:16:11,2020-11-02 15:16:41,3,DF:DC:EF:28:D6:3E,17,17,-33917.43219055993,10443.078561539334,-22907.53871013398
19156,-2583,-23816,9208,-11509,-5369,6118,11826,-7417,16626,17,1,46581,2020-11-02 15:16:11,2020-11-02 15:16:41,3,DF:DC:EF:28:D6:3E,17,17,-9743.024454574266,17592.743882888655,-15944.586734959665
19157,-6683,-4106,-24837,32012,-29696,-17942,12085,26634,11253,17,1,46607,2020-11-02 15:16:11,2020-11-02 15:16:41,3,DF:DC:EF:28:D6:3E,17,17,-20781.263554913407,12596.816111844637,-9373.238656174248
19158,14558,15862,24058,1810,5120,-1557,2617,32524,1016,17,1,46633,2020-11-02 15:16:11,2020-11-02 15:16:41,3,DF:DC:EF:28:D6:3E,17,17,-18940.246103872138,15862.0,20784.364448420267
19159,-12849,-13583,-14343,-10983,-30722,16630,-11971,526,26362,17,1,46658,2020-11-02 15:16:11,2020-11-02 15:16:41,3,DF:DC:EF:28:D6:3E,17,17,2806.25175373423,14554.274742649497,18319.781025168897
19160,19672,-27162,29939,23333,8452,27397,3651,2574,-28934,17,1,46684,2020-11-02 15:16:11,2020-11-02 15:16:41,3,DF:DC:EF:28:D6:3E,17,17,31626.50366083275,11159.126049621109,29939.0
19161,2260,24287,-23583,29736,-14335,-28154,3772,-31219,24569,17,1,46709,2020-11-02 15:16:11,2020-11-02 15:16:41,3,DF:DC:EF:28:D6:3E,17,17,32743.126849335447,754.3561782330544,-8856.774180517958
19162,19907,-11804,27098,29981,28404,-19191,-8768,-9458,30200,17,1,46735,2020-11-02 15:16:11,2020-11-02 15:16:41,3,DF:DC:EF:28:D6:3E,17,17,12935.204461214238,14173.798899920068,30028.462819318742
19163,-14135,20956,26343,16159,3835,26643,-3389,13073,23542,17,1,46761,2020-11-02 15:16:11,2020-11-02 15:16:41,3,DF:DC:EF:28:D6:3E,17,17,-3642.4649338932068,-36277.607237583434,1890.363013019638
19164,-26406,19673,17896,20013,10505,23071,14022,-13550,497,17,1,46786,2020-11-02 15:16:11,2020-11-02 15:16:41,3,DF:DC:EF:28:D6:3E,17,17,1494.5766172542644,-24459.643465864334,-28355.998717342987
19165,24302,22225,-28436,4153,13081,-11477,-4666,-19693,14567,17,1,46812,2020-11-02 15:16:11,2020-11-02 15:16:41,3,DF:DC:EF:28:D6:3E,17,17,-11867.093652195177,-27476.557008175725,31580.92506920116
19166,14351,-28210,-27928,30263,-14554,22319,30149,-8174,-23079,17,1,46837,2020-11-02 15:16:11,2020-11-02 15:16:41,3,DF:DC:EF:28:D6:3E,17,17,31776.996729983653,16421.849205663682,22411.466540346068
19167,-28892,-7206,-26917,-25563,27933,-482,-19772,-8944,-17970,17,1,46863,2020-11-02 15:16:11,2020-11-02 15:16:41,3,DF:DC:EF:28:D6:3E,17,17,38970.82176848031,2186.081223791017,-9364.56558374864
19168,-13784,-12062,30931,13837,-28392,22529,7621,-1011,-10039,17,1,46889,2020-11-02 15:16:11,2020-11-02 15:16:41,3,DF:DC:EF:28:D6:3E,17,17,-34832.91866589195,-5985.121728764721,6562.267604054583
19169,22029,-4389,-22053,-5390,6169,14563,-2620,-4856,21962,17,1,46916,2020-11-02 15:16:11,2020-11-02 15:16:41,3,DF:DC:EF:28:D6:3E,17,17,-21189.168992236453,7453.80972513017,-22053.0
19170,-8459,-23344,-29968,6620,-25327,19672,-7999,30723,11470,17,1,46940,2020-11-02 15:16:11,2020-11-02 15:16:41,3,DF:DC:EF:28:D6:3E,17,17,36774.623193910884,10551.442117485081,-7132.474969267936
19171,-12817,-11821,4360,17366,23816,-27685,18876,25856,27859,17,1,46966,2020-11-02 15:16:11,2020-11-02 15:16:41,3,DF:DC:EF:28:D6:3E,17,17,-45.5077877129861,-17015.171753340863,-5788.176677121097
19172,26102,24027,-18174,-21281,-21494,10467,-28093,15359,17624,17,-1,46991,2020-11-02 15:16:11,2020-11-02 15:16:41,3,DF:DC:EF:28:D6:3E,17,17,-16033.77177670444,4256.24713883354,-36245.10907564947
19173,-4871,23006,30468,22249,22805,9447,28479,-30723,-12580,17,-1,47017,2020-11-02 15:16:11,2020-11-02 15:16:41,3,DF:DC:EF:28:D6:3E,17,17,22763.19628382613,30465.166158534797,-5917.114742581089
19174,20478,16868,-9716,17141,-25322,-10518,31548,-29189,21473,17,-1,47042,2020-11-02 15:16:11,2020-11-02 15:16:41,3,DF:DC:EF:28:D6:3E,17,17,12860.778688966584,2744.648394125007,-25006.915857539287
19175,-3331,15083,-22261,-30461,-9195,25837,17467,-3591,-26139,17,-1,47068,2020-11-02 15:16:11,2020-11-02 15:16:41,3,DF:DC:EF:28:D6:3E,17,17,11100.430540760368,5185.931119599087,24166.73604838949
19176,12037,7149,-20988,-11253,-4580,-16405,19003,-14345,15594,17,-1,47094,2020-11-02 15:16:11,2020-11-02 15:16:41,3,DF:DC:EF:28:D6:3E,17,17,14071.040747959163,-20855.935342089986,1878.6929700818127
19177,8707,12273,30471,6413,-13293,15329,59,9206,5616,17,-1,47119,2020-11-02 15:16:11,2020-11-02 15:16:41,3,DF:DC:EF:28:D6:3E,17,17,30344.874555275306,12273.0,9136.863697385734
19178,-22039,31994,-26369,16910,-7937,230,4923,32759,3829,17,-1,47145,2020-11-02 15:16:11,2020-11-02 15:16:41,3,DF:DC:EF:28:D6:3E,17,17,19034.243293168256,31994.0,-28613.62025778072
19179,6376,17137,10490,5399,-7943,-21000,26941,18681,-16906,17,-1,47170,2020-11-02 15:16:11,2020-11-02 15:16:41,3,DF:DC:EF:28:D6:3E,17,17,824.4125719898275,9641.473712988614,18727.855551367713
19180,3570,8174,-14619,28707,-8451,16889,9538,23034,16631,17,-1,47196,2020-11-02 15:16:11,2020-11-02 15:16:41,3,DF:DC:EF:28:D6:3E,17,17,-14551.853249998156,-8376.68907501033,3368.825334017884
19181,-11802,10230,-10276,23589,23301,10736,-11078,3322,17145,17,-1,47222,2020-11-02 15:16:11,2020-11-02 15:16:41,3,DF:DC:EF:28:D6:3E,17,17,7748.066731494354,-9433.290238461066,-14160.394669685786
19182,-18742,-13075,20960,8994,2569,6151,4032,18681,-3847,17,-1,47247,2020-11-02 15:16:11,2020-11-02 15:16:41,3,DF:DC:EF:28:D6:3E,17,17,21512.314740220365,-13075.0,-18105.371537687304
19183,-29198,11996,-30226,19745,1544,-9697,-28730,-16903,-18443,17,-1,47273,2020-11-02 15:16:11,2020-11-02 15:16:41,3,DF:DC:EF:28:D6:3E,17,17,-4821.63462576762,-33401.95600834018,-27768.677864682468
19184,-17,-12314,-27697,-8938,-20481,17690,-8501,-23556,9202,17,-1,47298,2020-11-02 15:16:11,2020-11-02 15:16:41,3,DF:DC:EF:28:D6:3E,17,17,23333.93038231899,-19109.078325783525,3021.5083074784716
19185,10722,6620,-23586,-20727,-20736,-30696,10702,32511,-27665,17,-1,47324,2020-11-02 15:16:11,2020-11-02 15:16:41,3,DF:DC:EF:28:D6:3E,17,17,-24211.169319217803,-7803.430485071067,8246.868063745776
19186,-9754,-25129,-9240,-14847,-28159,540,-14898,-11774,-7956,17,-1,47350,2020-11-02 15:16:11,2020-11-02 15:16:41,3,DF:DC:EF:28:D6:3E,17,17,-9192.36285492839,18120.508000129354,-19978.298525164282
19187,15070,-26414,17647,-7427,15862,-1254,15566,-12538,1515,17,-1,47375,2020-11-02 15:16:11,2020-11-02 15:16:41,3,DF:DC:EF:28:D6:3E,17,17,22245.985291329795,-5054.269150636586,26754.278289104754
19188,-27424,-26164,-8980,32266,-19719,-32479,16846,31755,22249,17,-1,47401,2020-11-02 15:16:11,2020-11-02 15:16:41,3,DF:DC:EF:28:D6:3E,17,17,-14025.223043554695,-17246.91570289473,-31986.06085962736
19189,-18950,20942,1509,-5353,-16622,25384,11982,20239,-11293,17,-1,47426,2020-11-02 15:16:11,2020-11-02 15:16:41,3,DF:DC:EF:28:D6:3E,17,17,3052.3441727261497,-23423.064805752092,-15556.033400477208
19190,20504,23256,-32545,-13809,23579,6435,16587,-6640,-21030,17,-1,47452,2020-11-02 15:16:11,2020-11-02 15:16:41,3,DF:DC:EF:28:D6:3E,17,17,20741.54064568707,-17159.85484793461,35996.67276625892
19191,9766,-11044,-2082,-22530,-18413,-9205,-22585,4112,9172,17,-1,47478,2020-11-02 15:16:11,2020-11-02 15:16:41,3,DF:DC:EF:28:D6:3E,17,17,-3676.3772984400957,13966.441319746122,3619.6937469353006
19192,4112,-25889,15330,-30730,31512,-25358,-20283,-20468,-24878,17,-1,47503,2020-11-02 15:16:11,2020-11-02 15:16:41,3,DF:DC:EF:28:D6:3E,17,17,-19436.061916692786,-20017.06265142957,11988.096803881232
19193,-7944,-11043,-29723,7662,-29923,-31513,196,11271,32211,17,-1,47529,2020-11-02 15:16:11,2020-11-02 15:16:41,3,DF:DC:EF:28:D6:3E,17,17,-18901.611539145466,24967.0717426578,-9374.75993400479
19194,-30223,-10277,8175,-26398,-8169,28389,-16960,-4863,-22315,17,-1,47554,2020-11-02 15:16:11,2020-11-02 15:16:41,3,DF:DC:EF:28:D6:3E,17,17,31573.093446831506,-7327.987158200712,5942.849266714642
19195,-24849,29660,-24067,-23075,28435,-28187,-9541,5118,-2856,17,1,47580,2020-11-02 15:16:11,2020-11-02 15:16:41,3,DF:DC:EF:28:D6:3E,17,17,-24849.0,-4226.31579932262,-37961.485004730726
19196,21228,-1563,3861,-15898,-14576,-10522,31811,-32517,-3876,17,1,47606,2020-11-02 15:16:11,2020-11-02 15:16:41,3,DF:DC:EF:28:D6:3E,17,17,8509.048027558543,3259.042628595355,-19620.219591271154
19197,-32268,26858,-25841,27901,4634,30700,-11712,27897,-7968,17,1,47631,2020-11-02 15:16:11,2020-11-02 15:16:41,3,DF:DC:EF:28:D6:3E,17,17,-12192.273396058212,-45186.8925521775,-15486.332035499474
19198,27378,28913,-15344,22282,9764,-20,11584,-3852,25061,17,1,47657,2020-11-02 15:16:11,2020-11-02 15:16:41,3,DF:DC:EF:28:D6:3E,17,17,-16442.23818402538,-21974.869270911993,32675.87356179029
19199,27647,8434,-25860,25868,10260,10738,10304,-2319,16361,17,1,47683,2020-11-02 15:16:11,2020-11-02 15:16:41,3,DF:DC:EF:28:D6:3E,17,17,-35435.50960286101,14187.464295779471,-6875.251343880294
19200,-6911,-23313,-19196,-4861,-4346,-4116,3903,-23568,-2324,17,1,47708,2020-11-02 15:16:11,2020-11-02 15:16:41,3,DF:DC:EF:28:D6:3E,17,17,-10010.249636142567,-23313.0,17777.604991170985
19201,-27394,11252,-3064,15876,-24844,13032,29245,-5902,20464,17,1,47734,2020-11-02 15:16:11,2020-11-02 15:16:41,3,DF:DC:EF:28:D6:3E,17,17,4904.635054162829,-955.3254947751752,-29350.617441282386
19202,6136,19953,-4094,21012,24570,-7703,-6595,19957,-26381,17,1,47759,2020-11-02 15:16:11,2020-11-02 15:16:41,3,DF:DC:EF:28:D6:3E,17,17,171.7404538659448,-11421.58060282255,17945.794570030426
19203,-31509,9715,24562,2078,6130,28389,-24256,-8201,-778,17,1,47785,2020-11-02 15:16:11,2020-11-02 15:16:41,3,DF:DC:EF:28:D6:3E,17,17,-9701.519137602269,-24938.73066644332,-31215.867586362812
19204,-20264,9457,-11036,4133,-1027,15597,-3516,-10247,30458,17,1,47810,2020-11-02 15:16:11,2020-11-02 15:16:41,3,DF:DC:EF:28:D6:3E,17,17,8597.040137785383,4276.528856475048,-23014.344283708007
19205,-24346,-15882,4318,4640,18433,-20480,31677,-17671,30971,17,1,47836,2020-11-02 15:16:11,2020-11-02 15:16:41,3,DF:DC:EF:28:D6:3E,17,17,5828.731217327599,-20989.04955058112,-19725.528012182618
19206,-11802,-18187,4309,29974,26874,-7159,-18495,-10246,-21766,17,1,47862,2020-11-02 15:16:11,2020-11-02 15:16:41,3,DF:DC:EF:28:D6:3E,17,17,7523.886247525782,-17728.729079038163,-10849.191443437572
19207,1507,6124,-25645,8720,-26365,-7661,-9020,15100,-30728,17,1,47887,2020-11-02 15:16:11,2020-11-02 15:16:41,3,DF:DC:EF:28:D6:3E,17,17,12439.224335461957,-22359.123760714756,6540.315939241155
19208,-23563,-23065,7126,-25588,-1526,6169,-27961,15101,-25100,17,1,47913,2020-11-02 15:16:11,2020-11-02 15:16:41,3,DF:DC:EF:28:D6:3E,17,17,-594.4596834085451,-14126.087469027705,30628.244162899387
19209,-17927,-12822,32474,8966,-12022,7442,18633,-5379,-2576,17,-1,47940,2020-11-02 15:16:11,2020-11-02 15:16:41,3,DF:DC:EF:28:D6:3E,17,17,-17927.0,8110.952649674783,-33958.457077946485
19210,3566,-21012,-29218,29182,-14844,28432,-22583,-15106,24046,17,-1,47964,2020-11-02 15:16:11,2020-11-02 15:16:41,3,DF:DC:EF:28:D6:3E,17,17,32546.81915536855,12167.235714066434,-10028.706893018718
19211,8425,28126,-13596,-27142,-6399,-15592,1737,-26880,-24853,17,-1,47990,2020-11-02 15:16:11,2020-11-02 15:16:41,3,DF:DC:EF:28:D6:3E,17,17,-10960.588514903822,-30339.161324141896,2510.8776462923734
19212,-26886,465,-10781,-3844,-11526,-19170,9160,-19709,18664,17,-1,48015,2020-11-02 15:16:11,2020-11-02 15:16:41,3,DF:DC:EF:28:D6:3E,17,17,-28425.382763958376,-5365.443710864595,1585.1846920790176
19213,12808,218,-14116,6657,-28935,26903,-30521,-4090,-29211,17,-1,48041,2020-11-02 15:16:11,2020-11-02 15:16:41,3,DF:DC:EF:28:D6:3E,17,17,-9406.319881895539,16139.144313873316,-3795.1299181223376
19214,-25331,-31772,-20264,-23038,18693,18957,10183,17416,16611,17,-1,48067,2020-11-02 15:16:11,2020-11-02 15:16:41,3,DF:DC:EF:28:D6:3E,17,17,-8118.379555375428,18015.127851976707,40881.49120166479
19215,1296,19944,-35,-26880,15121,3076,-23610,3079,2273,17,-1,48092,2020-11-02 15:16:11,2020-11-02 15:16:41,3,DF:DC:EF:28:D6:3E,17,17,1296.0,-13009.780287168098,15116.546493151547
19216,11532,5100,-25,-26375,-20458,-1287,-15163,4,-32033,17,-1,48118,2020-11-02 15:16:11,2020-11-02 15:16:41,3,DF:DC:EF:28:D6:3E,17,17,5328.162854434295,10449.836285276368,-4627.013205897298
19217,-4858,-2586,-27925,-12566,-19434,27633,-25405,7680,28639,17,-1,48143,2020-11-02 15:16:11,2020-11-02 15:16:41,3,DF:DC:EF:28:D6:3E,17,17,10025.85117426177,-23310.015446382167,12892.582096732156
19218,-10240,-24870,-13830,-12328,28179,18923,-25154,13308,-1056,17,-1,48169,2020-11-02 15:16:11,2020-11-02 15:16:41,3,DF:DC:EF:28:D6:3E,17,17,-4633.209944173119,26722.695360986676,13381.865275704899
19219,-17157,-1325,6923,15062,25104,-8731,12100,19193,-32284,17,-1,48195,2020-11-02 15:16:11,2020-11-02 15:16:41,3,DF:DC:EF:28:D6:3E,17,17,10162.277336273975,14105.450430725994,6466.110924426225
19220,10739,-28200,-23017,31717,8722,-26396,-24515,-15625,25577,17,-1,48220,2020-11-02 15:16:11,2020-11-02 15:16:41,3,DF:DC:EF:28:D6:3E,17,17,26311.46012073067,-24385.603958366068,12385.386384805304
19221,-3860,14564,-20720,20731,-8685,18413,58,-7690,6894,17,-1,48246,2020-11-02 15:16:11,2020-11-02 15:16:41,3,DF:DC:EF:28:D6:3E,17,17,-3961.6986862921567,20785.299975518417,-14443.141778946338
19222,768,-1048,-3318,30470,30490,-8460,-16328,-8972,9970,17,-1,48271,2020-11-02 15:16:11,2020-11-02 15:16:41,3,DF:DC:EF:28:D6:3E,17,17,1334.95248172112,-2697.7549090755074,1907.163423020068
19223,26118,16876,29703,-31734,-13552,18924,-2505,27891,-24842,17,-1,48297,2020-11-02 15:16:11,2020-11-02 15:16:41,3,DF:DC:EF:28:D6:3E,17,17,13080.570147403876,-40963.312840457686,350.9911019406027
19224,-8193,-15890,24067,-30454,-21494,21474,4151,22260,-28421,17,1,48323,2020-11-02 15:16:11,2020-11-02 15:16:41,3,DF:DC:EF:28:D6:3E,17,17,4503.889809533523,19095.183606415754,-22669.95318964843
19225,-14602,31213,32519,-11253,-21245,21984,-31178,-32522,-27904,17,1,48348,2020-11-02 15:16:11,2020-11-02 15:16:41,3,DF:DC:EF:28:D6:3E,17,17,-4936.051701995657,39876.35785920848,25109.094198707517
19226,32753,-13079,-32761,-22260,4340,999,29239,-5895,29955,17,1,48374,2020-11-02 15:16:11,2020-11-02 15:16:41,3,DF:DC:EF:28:D6:3E,17,17,-29438.15014054238,-24311.94381340083,29315.98668503118
19227,-18196,10470,-11777,-7923,-22552,-2838,26937,26110,32260,17,1,48400,2020-11-02 15:16:11,2020-11-02 15:16:41,3,DF:DC:EF:28:D6:3E,17,17,-11687.043238685274,-16038.522123211489,-13623.210834467638
19228,10210,28899,-21515,-6130,228,15852,-12485,-23549,9733,17,1,48425,2020-11-02 15:16:11,2020-11-02 15:16:41,3,DF:DC:EF:28:D6:3E,17,17,15892.072674137304,-33716.39048349959,3597.0216685636933
19229,-2338,-13338,-14867,-30956,28136,32743,10047,-13816,-18426,17,1,48451,2020-11-02 15:16:11,2020-11-02 15:16:41,3,DF:DC:EF:28:D6:3E,17,17,-17549.169382034546,-7858.782694639403,5887.4753128227585
19230,206,-10267,5602,-2280,12277,9691,23109,9740,-19701,17,1,48476,2020-11-02 15:16:11,2020-11-02 15:16:41,3,DF:DC:EF:28:D6:3E,17,17,-1987.3298772983912,-11344.54925768639,2046.4239782421153
19231,29861,17893,17373,6159,3564,15580,-4161,-14579,1811,17,1,48527,2020-11-02 15:16:11,2020-11-02 15:16:41,3,DF:DC:EF:28:D6:3E,17,17,-28223.78488237679,17893.0,19922.811471108176
19232,-2145,26614,-4380,30724,10215,-11531,-14140,-24560,-3816,17,1,48529,2020-11-02 15:16:11,2020-11-02 15:16:41,3,DF:DC:EF:28:D6:3E,17,17,-15533.144967944201,-15058.054637362133,16250.132890011897
19233,-17205,19182,-20492,-29686,14079,10249,20678,-31726,-30439,17,1,48553,2020-11-02 15:16:11,2020-11-02 15:16:41,3,DF:DC:EF:28:D6:3E,17,17,20307.153106711517,11897.310856533626,23020.789301924116
19234,-32554,-8727,13833,32284,-3074,-24054,-57,18707,30743,17,1,48579,2020-11-02 15:16:11,2020-11-02 15:16:41,3,DF:DC:EF:28:D6:3E,17,17,1327.1346239262225,-35251.86690040901,-9100.545463093045
19235,17870,-21784,-26621,-12757,-19975,-30966,24269,11797,-15594,17,1,48604,2020-11-02 15:16:11,2020-11-02 15:16:41,3,DF:DC:EF:28:D6:3E,17,17,-15100.133296330754,-18797.80181746676,-30351.04311657652
19236,-11330,22743,-22530,-18379,29448,-18412,7891,17687,30228,17,1,48630,2020-11-02 15:16:11,2020-11-02 15:16:41,3,DF:DC:EF:28:D6:3E,17,17,33423.49043980091,-2834.9203306820955,-5295.976070491903
19237,14805,30140,-26889,24886,-8934,-29660,28370,21018,13578,17,1,48655,2020-11-02 15:16:11,2020-11-02 15:16:41,3,DF:DC:EF:28:D6:3E,17,17,42824.58372319133,2667.801716328884,3092.540854658051
19238,4092,-21056,-18187,-3543,30751,-7639,22213,15131,22260,17,1,48681,2020-11-02 15:16:11,2020-11-02 15:16:41,3,DF:DC:EF:28:D6:3E,17,17,-15151.23117607722,-21488.738351422857,-9977.017936896478
19239,-5611,2015,13801,8730,18962,29978,23228,24345,15077,17,1,48707,2020-11-02 15:16:11,2020-11-02 15:16:41,3,DF:DC:EF:28:D6:3E,17,17,-13147.239423382707,6793.783798277746,2646.8366490039357
19240,-20973,-4885,-28695,-5115,5646,26886,-22342,-27114,-20000,17,1,48758,2020-11-02 15:16:11,2020-11-02 15:16:41,3,DF:DC:EF:28:D6:3E,17,17,-35261.12502070557,-5820.9784230951,-3146.7843065631623
19241,25358,23533,22774,25854,7189,-7942,-838,-14829,-1824,17,1,48760,2020-11-02 15:16:11,2020-11-02 15:16:41,3,DF:DC:EF:28:D6:3E,17,17,-31260.991079690513,23533.0,13580.636093921015
19242,16395,5871,-26115,-8451,28956,11249,10940,-21489,-1054,17,1,48783,2020-11-02 15:16:11,2020-11-02 15:16:41,3,DF:DC:EF:28:D6:3E,17,17,-14936.896223832235,25147.129606010065,11391.615108359236
19243,-16894,31979,-28935,-17153,28702,14312,-11075,-15350,742,17,1,48809,2020-11-02 15:16:11,2020-11-02 15:16:41,3,DF:DC:EF:28:D6:3E,17,17,45714.66859001324,-7069.635506059243,2342.484048339181
19244,-26134,-31250,11764,7674,10009,-32027,-28482,32261,5609,17,-1,48835,2020-11-02 15:16:11,2020-11-02 15:16:41,3,DF:DC:EF:28:D6:3E,17,17,22639.01957907386,11523.338597185406,-33950.36983705667
19245,-7945,8685,29177,17648,16657,22251,21181,24577,-7957,17,-1,48860,2020-11-02 15:16:11,2020-11-02 15:16:41,3,DF:DC:EF:28:D6:3E,17,17,3416.117454109267,-28854.415124911815,12066.583954831216
19246,12285,21223,-6660,-31513,15878,5873,15546,30975,21742,17,-1,48886,2020-11-02 15:16:11,2020-11-02 15:16:41,3,DF:DC:EF:28:D6:3E,17,17,17893.073097199696,253.42902148237954,18040.683547730085
19247,19971,19432,-21759,-2587,21769,13556,-3774,28158,19184,17,-1,48911,2020-11-02 15:16:11,2020-11-02 15:16:41,3,DF:DC:EF:28:D6:3E,17,17,-6121.433640606536,-18755.842391797083,29336.734180165968
19248,17415,15082,-2302,-9239,26128,-3856,12863,-8196,-18958,17,-1,48937,2020-11-02 15:16:11,2020-11-02 15:16:41,3,DF:DC:EF:28:D6:3E,17,17,2316.980983340396,4555.687343875985,22581.529287178208
19249,-31991,5353,-19968,15080,-28401,-28184,15675,-21765,-29450,17,-1,48964,2020-11-02 15:16:11,2020-11-02 15:16:41,3,DF:DC:EF:28:D6:3E,17,17,-6818.574625871115,33105.29480738921,-17559.789571269794
19250,16903,-21015,-1001,27881,20231,19938,-15818,30460,4603,17,-1,48988,2020-11-02 15:16:11,2020-11-02 15:16:41,3,DF:DC:EF:28:D6:3E,17,17,-13928.684531349258,7835.119045785691,21747.32838222935
19251,9731,-1300,4124,-5121,10502,-19744,-17868,2815,-2050,17,-1,49014,2020-11-02 15:16:11,2020-11-02 15:16:41,3,DF:DC:EF:28:D6:3E,17,17,9731.0,1868.9691588194714,-3899.2730455024093
19252,1277,-12067,-10492,27930,4110,21983,19255,6401,-23805,17,-1,49040,2020-11-02 15:16:11,2020-11-02 15:16:41,3,DF:DC:EF:28:D6:3E,17,17,-15388.931716893798,-2723.9440587222816,3617.4841226647686
19253,-20243,28625,10225,-16599,10004,5336,-25539,-23551,-247,17,-1,49065,2020-11-02 15:16:11,2020-11-02 15:16:41,3,DF:DC:EF:28:D6:3E,17,17,24568.583015165834,-26448.854161744457,5528.394084874703
19254,-27935,-18991,18672,12331,-23027,14304,-10172,24064,2320,17,1,49091,2020-11-02 15:16:11,2020-11-02 15:16:41,3,DF:DC:EF:28:D6:3E,17,17,-1469.4741177187352,5451.0651375912,-38181.04797780036
19255,-21534,-6707,17632,22828,14339,-30232,13247,20223,276,17,1,49116,2020-11-02 15:16:11,2020-11-02 15:16:41,3,DF:DC:EF:28:D6:3E,17,17,19422.3875746523,-13241.635397068734,16340.574711774618
19256,-2613,-302,9674,24356,31745,14073,31173,32766,7190,17,1,49142,2020-11-02 15:16:11,2020-11-02 15:16:41,3,DF:DC:EF:28:D6:3E,17,17,-9706.21912367802,1894.246382447427,-1645.110928093286
19257,-4400,4808,20435,-7652,-25330,10006,24778,-770,8468,17,1,49167,2020-11-02 15:16:11,2020-11-02 15:16:41,3,DF:DC:EF:28:D6:3E,17,17,-12746.390404139274,2955.424692890303,-16995.91378978843
19258,6136,-23616,493,-19685,-3794,13603,-4914,-28673,7437,17,1,49193,2020-11-02 15:16:11,2020-11-02 15:16:41,3,DF:DC:EF:28:D6:3E,17,17,21068.030323256487,-10897.350820049374,-5744.113891899647
19259,9208,-26417,-20502,-30958,-6121,-31203,-21294,-2560,-11515,17,1,49219,2020-11-02 15:16:11,2020-11-02 15:16:41,3,DF:DC:EF:28:D6:3E,17,17,17317.82283952631,-18052.132015655137,24024.793418219844
19260,-29968,-24630,-13076,24073,32766,-11750,19412,-26364,-30717,17,1,49244,2020-11-02 15:16:11,2020-11-02 15:16:41,3,DF:DC:EF:28:D6:3E,17,17,-17562.10146925321,33095.969377676454,16490.272979412926
19261,506,-14652,-4137,-31732,-18161,-28638,10197,-14072,27137,17,1,49270,2020-11-02 15:16:11,2020-11-02 15:16:41,3,DF:DC:EF:28:D6:3E,17,17,-11875.524423879828,-6964.165870139522,6521.059913159633
19262,12302,10704,2278,-8188,23074,15649,8147,-5109,16378,17,1,49296,2020-11-02 15:16:11,2020-11-02 15:16:41,3,DF:DC:EF:28:D6:3E,17,17,-8635.259597019498,9577.134806526241,10237.914074151346
19263,4875,12766,-1548,18682,-10465,-13295,-818,19980,-5390,17,1,49321,2020-11-02 15:16:11,2020-11-02 15:16:41,3,DF:DC:EF:28:D6:3E,17,17,-5044.667193403846,12766.0,844.5483454456368
19264,-14584,-26388,1017,-6410,24848,-2553,-22325,16139,-27154,17,1,49347,2020-11-02 15:16:11,2020-11-02 15:16:41,3,DF:DC:EF:28:D6:3E,17,17,-25461.181584092108,-10706.68338033169,12130.500910317678
19265,30472,-13581,29429,26868,9480,1539,15049,-30454,-13332,17,-1,49372,2020-11-02 15:16:11,2020-11-02 15:16:41,3,DF:DC:EF:28:D6:3E,17,17,-12975.446109168237,22370.671143789074,-36197.282451097264
19266,-2553,31729,-21519,31474,-16121,21761,-7994,-24823,-12053,17,-1,49398,2020-11-02 15:16:11,2020-11-02 15:16:41,3,DF:DC:EF:28:D6:3E,17,17,10499.025787359304,25258.150413988493,26983.530276461177
19267,-29169,18924,19954,-32277,20492,-26367,-9021,18440,-20758,17,-1,49424,2020-11-02 15:16:11,2020-11-02 15:16:41,3,DF:DC:EF:28:D6:3E,17,17,-24057.2014170826,-30717.75334601895,9207.667584739387
19268,-21486,-12569,6397,8163,16908,-11273,-2881,9222,-29718,17,-1,49449,2020-11-02 15:16:11,2020-11-02 15:16:41,3,DF:DC:EF:28:D6:3E,17,17,10286.625547947031,-9535.656130147969,21536.159430220952
19269,9996,228,-18683,24802,21006,-7443,-4677,-18685,29164,17,-1,49475,2020-11-02 15:16:11,2020-11-02 15:16:41,3,DF:DC:EF:28:D6:3E,17,17,-1840.5881752746568,7025.908926402068,19906.665414552554
19270,-30717,-17434,16651,-11031,-13035,-26135,10821,-17920,-21777,17,-1,49500,2020-11-02 15:16:11,2020-11-02 15:16:41,3,DF:DC:EF:28:D6:3E,17,17,-34204.50342306315,18792.085832649973,1282.0692804904993
19271,-31491,-3602,-497,-26893,-17902,-25108,-20414,-7939,15347,17,-1,49526,2020-11-02 15:16:11,2020-11-02 15:16:41,3,DF:DC:EF:28:D6:3E,17,17,4252.154842868328,-17691.567348967605,-25958.27648225542
19272,27388,27381,-3316,-13319,-252,7412,10817,-20996,-12811,17,-1,49552,2020-11-02 15:16:11,2020-11-02 15:16:41,3,DF:DC:EF:28:D6:3E,17,17,28520.6238823978,20063.578409980386,-17171.03362483951
19273,25086,9974,16385,-2053,5625,9978,24128,26109,-6666,17,-1,49577,2020-11-02 15:16:11,2020-11-02 15:16:41,3,DF:DC:EF:28:D6:3E,17,17,3554.8513886150686,5347.863743909817,30919.567946228428
19274,-17918,-24844,3572,-32519,17916,-5894,-24257,-25090,20215,17,-1,49603,2020-11-02 15:16:11,2020-11-02 15:16:41,3,DF:DC:EF:28:D6:3E,17,17,2331.357077653995,-14004.979614184254,27376.332190100922
19275,-20727,13043,-25089,24055,-16633,10227,25918,26110,-14088,17,-1,49628,2020-11-02 15:16:11,2020-11-02 15:16:41,3,DF:DC:EF:28:D6:3E,17,17,-28599.362614591148,3622.674943082482,-19953.420340780893
19276,-21761,32751,-3571,28154,-25599,5860,7229,-5378,18684,17,-1,49654,2020-11-02 15:16:11,2020-11-02 15:16:41,3,DF:DC:EF:28:D6:3E,17,17,18621.995459056263,-23564.08754169014,25629.59668918829
19277,-26629,-3089,23057,27907,-261,23525,4669,-1536,-2817,17,-1,49680,2020-11-02 15:16:11,2020-11-02 15:16:41,3,DF:DC:EF:28:D6:3E,17,17,-26629.0,-3089.0,23057.0
19278,-13,5863,8706,16144,12281,-1312,17983,32515,-18685,17,-1,49705,2020-11-02 15:16:11,2020-11-02 15:16:41,3,DF:DC:EF:28:D6:3E,17,17,-8385.51108312419,5908.684587194266,-2222.6165489922687
19279,-29980,21217,-1291,19479,23295,-6945,-26557,16133,-29944,17,-1,49731,2020-11-02 15:16:11,2020-11-02 15:16:41,3,DF:DC:EF:28:D6:3E,17,17,20260.110104871135,23043.560402010502,20227.46727935537
19280,5346,10716,1522,-21220,-30975,-13594,18876,15365,2317,17,-1,49756,2020-11-02 15:16:11,2020-11-02 15:16:41,3,DF:DC:EF:28:D6:3E,17,17,-2219.7440155089544,-10823.544245837491,-4863.381792951312
19281,-26395,-17963,-10770,31517,-8960,12266,-15935,21252,29968,17,-1,49782,2020-11-02 15:16:11,2020-11-02 15:16:41,3,DF:DC:EF:28:D6:3E,17,17,6022.91327140608,-28531.84462688123,-16882.43619601831
19282,14553,23254,-13078,-6372,-32764,29423,-7738,-13822,1811,17,-1,49808,2020-11-02 15:16:11,2020-11-02 15:16:41,3,DF:DC:EF:28:D6:3E,17,17,18161.715258393986,1559.4322813400522,24316.510416442026
19283,-4907,-18735,-29709,29211,15879,-29949,17611,-17663,-750,17,-1,49833,2020-11-02 15:16:11,2020-11-02 15:16:41,3,DF:DC:EF:28:D6:3E,17,17,1080.4205026251375,22740.04374325994,-27192.400723219187
19284,13034,-5945,-282,19481,-20737,5391,22479,259,18705,17,-1,49859,2020-11-02 15:16:11,2020-11-02 15:16:41,3,DF:DC:EF:28:D6:3E,17,17,-13739.740758668811,-4026.645577261952,-559.7805638745849
19285,-25872,24782,12507,31762,20223,-14327,-31022,-13820,-24560,17,1,49885,2020-11-02 15:16:11,2020-11-02 15:16:41,3,DF:DC:EF:28:D6:3E,17,17,12951.898682303097,-7402.320567723922,-34891.0723213834
19286,21240,-17200,-18461,19214,22787,-16886,-29484,2566,-19185,17,1,49910,2020-11-02 15:16:11,2020-11-02 15:16:41,3,DF:DC:EF:28:D6:3E,17,17,-19217.758365375692,-15692.767079903659,-21730.1851300426
19287,32259,-6950,259,-8427,25370,-6386,20438,11015,-22004,17,1,49936,2020-11-02 15:16:11,2020-11-02 15:16:41,3,DF:DC:EF:28:D6:3E,17,17,-15258.731433181036,-9088.159862842538,-27813.47025017682
19288,-1562,26329,-20780,32028,14374,6154,-18983,2567,-8441,17,1,49961,2020-11-02 15:16:11,2020-11-02 15:16:41,3,DF:DC:EF:28:D6:3E,17,17,-25244.91621574206,-14353.301136783399,16856.495387149014
19289,27900,24041,-7192,-13302,556,-10233,-12583,-14073,-28159,17,1,49988,2020-11-02 15:16:11,2020-11-02 15:16:41,3,DF:DC:EF:28:D6:3E,17,17,8895.843788052143,15011.01839184029,33221.04506391102
19290,-32498,-28698,9973,31232,-6360,24342,-22313,11017,18938,17,1,50012,2020-11-02 15:16:11,2020-11-02 15:16:41,3,DF:DC:EF:28:D6:3E,17,17,18026.208769816956,-32689.190418952407,24199.76372075654
19291,32022,-14102,-6432,8958,-23008,-17909,-23084,-15607,18163,17,1,50038,2020-11-02 15:16:11,2020-11-02 15:16:41,3,DF:DC:EF:28:D6:3E,17,17,5382.10660532648,-14995.021648889642,31809.240265027263
19292,-11760,-17170,8426,-26379,-4584,3582,-25647,29704,-274,17,1,50064,2020-11-02 15:16:11,2020-11-02 15:16:41,3,DF:DC:EF:28:D6:3E,17,17,14406.053730429576,4846.243144763614,-16525.23885751149
19293,-20471,2539,4594,-26897,-30186,23025,-21810,1797,-21268,17,1,50089,2020-11-02 15:16:11,2020-11-02 15:16:41,3,DF:DC:EF:28:D6:3E,17,17,20002.907274508292,4735.486464533248,-4906.329229846449
19294,-32510,31720,24313,-27926,-32494,26861,-20277,-2304,2028,17,1,50115,2020-11-02 15:16:11,2020-11-02 15:16:41,3,DF:DC:EF:28:D6:3E,17,17,-32510.0,-27971.511236206577,-28546.014225505616
19295,-27388,-22555,7424,4066,19714,24812,-22841,10750,29421,17,1,50140,2020-11-02 15:16:11,2020-11-02 15:16:41,3,DF:DC:EF:28:D6:3E,17,17,17224.579779806503,24183.301054840456,20794.906744201417
19296,24065,-7454,-30194,29919,-29697,9965,-26430,-19972,-785,17,1,50166,2020-11-02 15:16:11,2020-11-02 15:16:41,3,DF:DC:EF:28:D6:3E,17,17,-25813.243199510034,27723.154093244946,-10557.801837747515
19297,1541,-17181,-11748,5351,-18438,21227,-3395,14844,-526,17,1,50192,2020-11-02 15:16:11,2020-11-02 15:16:41,3,DF:DC:EF:28:D6:3E,17,17,-11323.708445467255,-17181.0,3487.665701017454
19298,14329,31718,26641,-26637,1284,-24086,-3398,-7941,19190,17,1,50217,2020-11-02 15:16:11,2020-11-02 15:16:41,3,DF:DC:EF:28:D6:3E,17,17,10052.725865018532,-33471.607985801515,26451.63147194546
19299,16385,-8214,-9715,11768,-23287,10731,-17851,-24070,30201,17,1,50243,2020-11-02 15:16:11,2020-11-02 15:16:41,3,DF:DC:EF:28:D6:3E,17,17,5758.6563641397415,4366.821434921454,-19444.484910515457
19300,-14330,-9492,6679,13051,-11259,-28955,-6589,-29703,17149,17,1,50268,2020-11-02 15:16:11,2020-11-02 15:16:41,3,DF:DC:EF:28:D6:3E,17,17,-3382.846910636664,6210.256918924822,17030.709344596966
19301,-26632,10229,24864,12803,15616,-27940,28994,3578,22018,17,1,50294,2020-11-02 15:16:11,2020-11-02 15:16:41,3,DF:DC:EF:28:D6:3E,17,17,22591.328054962334,-30234.93830540365,-2755.859826171587
19302,-24601,-26640,8982,-17638,12540,-5400,-3517,3579,-10490,17,1,50320,2020-11-02 15:16:11,2020-11-02 15:16:41,3,DF:DC:EF:28:D6:3E,17,17,-35708.76406194447,6307.374268931819,8982.0
19303,5355,3029,31709,15653,11501,-8210,27324,22269,28169,17,1,50345,2020-11-02 15:16:11,2020-11-02 15:16:41,3,DF:DC:EF:28:D6:3E,17,17,22251.479020843733,-7921.119067934738,22032.682566962918
19304,-5159,5096,-19500,-27364,3331,-23063,13761,-14595,-9460,17,1,50371,2020-11-02 15:16:11,2020-11-02 15:16:41,3,DF:DC:EF:28:D6:3E,17,17,8032.504990876925,16382.48729049327,-9996.372879618077
19305,-3367,-22544,-3610,-19177,-10486,-1799,-2620,-1797,11022,17,1,50396,2020-11-02 15:16:11,2020-11-02 15:16:41,3,DF:DC:EF:28:D6:3E,17,17,17150.924017651192,-15013.80798933953,-3610.0
19306,13789,-31273,-31510,29205,-28155,-13042,-23352,-6917,-16372,17,1,50422,2020-11-02 15:16:11,2020-11-02 15:16:41,3,DF:DC:EF:28:D6:3E,17,17,36095.34707297533,-27554.786824109833,9943.681046740925
19307,-27907,-823,5607,12818,-7934,17427,10956,-16387,7178,17,1,50448,2020-11-02 15:16:11,2020-11-02 15:16:41,3,DF:DC:EF:28:D6:3E,17,17,9470.96536046669,5194.769500189783,-26348.275313210503
19308,30722,723,-8207,28687,32007,21767,-6706,-21762,16904,17,1,50499,2020-11-02 15:16:11,2020-11-02 15:16:41,3,DF:DC:EF:28:D6:3E,17,17,18285.139033583902,-24297.47189984104,9327.669151451571
19309,13028,9687,-7181,14608,16654,-15859,27601,13823,-31482,17,1,50501,2020-11-02 15:16:11,2020-11-02 15:16:41,3,DF:DC:EF:28:D6:3E,17,17,9064.981936828211,-10836.175574424895,-10748.809952976913
19310,-15100,-17711,5101,-12530,-17390,-9705,-5677,15617,-12542,17,1,50524,2020-11-02 15:16:11,2020-11-02 15:16:41,3,DF:DC:EF:28:D6:3E,17,17,-20649.78215327225,-2561.100272501062,11607.62613184082
19311,-16891,18147,-23068,16388,25109,20495,-1324,-23294,-22530,17,1,50550,2020-11-02 15:16:11,2020-11-02 15:16:41,3,DF:DC:EF:28:D6:3E,17,17,8913.909941393445,-17059.794912811285,27861.401994328015
19312,28140,-6935,15075,5886,-11491,-28658,31956,16643,5114,17,-1,50576,2020-11-02 15:16:11,2020-11-02 15:16:41,3,DF:DC:EF:28:D6:3E,17,17,-1775.0725044475093,12488.58618435934,-30134.594450892873
19313,-7926,-30245,-15123,32754,15129,22802,19666,4356,-8204,17,-1,50601,2020-11-02 15:16:11,2020-11-02 15:16:41,3,DF:DC:EF:28:D6:3E,17,17,22708.991930763623,24000.495642453014,10703.481882317852
19314,-7925,-23064,-18971,6128,-28905,7174,32463,-20989,2801,17,-1,50627,2020-11-02 15:16:11,2020-11-02 15:16:41,3,DF:DC:EF:28:D6:3E,17,17,5484.008512568899,-24734.13706015825,-17686.171901329522
19315,7687,-29724,18926,2019,31759,-18943,-31285,12546,-28434,17,-1,50652,2020-11-02 15:16:11,2020-11-02 15:16:41,3,DF:DC:EF:28:D6:3E,17,17,35957.02186370978,-967.1757317520169,2637.5691074560514
19316,2823,30175,-14346,-15400,19206,14337,8902,-3328,19181,17,-1,50678,2020-11-02 15:16:11,2020-11-02 15:16:41,3,DF:DC:EF:28:D6:3E,17,17,-6799.0805310791975,-27693.016484896136,17640.210086593943
19317,-4345,-21542,29430,-20013,31996,-3583,-13121,-4608,-532,17,-1,50704,2020-11-02 15:16:11,2020-11-02 15:16:41,3,DF:DC:EF:28:D6:3E,17,17,-4345.0,35725.25842437836,7340.883769096432
19318,22283,-23334,-19965,20697,-13814,-18945,14150,32256,-9492,17,-1,50729,2020-11-02 15:16:11,2020-11-02 15:16:41,3,DF:DC:EF:28:D6:3E,17,17,33550.68904147148,-680.0599111905685,17705.86494243298
19319,-12533,13532,-23795,21992,2327,25334,-10687,-28931,2798,17,-1,50755,2020-11-02 15:16:11,2020-11-02 15:16:41,3,DF:DC:EF:28:D6:3E,17,17,-26802.606646397988,-12711.431280496232,5141.296505715696
19320,26375,16608,11528,-23824,32532,15085,-15554,-9222,13809,17,-1,50780,2020-11-02 15:16:11,2020-11-02 15:16:41,3,DF:DC:EF:28:D6:3E,17,17,-16145.528673456485,26697.484221255498,11442.347360153348
19321,2305,-13339,-250,6896,2064,-13850,27195,-20487,-26891,17,-1,50806,2020-11-02 15:16:11,2020-11-02 15:16:41,3,DF:DC:EF:28:D6:3E,17,17,-4017.5093091125264,-8397.986899284575,-9830.456804779664
19322,22778,10991,-9715,13297,14349,-27675,-13769,-3591,22266,17,-1,50832,2020-11-02 15:16:11,2020-11-02 15:16:41,3,DF:DC:EF:28:D6:3E,17,17,-20657.955148298595,16487.948378579727,-5951.221501185579
19323,-11525,-32006,-23790,-23559,-5108,-14360,10549,-11014,-21762,17,1,50857,2020-11-02 15:16:11,2020-11-02 15:16:41,3,DF:DC:EF:28:D6:3E,17,17,-26594.337234993567,-6544.16294483093,-31194.373200674137
19324,-26114,24831,-239,-6397,-8697,27626,21044,13820,10242,17,1,50883,2020-11-02 15:16:11,2020-11-02 15:16:41,3,DF:DC:EF:28:D6:3E,17,17,28366.505650167353,-1257.0454517364633,22188.687927213996
19325,10239,-1030,13322,7695,24325,3818,31029,-7939,8709,17,1,50909,2020-11-02 15:16:11,2020-11-02 15:16:41,3,DF:DC:EF:28:D6:3E,17,17,-9681.870442700121,8024.404176598078,11191.247800909652
19326,30196,18675,-7434,-14823,4104,-18973,-25032,-30209,-12792,17,1,50934,2020-11-02 15:16:11,2020-11-02 15:16:41,3,DF:DC:EF:28:D6:3E,17,17,-17127.335868960738,-21610.44317706262,-23568.23092051583
19327,15576,-781,-15388,-3294,3853,-10518,-31683,18432,6413,17,1,50960,2020-11-02 15:16:11,2020-11-02 15:16:41,3,DF:DC:EF:28:D6:3E,17,17,-20951.715614058397,-5729.892628410604,2864.6508154585536
19328,-21013,-24344,-6946,-25050,27157,15360,27459,12030,-8690,17,1,50985,2020-11-02 15:16:11,2020-11-02 15:16:41,3,DF:DC:EF:28:D6:3E,17,17,24973.02200227786,-19171.717631941967,9550.75055243468
19329,-3086,-22817,-1322,9509,32009,-23036,-10820,18428,17934,17,1,51012,2020-11-02 15:16:11,2020-11-02 15:16:41,3,DF:DC:EF:28:D6:3E,17,17,-3710.395462657618,14105.271949491094,-17865.07312444003
19330,11255,21987,-32043,8219,1808,-2042,9410,-14086,-11508,17,1,51037,2020-11-02 15:16:11,2020-11-02 15:16:41,3,DF:DC:EF:28:D6:3E,17,17,37718.58862637355,-10922.74549430438,9739.545466861226
19331,3062,-18210,-13850,1298,-19449,25355,-1339,-9479,-26870,17,1,51062,2020-11-02 15:16:11,2020-11-02 15:16:41,3,DF:DC:EF:28:D6:3E,17,17,5082.175075349474,21974.96734138691,-4906.602780791957
19332,-4632,-19750,27885,-4341,17410,3861,-14648,-6662,3592,17,1,51088,2020-11-02 15:16:11,2020-11-02 15:16:41,3,DF:DC:EF:28:D6:3E,17,17,-7849.697961849102,33574.6587688402,-464.4130313461819
19333,-18,9684,-8978,21775,13322,28449,-30261,-22275,20740,17,1,51113,2020-11-02 15:16:11,2020-11-02 15:16:41,3,DF:DC:EF:28:D6:3E,17,17,-678.6686450576082,-11374.260972642169,-6674.598129958455
19334,7925,19416,6377,-29429,-20465,-15326,9678,4608,-8706,17,1,51139,2020-11-02 15:16:11,2020-11-02 15:16:41,3,DF:DC:EF:28:D6:3E,17,17,8593.971005298163,-3899.9058892359235,19783.508445551248
19335,-11266,-32047,-22546,12036,4607,-30430,-7730,-14333,-5382,17,1,51165,2020-11-02 15:16:11,2020-11-02 15:16:41,3,DF:DC:EF:28:D6:3E,17,17,-8755.620244216965,-36286.87281963511,-16396.861166414896
19336,3844,-21288,6112,23811,16641,-12258,-9522,8,11000,17,1,51190,2020-11-02 15:16:11,2020-11-02 15:16:41,3,DF:DC:EF:28:D6:3E,17,17,7427.739142401619,-201.10566981138027,21215.56201805657
19337,30484,-22807,-1063,-6147,-17397,31251,-31283,2826,-28940,17,1,51216,2020-11-02 15:16:11,2020-11-02 15:16:41,3,DF:DC:EF:28:D6:3E,17,17,13873.43628198378,27685.846991092134,-22171.71883538961
19338,11785,-32269,7143,-26639,30728,-13306,-10294,-4087,-1039,17,1,51241,2020-11-02 15:16:11,2020-11-02 15:16:41,3,DF:DC:EF:28:D6:3E,17,17,11785.0,-11424.387863576196,31012.806579582135
19339,11526,497,-4113,-8470,-24825,24838,14791,-29175,24816,17,1,51267,2020-11-02 15:16:11,2020-11-02 15:16:41,3,DF:DC:EF:28:D6:3E,17,17,-819.3019488595664,-6353.867712485882,-10438.84875878678
19340,3079,-5393,13297,-11799,11528,-20476,23747,-12024,-5394,17,1,51293,2020-11-02 15:16:11,2020-11-02 15:16:41,3,DF:DC:EF:28:D6:3E,17,17,2910.60264959537,13588.30282742698,4718.190064665509
19341,-25849,-15123,17652,-31768,-31733,27392,-27713,27911,3566,17,1,51318,2020-11-02 15:16:11,2020-11-02 15:16:41,3,DF:DC:EF:28:D6:3E,17,17,34289.8083460453,-3474.0251688551452,-4539.738617766758
19342,11785,17645,16375,-7192,-27119,-9735,9404,1285,11502,17,1,51344,2020-11-02 15:16:11,2020-11-02 15:16:41,3,DF:DC:EF:28:D6:3E,17,17,-1043.91080807238,12482.802089529381,23695.205785526123
19343,25608,26860,-23556,14315,-29414,7408,-15803,29185,-7185,17,1,51370,2020-11-02 15:16:11,2020-11-02 15:16:41,3,DF:DC:EF:28:D6:3E,17,17,-15929.500200301516,-35522.52468010143,20408.71538632893
19344,-25339,-4118,-28161,27888,-30174,16358,579,-8964,-23053,17,-1,51421,2020-11-02 15:16:11,2020-11-02 15:16:41,3,DF:DC:EF:28:D6:3E,17,17,-3423.808970250233,10264.228025783737,-36537.486519599974
19345,7681,-6678,-5112,-19721,-8675,31455,1600,-8456,24825,17,-1,51422,2020-11-02 15:16:11,2020-11-02 15:16:41,3,DF:DC:EF:28:D6:3E,17,17,-10578.301810228839,-2031.206553117407,3701.313246711523
19346,7423,-2323,5894,11266,3861,-29985,-30915,-2570,-18945,17,-1,51446,2020-11-02 15:16:11,2020-11-02 15:16:41,3,DF:DC:EF:28:D6:3E,17,17,-8239.30107213058,5200.157289744206,-555.6761689222153
19347,4094,21483,8446,9733,4358,17378,15420,15351,6149,17,-1,51472,2020-11-02 15:16:11,2020-11-02 15:16:41,3,DF:DC:EF:28:D6:3E,17,17,20935.126175224803,1843.9541575363164,-10389.194679681486
19348,3835,9470,27902,-19705,30715,-32541,-15301,26617,20745,17,-1,51497,2020-11-02 15:16:11,2020-11-02 15:16:41,3,DF:DC:EF:28:D6:3E,17,17,-15693.793834454194,-19409.842008667216,16120.564421887495
19349,-13584,-20741,-1809,-27887,25342,-20243,10557,-27141,15372,17,-1,51523,2020-11-02 15:16:11,2020-11-02 15:16:41,3,DF:DC:EF:28:D6:3E,17,17,10915.275239519635,-579.2248137596259,22327.29009666544
19350,4340,-16137,-15129,2838,-32754,-25862,8256,9467,9486,17,-1,51549,2020-11-02 15:16:11,2020-11-02 15:16:41,3,DF:DC:EF:28:D6:3E,17,17,-11998.811681658135,-11262.02053338984,-15405.207617348427
19351,771,-5389,-8971,-7659,-6889,26627,24899,-3081,-18162,17,-1,51574,2020-11-02 15:16:11,2020-11-02 15:16:41,3,DF:DC:EF:28:D6:3E,17,17,-1224.2936054471957,3125.2937772050527,9942.245569981887
19352,-22269,21231,12277,-7145,21003,-18939,-24134,19957,1550,17,-1,51600,2020-11-02 15:16:11,2020-11-02 15:16:41,3,DF:DC:EF:28:D6:3E,17,17,23181.155755825446,-23168.77194945078,-4819.800325584395
19353,-29698,8691,-2848,11286,-7680,-20987,-8770,-7180,-2292,17,-1,51651,2020-11-02 15:16:11,2020-11-02 15:16:41,3,DF:DC:EF:28:D6:3E,17,17,-8597.192265656637,2299.2579755671136,-29772.76417985278
19354,27899,12538,-31517,-27380,3333,-13304,1218,245,-27125,17,-1,51653,2020-11-02 15:16:11,2020-11-02 15:16:41,3,DF:DC:EF:28:D6:3E,17,17,-27724.793064644713,12918.649098207923,-31517.0
19355,-11272,25849,-4628,27398,-17398,19980,31172,30708,10761,17,-1,51677,2020-11-02 15:16:11,2020-11-02 15:16:41,3,DF:DC:EF:28:D6:3E,17,17,9359.449151266097,19933.631721537935,-18212.583753409643
19356,7412,20725,-14864,-26363,3075,-10993,-23866,-13580,30214,17,-1,51702,2020-11-02 15:16:11,2020-11-02 15:16:41,3,DF:DC:EF:28:D6:3E,17,17,-9629.856694215083,24453.917190763925,-3830.621238929963
19357,-14344,-30742,-32277,11530,-14591,24090,7113,-10250,-27133,17,1,51728,2020-11-02 15:16:11,2020-11-02 15:16:41,3,DF:DC:EF:28:D6:3E,17,17,-26738.87580536727,14818.2620198869,-35469.38483220597
19358,-11248,-29471,-16928,-25591,-1037,30744,-25397,24314,-512,17,1,51753,2020-11-02 15:16:11,2020-11-02 15:16:41,3,DF:DC:EF:28:D6:3E,17,17,15857.770996240428,32074.683791044117,-1166.3137379486298
19359,-28948,-21276,-1048,19716,17386,1293,-20532,3582,31745,17,1,51779,2020-11-02 15:16:11,2020-11-02 15:16:41,3,DF:DC:EF:28:D6:3E,17,17,11844.627184726676,33691.787440219065,4039.9814279190014
19360,9451,-27192,-24886,-30212,21480,-12518,-15668,1283,17410,17,1,51805,2020-11-02 15:16:11,2020-11-02 15:16:41,3,DF:DC:EF:28:D6:3E,17,17,-7759.940996044342,12533.42218563064,35081.84580455613
19361,24063,-10288,-19765,26101,-16905,22294,17611,28167,15105,17,1,51830,2020-11-02 15:16:11,2020-11-02 15:16:41,3,DF:DC:EF:28:D6:3E,17,17,453.2075841384967,-32167.44446617276,6369.949560347448
19362,-24835,7907,-21287,-31760,12539,27911,-12600,9993,16128,17,1,51881,2020-11-02 15:16:11,2020-11-02 15:16:41,3,DF:DC:EF:28:D6:3E,17,17,25592.26361482783,-1500.1726202481896,21799.5359624607
19363,24574,2035,-1817,-24847,25340,23553,26566,-4087,12544,17,1,51883,2020-11-02 15:16:11,2020-11-02 15:16:41,3,DF:DC:EF:28:D6:3E,17,17,-7766.492853672003,23470.86655945174,-352.4226188424509
19364,-30212,-2056,-27682,-18458,-25094,14083,30403,30474,11264,17,1,51907,2020-11-02 15:16:11,2020-11-02 15:16:41,3,DF:DC:EF:28:D6:3E,17,17,21244.049644597566,-17123.56165855037,-30639.17745018129
19365,14599,4855,-10001,219,-1293,4101,9150,3340,-5889,17,1,51933,2020-11-02 15:16:11,2020-11-02 15:16:41,3,DF:DC:EF:28:D6:3E,17,17,17176.6351231423,-6320.389570086846,-1318.2217297449283
19366,12291,20473,-11269,-4129,-32518,2817,19525,28173,-21761,17,1,51958,2020-11-02 15:16:11,2020-11-02 15:16:41,3,DF:DC:EF:28:D6:3E,17,17,15840.917515063029,21124.711036992976,121.18945711721517
19367,-28925,-30219,22521,-13846,18704,-22270,31553,13580,-23297,17,1,51984,2020-11-02 15:16:11,2020-11-02 15:16:41,3,DF:DC:EF:28:D6:3E,17,17,-38744.55737745311,24934.124919859227,11583.942122874203
19368,-25080,22764,-1032,13293,-23268,16387,-2242,26632,16384,17,1,52009,2020-11-02 15:16:11,2020-11-02 15:16:41,3,DF:DC:EF:28:D6:3E,17,17,-27846.319763725653,6143.473128219343,-18306.046365591592
19369,-24575,-11541,-6401,-20504,-22750,10497,15932,-17149,258,17,-1,52036,2020-11-02 15:16:11,2020-11-02 15:16:41,3,DF:DC:EF:28:D6:3E,17,17,17347.012636106472,10623.163469701758,-19087.36905649274
19370,15613,-21013,-32238,9447,28966,-3323,-20168,27902,25348,17,-1,52061,2020-11-02 15:16:11,2020-11-02 15:16:41,3,DF:DC:EF:28:D6:3E,17,17,36225.951357096914,17077.509080521704,-10983.611149250795
19371,-32250,-5131,1827,-24587,12321,10244,31797,-24071,13575,17,-1,52086,2020-11-02 15:16:11,2020-11-02 15:16:41,3,DF:DC:EF:28:D6:3E,17,17,-10754.77393333348,22787.15937421302,20852.04535044719
19372,-7934,-11012,-745,31241,2832,-13828,-18380,-6154,5898,17,-1,52112,2020-11-02 15:16:11,2020-11-02 15:16:41,3,DF:DC:EF:28:D6:3E,17,17,-12443.077987078465,603.6877414525284,-5438.096755143595
19373,-10759,4857,24581,21773,27384,-24841,15158,-32265,2827,17,-1,52137,2020-11-02 15:16:11,2020-11-02 15:16:41,3,DF:DC:EF:28:D6:3E,17,17,-8626.00230134503,-24372.665233911554,8668.18116405451
19374,15333,-4374,11014,-3311,3319,-18697,-19400,-16391,-3830,17,-1,52163,2020-11-02 15:16:11,2020-11-02 15:16:41,3,DF:DC:EF:28:D6:3E,17,17,2972.7253058041088,5884.522948901726,18222.959554366596
19375,-11048,-5899,-26094,32552,3069,-19961,19261,-25862,-12278,17,-1,52189,2020-11-02 15:16:11,2020-11-02 15:16:41,3,DF:DC:EF:28:D6:3E,17,17,-2220.18529682357,-27733.383968498987,-7980.1962321469
19376,-29477,24476,1266,15947,10229,-5327,-29765,-26373,13829,17,-1,52214,2020-11-02 15:16:11,2020-11-02 15:16:41,3,DF:DC:EF:28:D6:3E,17,17,-20732.343038151346,31534.418874519914,6732.105123565677
19377,18699,-26482,1993,-27313,-26373,-6088,-18743,256,9725,17,-1,52240,2020-11-02 15:16:11,2020-11-02 15:16:41,3,DF:DC:EF:28:D6:3E,17,17,-12194.381797114145,30051.7225907561,1764.0850077167156
19378,-17631,-19756,-6481,6439,23551,17932,18642,-16125,-26374,17,-1,52265,2020-11-02 15:16:11,2020-11-02 15:16:41,3,DF:DC:EF:28:D6:3E,17,17,-18133.344411506485,-10326.009496200004,-17541.676269332806
19379,-11014,-16916,-20520,19967,26883,-6159,-7469,25346,21754,17,-1,52291,2020-11-02 15:16:11,2020-11-02 15:16:41,3,DF:DC:EF:28:D6:3E,17,17,-1042.6027172746035,26822.294723821014,-10392.648234324835
19380,-10254,30451,17148,-27910,32258,4346,-10542,-8960,-27398,17,-1,52317,2020-11-02 15:16:11,2020-11-02 15:16:41,3,DF:DC:EF:28:D6:3E,17,17,-28747.991759633245,-13961.335769845278,-17466.994426909787
19381,17910,25849,32246,26371,23555,2058,-8494,10241,-9991,17,-1,52342,2020-11-02 15:16:11,2020-11-02 15:16:41,3,DF:DC:EF:28:D6:3E,17,17,37845.164819129306,17128.81745907206,-17409.495376567524
19382,-19451,30454,-6672,15111,-25346,12045,-22061,-4094,-14856,17,-1,52368,2020-11-02 15:16:11,2020-11-02 15:16:41,3,DF:DC:EF:28:D6:3E,17,17,-20176.29793995777,30625.075733646132,2307.561211862976
19383,4868,-11023,-26905,27142,-6664,521,-21804,-22268,-7944,17,1,52393,2020-11-02 15:16:11,2020-11-02 15:16:41,3,DF:DC:EF:28:D6:3E,17,17,1234.398009868224,11247.672457001101,-27222.21710025199
19384,16136,27378,-31777,11264,18422,23559,10709,10246,-31239,17,1,52419,2020-11-02 15:16:11,2020-11-02 15:16:41,3,DF:DC:EF:28:D6:3E,17,17,-35952.01508599067,24876.632793909892,-10407.154322564189
19385,-5371,-12825,14061,-7433,-25355,-4869,-20524,-15098,6395,17,1,52445,2020-11-02 15:16:11,2020-11-02 15:16:41,3,DF:DC:EF:28:D6:3E,17,17,-5196.148887425103,19079.196162520613,155.87665562769234
19386,21747,18140,10487,-19976,-11781,-25354,-10029,-4091,-31492,17,1,52470,2020-11-02 15:16:11,2020-11-02 15:16:41,3,DF:DC:EF:28:D6:3E,17,17,-11691.72887788793,26137.101779126184,-9598.13338277606
19387,-17424,-18741,9733,11005,26616,27126,32467,-4604,-6147,17,1,52496,2020-11-02 15:16:11,2020-11-02 15:16:41,3,DF:DC:EF:28:D6:3E,17,17,-6033.9568529396,16832.237182939112,20732.08388257546
19388,497,3023,31742,254,26362,-13576,-8237,19460,-31745,17,1,52521,2020-11-02 15:16:11,2020-11-02 15:16:41,3,DF:DC:EF:28:D6:3E,17,17,-26733.948727930252,9544.71063239616,-14530.470961266885
19389,4854,-31524,31226,12799,10741,-14856,-2861,-12029,8705,17,1,52547,2020-11-02 15:16:11,2020-11-02 15:16:41,3,DF:DC:EF:28:D6:3E,17,17,10093.940060532423,-42624.734461696724,-8580.871408209208
19390,4346,-27930,-25635,-9222,-20744,26096,-6189,-22782,11267,17,1,52573,2020-11-02 15:16:11,2020-11-02 15:16:41,3,DF:DC:EF:28:D6:3E,17,17,27789.233270330333,-24574.98046407895,-8941.738669705333
19391,9719,-2837,-11305,-4363,-3835,-24597,-26158,6144,24324,17,1,52598,2020-11-02 15:16:11,2020-11-02 15:16:41,3,DF:DC:EF:28:D6:3E,17,17,1562.499543189661,-14117.07437219549,-5345.7797698215545
19392,24058,18664,16601,3041,24066,-24597,13007,-8196,6149,17,1,52624,2020-11-02 15:16:11,2020-11-02 15:16:41,3,DF:DC:EF:28:D6:3E,17,17,21686.075447279643,-8539.678299900332,25680.994669776843
19393,-14865,-16665,6642,-31276,-31495,-10508,29640,-25861,12807,17,1,52650,2020-11-02 15:16:11,2020-11-02 15:16:41,3,DF:DC:EF:28:D6:3E,17,17,-11162.751288735126,20445.466754401637,-427.1848083673019
19394,-10758,20464,-5386,3030,17922,-5378,-6207,31995,-14329,17,1,52675,2020-11-02 15:16:11,2020-11-02 15:16:41,3,DF:DC:EF:28:D6:3E,17,17,-830.1986949971615,-17492.578486537644,-16026.207412209085
19395,2562,-19729,-26886,5077,-2048,-4346,-23365,-30213,7687,17,1,52701,2020-11-02 15:16:11,2020-11-02 15:16:41,3,DF:DC:EF:28:D6:3E,17,17,-26211.152703265434,20705.45005119867,-1707.0715109268376
19396,28163,23534,-26113,472,2822,-2551,22850,-10502,-15867,17,1,52726,2020-11-02 15:16:11,2020-11-02 15:16:41,3,DF:DC:EF:28:D6:3E,17,17,-13951.144904340897,16647.19246508889,39460.47431149771
19397,30209,-22814,16388,-23592,-15093,20496,-7620,-12040,9220,17,1,52752,2020-11-02 15:16:11,2020-11-02 15:16:41,3,DF:DC:EF:28:D6:3E,17,17,-21805.616600511512,-31251.437942855257,15795.300952351734
19398,1798,15833,-29166,9181,-15857,25617,-8137,32757,-16382,17,1,52777,2020-11-02 15:16:11,2020-11-02 15:16:41,3,DF:DC:EF:28:D6:3E,17,17,-26354.90817292694,-19168.027127052577,-6525.16668393733
19399,-26098,-31,-20199,-26135,23563,22535,-21965,31986,-14334,17,1,52803,2020-11-02 15:16:11,2020-11-02 15:16:41,3,DF:DC:EF:28:D6:3E,17,17,8498.268965697749,25345.013952048463,-19352.41221029377
19400,10759,-20251,-12009,-4621,29699,-31495,-25808,-11535,-7933,17,1,52829,2020-11-02 15:16:11,2020-11-02 15:16:41,3,DF:DC:EF:28:D6:3E,17,17,20040.171726938002,10109.442499416366,12894.41167738292
19401,258,-18702,15136,-26632,-5380,23794,32558,11507,1285,17,1,52854,2020-11-02 15:16:11,2020-11-02 15:16:41,3,DF:DC:EF:28:D6:3E,17,17,20103.872290352563,9209.227628768007,-9484.424569510282
19402,19456,31734,18478,22794,-6662,18930,18222,19701,-26875,17,1,52880,2020-11-02 15:16:11,2020-11-02 15:16:41,3,DF:DC:EF:28:D6:3E,17,17,39613.80387641655,6187.181584354041,10930.896691627597
19403,15355,5615,24607,26918,-2577,-8971,24882,-22537,18693,17,1,52905,2020-11-02 15:16:11,2020-11-02 15:16:41,3,DF:DC:EF:28:D6:3E,17,17,10098.351209939938,-16543.064246719194,22297.063196071933
19404,-15386,-3886,32512,-6343,11232,-25861,-20678,21499,30979,17,1,52931,2020-11-02 15:16:11,2020-11-02 15:16:41,3,DF:DC:EF:28:D6:3E,17,17,11142.97990875911,-7932.214789527235,33492.896310796954
19405,-26906,-5956,14311,-1467,-1291,-12807,11077,-11010,4355,17,1,52957,2020-11-02 15:16:11,2020-11-02 15:16:41,3,DF:DC:EF:28:D6:3E,17,17,-16826.566300101946,-15260.331797336446,-21170.74474324122
19406,-13071,-11586,10200,30273,1032,13051,-31037,-27650,-16893,17,1,52982,2020-11-02 15:16:11,2020-11-02 15:16:41,3,DF:DC:EF:28:D6:3E,17,17,-12849.954887002077,3323.6027461840104,15262.986640483228
19407,23286,5328,31452,-29401,-22792,1785,24267,-7683,14596,17,1,53008,2020-11-02 15:16:11,2020-11-02 15:16:41,3,DF:DC:EF:28:D6:3E,17,17,-32324.015110206936,21799.528669237647,6308.1123130616525
19408,24021,13270,28900,25615,25569,28152,-11826,14335,-14585,17,1,53034,2020-11-02 15:16:11,2020-11-02 15:16:41,3,DF:DC:EF:28:D6:3E,17,17,32150.508047264724,20372.489659125782,-11815.999254890787
19409,2009,-43,4837,28430,-7952,30217,-12592,1794,-10742,17,1,53060,2020-11-02 15:16:11,2020-11-02 15:16:41,3,DF:DC:EF:28:D6:3E,17,17,4801.542858259449,695.5494468723675,-1973.8024590250236
19410,-15642,29393,-15120,27671,27406,-29175,-22061,25091,31497,17,1,53085,2020-11-02 15:16:11,2020-11-02 15:16:41,3,DF:DC:EF:28:D6:3E,17,17,-29372.39469324258,-10811.034587134232,-18910.816326646564
19411,-16650,-22579,-2846,-23281,7185,22530,28886,31491,32262,17,1,53110,2020-11-02 15:16:11,2020-11-02 15:16:41,3,DF:DC:EF:28:D6:3E,17,17,-15768.310282052205,21105.063823852044,-10053.364055879923
19412,-22782,11475,2547,-22269,-23049,-27398,26583,2819,5382,17,1,53136,2020-11-02 15:16:11,2020-11-02 15:16:41,3,DF:DC:EF:28:D6:3E,17,17,-22782.0,-5572.984593860654,-10349.138935998097
19413,14820,-18212,13293,-9207,2318,-22526,30424,-26622,-6907,17,1,53162,2020-11-02 15:16:11,2020-11-02 15:16:41,3,DF:DC:EF:28:D6:3E,17,17,9828.114351477241,-1275.4866918327325,-25095.706704399552
19414,24821,-14369,-2573,23053,-31965,24334,-8231,-32509,17153,17,1,53187,2020-11-02 15:16:11,2020-11-02 15:16:41,3,DF:DC:EF:28:D6:3E,17,17,1827.922305595258,19864.58360852761,-20766.019096218788
19415,-28157,18913,-21782,23045,24351,12304,6106,19973,-18693,17,1,53213,2020-11-02 15:16:11,2020-11-02 15:16:41,3,DF:DC:EF:28:D6:3E,17,17,-24146.822574046146,-32278.28332837985,-130.86997505427644
19416,-7150,-27160,32496,514,8987,-20981,6361,-9210,-12298,17,1,53238,2020-11-02 15:16:11,2020-11-02 15:16:41,3,DF:DC:EF:28:D6:3E,17,17,-38454.94358455047,16946.111036311344,-8878.330397887188
19417,-5626,29423,22510,23288,8715,-9215,-27945,1287,3572,17,1,53264,2020-11-02 15:16:11,2020-11-02 15:16:41,3,DF:DC:EF:28:D6:3E,17,17,-5626.0,-36267.78042605152,7553.881913805266
19418,24322,27635,-15376,27379,31498,-18946,25813,-31482,-21262,17,1,53290,2020-11-02 15:16:11,2020-11-02 15:16:41,3,DF:DC:EF:28:D6:3E,17,17,-708.1372436862293,29899.321862063094,-26404.60904525685
19419,20996,-30221,-13835,-19989,23307,-24317,18898,-5627,-12560,17,1,53315,2020-11-02 15:16:11,2020-11-02 15:16:41,3,DF:DC:EF:28:D6:3E,17,17,20242.761620994257,-32354.607352468254,9431.758426889915
19420,-4081,-8210,-9475,-16413,-15358,25094,9166,-5627,20975,17,1,53341,2020-11-02 15:16:11,2020-11-02 15:16:41,3,DF:DC:EF:28:D6:3E,17,17,3541.0100568075213,-4077.5693063291487,-12027.841133373455
19421,-25324,22760,9732,-18209,6142,3078,20681,-26106,-17682,17,1,53366,2020-11-02 15:16:11,2020-11-02 15:16:41,3,DF:DC:EF:28:D6:3E,17,17,-14948.694452123078,22016.37823957509,23363.43346747282
19422,-14311,-21784,23308,-28958,-4603,-14856,-17724,4614,-17170,17,1,53392,2020-11-02 15:16:11,2020-11-02 15:16:41,3,DF:DC:EF:28:D6:3E,17,17,28556.26650718353,2669.5335957481034,-20000.586855187034
19423,12815,-26,1816,-26901,22283,12522,-27455,-21757,-28944,17,1,53418,2020-11-02 15:16:11,2020-11-02 15:16:41,3,DF:DC:EF:28:D6:3E,17,17,-2248.843770748178,-12387.373640564745,3003.0705925450366
19424,258,-28954,-21232,-5902,-6648,11489,-12609,-24064,7412,17,1,53443,2020-11-02 15:16:11,2020-11-02 15:16:41,3,DF:DC:EF:28:D6:3E,17,17,20393.912371873434,18330.105126529634,-23179.60500566651
19425,24055,18414,-3828,-24331,-7676,-12318,6846,-16642,31224,17,1,53469,2020-11-02 15:16:11,2020-11-02 15:16:41,3,DF:DC:EF:28:D6:3E,17,17,6326.564183599269,25042.398963515483,16285.725184434303
19426,-17678,-9484,-27120,6136,10500,23275,-30532,29181,1020,17,1,53494,2020-11-02 15:16:11,2020-11-02 15:16:41,3,DF:DC:EF:28:D6:3E,17,17,11083.223339921478,23315.774161931076,-21713.80150105566
19427,11508,20463,-28394,7934,13820,-6671,-26437,21501,28926,17,-1,53520,2020-11-02 15:16:11,2020-11-02 15:16:41,3,DF:DC:EF:28:D6:3E,17,17,5911.047002450046,8619.034555926193,-35329.2999599281
19428,22264,-18971,13838,16657,7161,14834,-11844,5118,-22784,17,-1,53546,2020-11-02 15:16:11,2020-11-02 15:16:41,3,DF:DC:EF:28:D6:3E,17,17,-19151.39677030882,-23414.545842248648,11491.64156017065
19429,-10251,-16950,7937,-19165,-29452,-18960,22465,7167,5635,17,-1,53571,2020-11-02 15:16:11,2020-11-02 15:16:41,3,DF:DC:EF:28:D6:3E,17,17,-14163.341725523609,15660.303313406383,3088.0610904182086
19430,17391,19397,4079,-24018,-6407,-15386,8904,-20226,26886,17,-1,53597,2020-11-02 15:16:11,2020-11-02 15:16:41,3,DF:DC:EF:28:D6:3E,17,17,18296.481887841757,10401.599971555006,-15886.2896725329
19431,9440,-18733,3294,-30939,-31753,5862,28110,-29956,266,17,-1,53622,2020-11-02 15:16:11,2020-11-02 15:16:41,3,DF:DC:EF:28:D6:3E,17,17,14207.952319457834,14737.613369182358,-5641.468609193016
19432,-8488,4837,-15907,-24307,-18705,11511,25297,-17157,10765,17,-1,53648,2020-11-02 15:16:11,2020-11-02 15:16:41,3,DF:DC:EF:28:D6:3E,17,17,11389.168059307423,-10395.063953961993,-10521.637624908568
19433,21744,-20762,-4120,-10495,-25112,19465,-23087,6142,-12529,17,-1,53674,2020-11-02 15:16:11,2020-11-02 15:16:41,3,DF:DC:EF:28:D6:3E,17,17,14845.39779598392,-7665.787267340595,-25331.53074432879
19434,-4859,-28440,10225,-27901,-15115,1536,-7727,7936,-21231,17,-1,53699,2020-11-02 15:16:11,2020-11-02 15:16:41,3,DF:DC:EF:28:D6:3E,17,17,-22893.560917132258,3567.1151753280865,20003.8662227955
19435,29177,-3355,7413,-14324,-3833,23019,14803,17918,31250,17,-1,53725,2020-11-02 15:16:11,2020-11-02 15:16:41,3,DF:DC:EF:28:D6:3E,17,17,-13564.117586991739,27012.808977676792,1956.7289597196236
19436,-30246,-11539,12796,27409,-1521,1782,-14891,22267,-23535,17,-1,53750,2020-11-02 15:16:11,2020-11-02 15:16:41,3,DF:DC:EF:28:D6:3E,17,17,-32488.68567018384,12468.920224636866,-847.3398702013128
19437,-6397,26850,21998,14355,-9970,16135,16601,12027,-18418,17,-1,53776,2020-11-02 15:16:11,2020-11-02 15:16:41,3,DF:DC:EF:28:D6:3E,17,17,-20772.275422838935,28530.401774255828,-533.7240459839181
19438,17917,20944,-6420,-22803,-9218,4335,9432,-23559,20238,17,1,53802,2020-11-02 15:16:11,2020-11-02 15:16:41,3,DF:DC:EF:28:D6:3E,17,17,-1370.5142006631404,-16691.97322027242,-22811.97373835699
19439,-9232,13015,21243,22778,-31196,-10497,-12329,27895,-29942,17,1,53827,2020-11-02 15:16:11,2020-11-02 15:16:41,3,DF:DC:EF:28:D6:3E,17,17,-7178.987600802093,24733.46481140903,6527.093798186232
19440,27138,12501,-8201,-32260,-19449,20503,26584,21753,16647,17,1,53853,2020-11-02 15:16:11,2020-11-02 15:16:41,3,DF:DC:EF:28:D6:3E,17,17,24494.807001346537,-18972.459033904877,229.5085479578447
19441,-4856,1242,30953,26869,-13300,17686,-21033,-14852,22021,17,1,53878,2020-11-02 15:16:11,2020-11-02 15:16:41,3,DF:DC:EF:28:D6:3E,17,17,-30186.241890524834,1132.7012821201458,8409.476638424481
19442,7948,-12574,-29968,9966,-27118,26634,-27179,10494,-1535,17,1,53904,2020-11-02 15:16:11,2020-11-02 15:16:41,3,DF:DC:EF:28:D6:3E,17,17,12769.919273227188,30898.77206812705,-1245.8934293078328
19443,-16125,-23319,-24332,31724,3349,-7424,-5166,-27395,-1794,17,1,53930,2020-11-02 15:16:11,2020-11-02 15:16:41,3,DF:DC:EF:28:D6:3E,17,17,-7874.514929406767,-23319.0,28107.89681969375
19444,4864,-4114,32245,-12570,-24303,28416,-7217,11516,21500,17,1,53955,2020-11-02 15:16:11,2020-11-02 15:16:41,3,DF:DC:EF:28:D6:3E,17,17,-20311.078995514898,-22266.96531835867,-13113.574743332412
19445,-13823,13807,24062,-17185,12043,11266,-19765,8187,-29958,17,1,53981,2020-11-02 15:16:11,2020-11-02 15:16:41,3,DF:DC:EF:28:D6:3E,17,17,1581.6123666053627,-30869.642567552313,-2291.744329842042
19446,-14333,2288,-6906,4320,-19190,11266,10951,6138,9465,17,1,54006,2020-11-02 15:16:11,2020-11-02 15:16:41,3,DF:DC:EF:28:D6:3E,17,17,-10935.489700944932,-3987.5583866690067,11084.994908137443
19447,-18424,2035,-1522,4581,-6139,32766,-1598,249,27384,17,1,54032,2020-11-02 15:16:11,2020-11-02 15:16:41,3,DF:DC:EF:28:D6:3E,17,17,13582.82314874282,12613.164405095818,-1522.0
19448,17415,18165,-19960,16877,5378,22010,-25409,20472,-8200,17,-1,54058,2020-11-02 15:16:11,2020-11-02 15:16:41,3,DF:DC:EF:28:D6:3E,17,17,-4552.300926330963,13072.25695739315,-28983.507453653918
19449,10760,-9483,-30713,-18194,-30205,-3081,-21572,-28169,-8199,17,-1,54085,2020-11-02 15:16:11,2020-11-02 15:16:41,3,DF:DC:EF:28:D6:3E,17,17,13432.7768288055,-11566.509787662271,-28892.379895041857
19450,-14841,-30729,28432,32238,4860,-6923,6982,26871,26107,17,-1,54109,2020-11-02 15:16:11,2020-11-02 15:16:41,3,DF:DC:EF:28:D6:3E,17,17,-42204.24272456715,13137.703966574942,-4371.267154094052
19451,1799,-1541,2831,22516,16618,-15620,-26301,-14343,17660,17,-1,54160,2020-11-02 15:16:11,2020-11-02 15:16:41,3,DF:DC:EF:28:D6:3E,17,17,-1814.262583979149,1405.3356967020327,2891.21529048743
19452,5903,4595,8198,25339,20709,14335,-19646,-29699,-17157,17,-1,54162,2020-11-02 15:16:11,2020-11-02 15:16:41,3,DF:DC:EF:28:D6:3E,17,17,-283.79586788695997,7531.13701258629,-8146.660248409965
19453,14855,26879,30220,-23810,16349,6643,10818,-28670,9980,17,-1,54186,2020-11-02 15:16:11,2020-11-02 15:16:41,3,DF:DC:EF:28:D6:3E,17,17,31632.38987113623,29078.6668955319,-3197.35963243663
