id,accelerationx,accelerationy,accelerationz,angularvelocityx,angularvelocityy,angularvelocityz,pitch,roll,yaw,mdlcircle_id,hallsensor,timestamp,starttime,endtime,train_mode,blemac,training_id,training_handle_id,accelerationWorldx,accelerationWorldy,accelerationWorldz
24716,27901,30731,2035,-5633,-6657,2560,13110,19203,2046,22,1,3389,2020-11-02 15:24:08,2020-11-02 15:24:38,1,DF:DC:EF:28:D6:3E,22,22,-23797.885599995036,-14639.028697520494,-30762.978834350877
24717,-28163,-28661,2803,-9217,-7425,4608,11318,18947,254,22,1,3414,2020-11-02 15:24:08,2020-11-02 15:24:38,1,DF:DC:EF:28:D6:3E,22,22,24691.43266063331,-17844.247558903287,26351.096395064567
24718,-17667,23307,22259,-10241,-11265,-257,9526,19203,-1283,22,1,3440,2020-11-02 15:24:08,2020-11-02 15:24:38,1,DF:DC:EF:28:D6:3E,22,22,21955.058553798885,-6137.4768079702335,-28828.96115594334
24719,2302,10763,-27661,-8961,-5377,256,7990,19971,-2307,22,1,3466,2020-11-02 15:24:08,2020-11-02 15:24:38,1,DF:DC:EF:28:D6:3E,22,22,-3109.9549327314335,29091.20262883001,5504.761931703602
24720,-19971,10763,-24333,-4865,-3329,-257,6710,20483,-2563,22,1,3491,2020-11-02 15:24:08,2020-11-02 15:24:38,1,DF:DC:EF:28:D6:3E,22,22,19193.899510095827,26290.787191389332,6867.79655008953
24721,-4099,4619,-18189,-513,-3329,-2817,6454,20739,-2563,22,1,3517,2020-11-02 15:24:08,2020-11-02 15:24:38,1,DF:DC:EF:28:D6:3E,22,22,3219.6129122559028,17801.17209347577,6459.80245779193
24722,-13315,523,-1805,5632,2048,-5889,6710,20995,-2051,22,1,3542,2020-11-02 15:24:08,2020-11-02 15:24:38,1,DF:DC:EF:28:D6:3E,22,22,13106.228825638915,1801.4332335472902,2408.8136654923987
24723,-15363,1547,-16397,17664,8448,-6401,8758,20739,-1027,22,1,3568,2020-11-02 15:24:08,2020-11-02 15:24:38,1,DF:DC:EF:28:D6:3E,22,22,14142.72879189313,14633.447405073091,9649.975459135463
24724,-17411,-1526,-22797,24576,10752,-8961,12598,19971,1534,22,1,3594,2020-11-02 15:24:08,2020-11-02 15:24:38,1,DF:DC:EF:28:D6:3E,22,22,18379.73427085638,21364.293511916007,-5561.217211133828
24725,-12547,6411,-11021,-30464,2048,-14081,17462,20227,3326,22,1,3619,2020-11-02 15:24:08,2020-11-02 15:24:38,1,DF:DC:EF:28:D6:3E,22,22,14088.829103813223,-4791.558286877659,-9926.552002936345
24726,-11011,-5110,6644,-7936,-27649,-32001,24630,24323,4606,22,1,3645,2020-11-02 15:24:08,2020-11-02 15:24:38,1,DF:DC:EF:28:D6:3E,22,22,7557.165418231099,8368.314681438933,-8022.313708270551
24727,-25603,-14326,2804,4865,19455,-26625,-30666,32259,4094,22,-1,3670,2020-11-02 15:24:08,2020-11-02 15:24:38,1,DF:DC:EF:28:D6:3E,22,22,5147.94883089275,-6752.568135101619,-28222.539705266074
24728,-13315,-27382,13300,8193,-14593,-15361,-19914,-28157,3582,22,-1,3696,2020-11-02 15:24:08,2020-11-02 15:24:38,1,DF:DC:EF:28:D6:3E,22,22,1662.9187759200195,28984.87064910963,16157.509820485198
24729,5374,18954,244,18945,15616,-3073,-7626,-27901,4862,22,-1,3722,2020-11-02 15:24:08,2020-11-02 15:24:38,1,DF:DC:EF:28:D6:3E,22,22,-15483.334119912868,10446.208825717848,6271.890759622378
24730,-24066,-4087,-3597,29953,-28160,3584,6711,-31997,7678,22,-1,3747,2020-11-02 15:24:08,2020-11-02 15:24:38,1,DF:DC:EF:28:D6:3E,22,22,-7165.978566836493,-9645.354789118934,21550.643057033365
24731,19199,-6392,3573,-30463,-9984,21760,22071,26115,10750,22,-1,3773,2020-11-02 15:24:08,2020-11-02 15:24:38,1,DF:DC:EF:28:D6:3E,22,22,-9865.753172333742,-4586.200653616862,17431.559652175445
24732,-11520,-24313,21239,-31487,-24831,-2048,-27849,11011,13054,22,-1,3798,2020-11-02 15:24:08,2020-11-02 15:24:38,1,DF:DC:EF:28:D6:3E,22,22,14060.098360938566,-30285.2726727423,-7748.766561097401
24733,-11006,25606,20730,6658,-5118,5889,-9673,-15870,18430,22,-1,3824,2020-11-02 15:24:08,2020-11-02 15:24:38,1,DF:DC:EF:28:D6:3E,22,22,-18261.983410692403,-28991.677423394616,-5702.172751278784
24734,-2557,-7419,-30469,24580,-12796,2304,24376,11778,-27138,22,-1,3850,2020-11-02 15:24:08,2020-11-02 15:24:38,1,DF:DC:EF:28:D6:3E,22,22,-2088.7064351779673,30277.005415138843,-8299.398744445245
24735,25347,15364,-28938,14600,-20474,10238,30009,30977,16895,22,-1,3875,2020-11-02 15:24:08,2020-11-02 15:24:38,1,DF:DC:EF:28:D6:3E,22,22,9122.543432806937,36275.80038441047,17798.20937024162
24736,8963,-17664,-25357,-14839,14342,30973,-4294,-14336,5632,22,-1,3902,2020-11-02 15:24:08,2020-11-02 15:24:38,1,DF:DC:EF:28:D6:3E,22,22,19327.130756046772,-17664.0,18702.268170964475
24737,12295,-1539,-4620,-14582,-20731,-21251,-29124,8704,-12800,22,-1,3926,2020-11-02 15:24:08,2020-11-02 15:24:38,1,DF:DC:EF:28:D6:3E,22,22,1842.6623639980803,-5570.499871290516,-11851.332102184013
24738,30478,31994,-15629,525,5126,-5125,28222,26879,-26367,22,-1,3952,2020-11-02 15:24:08,2020-11-02 15:24:38,1,DF:DC:EF:28:D6:3E,22,22,30875.805563471855,14340.924030766348,32215.100337426687
24739,-5100,9207,-13071,-2545,2307,9976,-18112,-6658,-18942,22,-1,3978,2020-11-02 15:24:08,2020-11-02 15:24:38,1,DF:DC:EF:28:D6:3E,22,22,10878.820628003215,12620.964137770887,1998.103094645735
24740,-9190,27378,-30730,3859,515,21747,27971,-17922,24324,22,-1,4003,2020-11-02 15:24:08,2020-11-02 15:24:38,1,DF:DC:EF:28:D6:3E,22,22,-37149.2172480786,19945.69365414911,-669.960080822224
24741,6944,-8214,31989,536,-32755,29677,3770,19965,-8954,22,1,4029,2020-11-02 15:24:08,2020-11-02 15:24:38,1,DF:DC:EF:28:D6:3E,22,22,-8187.074955181493,-2451.9865275027787,-32648.807309719366
24742,-24291,-17699,-16416,29468,30994,-10778,-16963,4090,3082,22,1,4054,2020-11-02 15:24:08,2020-11-02 15:24:38,1,DF:DC:EF:28:D6:3E,22,22,-24291.0,-7561.643698722517,22925.12162614563
24743,-30444,1754,12503,-26343,2316,-1566,-11840,-16394,-15603,22,1,4080,2020-11-02 15:24:08,2020-11-02 15:24:38,1,DF:DC:EF:28:D6:3E,22,22,1829.4320073025292,-21568.171547276215,-24853.688169724872
24744,5904,9434,24794,-10988,19208,-18719,30146,-11277,-5103,22,1,4106,2020-11-02 15:24:08,2020-11-02 15:24:38,1,DF:DC:EF:28:D6:3E,22,22,4884.1384124286305,26451.63752365793,3880.2154946923806
24745,20746,2524,-29735,-14318,10757,13537,-7230,10481,-26346,22,1,4131,2020-11-02 15:24:08,2020-11-02 15:24:38,1,DF:DC:EF:28:D6:3E,22,22,20581.999436648624,12362.865517593282,-27285.127311113996
24746,-32763,-2591,-13352,8463,31746,-29726,6338,3311,-9957,22,1,4157,2020-11-02 15:24:08,2020-11-02 15:24:38,1,DF:DC:EF:28:D6:3E,22,22,-9425.722982821813,32883.20172349618,-9394.367709588663
24747,-765,235,20442,-16887,24064,-5147,6848,-21523,19233,22,1,4182,2020-11-02 15:24:08,2020-11-02 15:24:38,1,DF:DC:EF:28:D6:3E,22,22,3230.450440361836,16786.48847789223,-11238.05181221182
24748,23811,754,23007,7685,32253,17640,11197,13549,-18394,22,1,4208,2020-11-02 15:24:08,2020-11-02 15:24:38,1,DF:DC:EF:28:D6:3E,22,22,-4626.110336809923,18484.481795239106,-27088.324457469393
24749,26626,17653,25060,-29182,13563,7657,-8263,-21779,-4053,22,1,4234,2020-11-02 15:24:08,2020-11-02 15:24:38,1,DF:DC:EF:28:D6:3E,22,22,-26174.03633963159,30625.219484776157,5058.817865957579
24750,25599,-779,29158,-10752,9211,-4887,25923,-15634,-20688,22,1,4259,2020-11-02 15:24:08,2020-11-02 15:24:38,1,DF:DC:EF:28:D6:3E,22,22,-2893.8386749375786,-23216.75583895746,30963.083697165403
24751,-12806,-8971,20455,1535,9724,22764,-16064,8176,-23244,22,1,4285,2020-11-02 15:24:08,2020-11-02 15:24:38,1,DF:DC:EF:28:D6:3E,22,22,-12183.740947451832,-20060.237974697193,10584.08290424362
24752,-1799,4598,30181,-24836,24829,-21264,-23490,29681,-27081,22,1,4311,2020-11-02 15:24:08,2020-11-02 15:24:38,1,DF:DC:EF:28:D6:3E,22,22,9710.20189273053,28299.52571527804,-6334.002643883987
24753,-26119,-26890,-26651,7929,7165,19956,-17348,-20494,-26567,22,-1,4336,2020-11-02 15:24:08,2020-11-02 15:24:38,1,DF:DC:EF:28:D6:3E,22,22,-31418.322757580525,1403.7560120789583,-33562.90401855968
24754,-7430,31735,31206,9206,16636,25080,-5574,-6669,-18374,22,-1,4362,2020-11-02 15:24:08,2020-11-02 15:24:38,1,DF:DC:EF:28:D6:3E,22,22,34448.87209011155,-27145.230883336804,10608.544339798498
24755,-25347,-9225,-16918,4596,-14596,-11013,5177,-7948,10299,22,-1,4387,2020-11-02 15:24:08,2020-11-02 15:24:38,1,DF:DC:EF:28:D6:3E,22,22,8054.853701351494,-4529.083620156589,-30469.599462602942
24756,-30720,249,-19730,30195,22267,-7682,21303,-27659,3387,22,-1,4413,2020-11-02 15:24:08,2020-11-02 15:24:38,1,DF:DC:EF:28:D6:3E,22,22,34888.80928800607,2537.789627367669,10458.676363305562
24757,27141,-12807,8178,-20490,2040,-30207,8502,20214,12346,22,-1,4439,2020-11-02 15:24:08,2020-11-02 15:24:38,1,DF:DC:EF:28:D6:3E,22,22,24104.398445623483,-19504.812782241694,2464.3595322771407
24758,-1275,30458,-10771,18934,-524,-11006,27701,12535,-17352,22,-1,4464,2020-11-02 15:24:08,2020-11-02 15:24:38,1,DF:DC:EF:28:D6:3E,22,22,9927.296974461311,29758.950104613352,7821.987819728696
24759,21510,19960,-15887,-18955,-23052,517,-24780,-3081,-4042,22,-1,4490,2020-11-02 15:24:08,2020-11-02 15:24:38,1,DF:DC:EF:28:D6:3E,22,22,21510.0,-1023.4054294806392,25490.21401100645
24760,-25081,-10250,26101,28663,-2061,3591,52,29944,-10956,22,-1,4515,2020-11-02 15:24:08,2020-11-02 15:24:38,1,DF:DC:EF:28:D6:3E,22,22,-25992.23817084093,21509.65140210818,-16646.91303005051
24761,-26363,14582,-24845,7672,5363,12554,-19405,-17160,21810,22,-1,4541,2020-11-02 15:24:08,2020-11-02 15:24:38,1,DF:DC:EF:28:D6:3E,22,22,11960.065815423677,16418.70282575094,-33351.15502063477
24762,-21240,20981,-27402,-25354,-24843,19981,22323,-32520,-26833,22,-1,4567,2020-11-02 15:24:08,2020-11-02 15:24:38,1,DF:DC:EF:28:D6:3E,22,22,-2128.1551098731215,28325.305436943894,28902.553394677045
24763,-14579,11509,15610,-14090,13817,19982,-10958,-25097,4653,22,-1,4592,2020-11-02 15:24:08,2020-11-02 15:24:38,1,DF:DC:EF:28:D6:3E,22,22,8583.18678147373,19353.701311087687,11850.720325597827
24764,10,23541,-2570,-18440,-23048,-25328,-21966,25846,-29398,22,-1,4618,2020-11-02 15:24:08,2020-11-02 15:24:38,1,DF:DC:EF:28:D6:3E,22,22,22861.034244528204,-6155.530034255924,515.9886315432125
24765,1294,-8715,17396,-22280,7160,14358,7987,-15628,18727,22,-1,4643,2020-11-02 15:24:08,2020-11-02 15:24:38,1,DF:DC:EF:28:D6:3E,22,22,5122.868311867692,18812.288672744493,317.0049725023737
24766,5398,29175,4596,-9481,-27400,-9704,4404,-21006,22051,22,-1,4669,2020-11-02 15:24:08,2020-11-02 15:24:38,1,DF:DC:EF:28:D6:3E,22,22,1815.420183383843,-29728.702199234354,-3788.239710868484
24767,18970,1529,2039,6904,3321,-27369,31541,-19472,1567,22,-1,4695,2020-11-02 15:24:08,2020-11-02 15:24:38,1,DF:DC:EF:28:D6:3E,22,22,-18654.8701856006,2388.9660776114124,3555.9698309197975
24768,-18408,-21255,15609,1274,3578,20245,20279,5359,-16870,22,-1,4720,2020-11-02 15:24:08,2020-11-02 15:24:38,1,DF:DC:EF:28:D6:3E,22,22,24791.183767488073,8898.328602058295,-18452.29865074883
24769,8215,-31495,7416,-19460,14840,-8172,-5575,-787,11542,22,-1,4746,2020-11-02 15:24:08,2020-11-02 15:24:38,1,DF:DC:EF:28:D6:3E,22,22,25219.67619564007,20576.422978425224,7416.0
24770,24089,-17671,-5385,-30211,31479,534,24125,-29715,-2544,22,-1,4772,2020-11-02 15:24:08,2020-11-02 15:24:38,1,DF:DC:EF:28:D6:3E,22,22,23032.560486112357,7475.154987047693,-18307.528570869184
24771,18717,6650,10491,-12804,-21511,11285,-13760,28653,-16629,22,-1,4797,2020-11-02 15:24:08,2020-11-02 15:24:38,1,DF:DC:EF:28:D6:3E,22,22,-206.82335988405976,-16725.17049147695,14994.517869169216
24772,-22499,-1799,-30464,-14851,-10244,16658,-14269,32749,12295,22,-1,4823,2020-11-02 15:24:08,2020-11-02 15:24:38,1,DF:DC:EF:28:D6:3E,22,22,32875.23191385436,-7067.637851340135,-17514.688687287482
24773,18715,24060,-513,-26877,-18692,-9460,-8263,-19987,-17917,22,-1,4848,2020-11-02 15:24:08,2020-11-02 15:24:38,1,DF:DC:EF:28:D6:3E,22,22,17248.672037058663,-10236.305994124346,22958.6442664336
24774,-13804,-11270,-22790,-5879,6907,31241,-18500,23790,30721,22,-1,4874,2020-11-02 15:24:08,2020-11-02 15:24:38,1,DF:DC:EF:28:D6:3E,22,22,4989.42271414265,11128.067319585814,-26233.932124452167
24775,-12779,-32263,-28939,9226,29948,12299,-18241,19439,-32513,22,1,4925,2020-11-02 15:24:08,2020-11-02 15:24:38,1,DF:DC:EF:28:D6:3E,22,22,-21794.293818679584,24526.28150397211,-31066.702488886396
24776,-15847,23290,-21514,30216,-6912,-7670,-28990,-5137,20989,22,1,4927,2020-11-02 15:24:08,2020-11-02 15:24:38,1,DF:DC:EF:28:D6:3E,22,22,11844.755190024687,-29200.54565230907,16230.638098848645
24777,-19945,-32005,13043,-27382,20994,28935,12485,8944,-32261,22,1,4951,2020-11-02 15:24:08,2020-11-02 15:24:38,1,DF:DC:EF:28:D6:3E,22,22,-12697.783369982271,-37782.263874136945,-1873.4281502336266
24778,-7406,7675,-1556,11020,9728,-12796,-22841,26864,29434,22,1,4976,2020-11-02 15:24:08,2020-11-02 15:24:38,1,DF:DC:EF:28:D6:3E,22,22,-6221.656813355736,-6527.755520093809,-5903.811596478069
24779,20241,-12294,-19734,12044,4350,22788,-14647,-2064,-1543,22,1,5002,2020-11-02 15:24:08,2020-11-02 15:24:38,1,DF:DC:EF:28:D6:3E,22,22,20241.0,-12827.966212467434,19391.14423781624
24780,-24559,28923,-23317,12299,3583,28931,-22069,-30991,-20999,22,1,5028,2020-11-02 15:24:08,2020-11-02 15:24:38,1,DF:DC:EF:28:D6:3E,22,22,-15647.545719215334,30016.25419499207,28940.381753990157
24781,-29946,-26885,-16409,4367,2814,22015,-29491,-18959,-12807,22,1,5053,2020-11-02 15:24:08,2020-11-02 15:24:38,1,DF:DC:EF:28:D6:3E,22,22,-6751.335071701398,-34237.199286004034,25904.73087681205
24782,-6900,-24589,8944,-22007,-508,-26619,-19761,-5391,-1288,22,1,5079,2020-11-02 15:24:08,2020-11-02 15:24:38,1,DF:DC:EF:28:D6:3E,22,22,-6900.0,25605.102850995805,-5384.493011410308
24783,-10990,27636,9201,-16117,2816,11266,-14127,11762,8952,22,1,5104,2020-11-02 15:24:08,2020-11-02 15:24:38,1,DF:DC:EF:28:D6:3E,22,22,-9118.711490365617,-20002.356775446155,22044.088123196147
24784,-7155,-12797,25852,-19196,11766,-6416,-16687,27377,-10247,22,1,5156,2020-11-02 15:24:08,2020-11-02 15:24:38,1,DF:DC:EF:28:D6:3E,22,22,26429.646040049254,12202.072418613567,-5988.854388663907
24785,26881,-545,-6636,15377,-18188,18675,-22319,20464,-4868,22,1,5158,2020-11-02 15:24:08,2020-11-02 15:24:38,1,DF:DC:EF:28:D6:3E,22,22,-25674.03408120476,-396.92646283803606,-10373.432671022412
24786,19726,-5139,-25369,-24820,14328,-20237,-814,9199,22015,22,1,5181,2020-11-02 15:24:08,2020-11-02 15:24:38,1,DF:DC:EF:28:D6:3E,22,22,11307.516902281162,3579.100988927034,-30305.785843889404
24787,7688,-5897,-19471,-22523,-11523,24824,-6190,9710,5377,22,1,5207,2020-11-02 15:24:08,2020-11-02 15:24:38,1,DF:DC:EF:28:D6:3E,22,22,-523.1120237879168,-19570.444242898975,-9472.267941002881
24788,14600,-2826,7921,26882,-10241,30714,-10030,22509,-8959,22,1,5232,2020-11-02 15:24:08,2020-11-02 15:24:38,1,DF:DC:EF:28:D6:3E,22,22,-2978.022897306905,14148.222451456426,-8651.456414224145
24789,12042,-4105,-16145,-29441,-29184,-32260,-27182,-13844,20738,22,1,5258,2020-11-02 15:24:08,2020-11-02 15:24:38,1,DF:DC:EF:28:D6:3E,22,22,9561.383860296964,-16415.362716005566,7850.962971383004
24790,-20981,-8456,9968,-19460,12545,-32516,-303,19180,-28414,22,1,5284,2020-11-02 15:24:08,2020-11-02 15:24:38,1,DF:DC:EF:28:D6:3E,22,22,-8096.801218842425,22311.361881209617,-6907.406317009167
24791,6154,24824,-30223,-10758,-1537,-10245,-5680,-17173,3,22,1,5309,2020-11-02 15:24:08,2020-11-02 15:24:38,1,DF:DC:EF:28:D6:3E,22,22,24920.728498841465,24824.0,18173.02220564953
24792,29960,-32521,2547,28154,-9474,-29188,30159,22507,-17405,22,-1,5335,2020-11-02 15:24:08,2020-11-02 15:24:38,1,DF:DC:EF:28:D6:3E,22,22,23948.442731327672,10264.9285444536,-35816.30330899017
24793,-11768,-13577,-16653,6906,-29698,-5635,-1331,12523,30212,22,-1,5360,2020-11-02 15:24:08,2020-11-02 15:24:38,1,DF:DC:EF:28:D6:3E,22,22,-15925.523058781928,5973.198877413299,17630.705387904185
24794,-761,-7434,-31500,30202,2814,-28417,-23860,17899,2053,22,-1,5386,2020-11-02 15:24:08,2020-11-02 15:24:38,1,DF:DC:EF:28:D6:3E,22,22,2865.0623623341926,28698.465279699827,-14706.562659228
24795,29707,-7432,-15118,-6663,-28418,-4353,31435,32235,24325,22,-1,5412,2020-11-02 15:24:08,2020-11-02 15:24:38,1,DF:DC:EF:28:D6:3E,22,22,-16295.901498973159,6536.307389277506,29291.887563771656
24796,8458,-27399,-2320,29177,2559,-31488,20938,-22037,-27131,22,-1,5437,2020-11-02 15:24:08,2020-11-02 15:24:38,1,DF:DC:EF:28:D6:3E,22,22,-15447.503041468592,-24113.283572124106,2747.648113232118
24797,-7928,-5894,6127,3576,22015,5378,15305,-4885,-32507,22,-1,5463,2020-11-02 15:24:08,2020-11-02 15:24:38,1,DF:DC:EF:28:D6:3E,22,22,741.5275929870204,-8486.951006081174,-7909.13070123491
24798,-15350,-31238,29674,-15627,-4352,6149,20168,21996,-9724,22,-1,5488,2020-11-02 15:24:08,2020-11-02 15:24:38,1,DF:DC:EF:28:D6:3E,22,22,28133.669783850404,5671.128250019441,35613.429333119464
24799,27153,-20483,19433,-5136,-3580,26117,25031,29420,25347,22,-1,5514,2020-11-02 15:24:08,2020-11-02 15:24:38,1,DF:DC:EF:28:D6:3E,22,22,17982.822512255854,-22162.046358494415,26831.734619600138
24800,-10733,-21252,490,-13842,-18172,-10493,-1851,13548,-8447,22,-1,5540,2020-11-02 15:24:08,2020-11-02 15:24:38,1,DF:DC:EF:28:D6:3E,22,22,-15228.944167319896,-15615.860347632808,9555.577332211942
24801,-16621,21498,-28437,-12818,-4862,11778,2500,-2581,-4864,22,-1,5565,2020-11-02 15:24:08,2020-11-02 15:24:38,1,DF:DC:EF:28:D6:3E,22,22,-16621.0,21498.0,-28437.0
24802,-21485,29689,-28691,27630,24066,9217,-11071,-18197,22272,22,-1,5591,2020-11-02 15:24:08,2020-11-02 15:24:38,1,DF:DC:EF:28:D6:3E,22,22,-25569.793012219925,11828.390924566631,37047.1359277321
24803,2068,5371,-17935,10735,32513,-16385,23999,31723,7680,22,-1,5616,2020-11-02 15:24:08,2020-11-02 15:24:38,1,DF:DC:EF:28:D6:3E,22,22,10724.775436495329,-14916.43697441812,4155.4289579968
24804,-16879,19198,-4879,241,24833,-5890,-10308,19435,18688,22,-1,5642,2020-11-02 15:24:08,2020-11-02 15:24:38,1,DF:DC:EF:28:D6:3E,22,22,-14802.076885661594,-4220.554739676802,20984.61158945656
24805,15631,26622,11245,31215,-8186,-27391,-26694,-23574,8704,22,-1,5668,2020-11-02 15:24:08,2020-11-02 15:24:38,1,DF:DC:EF:28:D6:3E,22,22,21516.361680854312,-14447.746005367684,-20194.50136505099
24806,-3054,-19203,23533,-24341,12810,-18427,20037,16105,-1026,22,-1,5693,2020-11-02 15:24:08,2020-11-02 15:24:38,1,DF:DC:EF:28:D6:3E,22,22,-22377.568497818735,15689.848762545496,13599.900291321255
24807,14614,-18949,22766,-1046,-3574,17927,-14269,-26393,5117,22,-1,5719,2020-11-02 15:24:08,2020-11-02 15:24:38,1,DF:DC:EF:28:D6:3E,22,22,-3682.377285124394,28586.63162484527,-16129.753342050712
24808,15900,-4358,5615,12011,-31475,-1274,30530,-26395,1531,22,-1,5744,2020-11-02 15:24:08,2020-11-02 15:24:38,1,DF:DC:EF:28:D6:3E,22,22,-6024.854864066105,4148.159997984782,-15805.830617150681
24809,-10203,5116,8435,1517,-10224,11011,11328,7907,15610,22,-1,5770,2020-11-02 15:24:08,2020-11-02 15:24:38,1,DF:DC:EF:28:D6:3E,22,22,3131.244398892751,3571.7889812417534,13373.911992677487
24810,25385,23290,-2059,-12816,24082,-16644,23096,-18720,-24065,22,-1,5796,2020-11-02 15:24:08,2020-11-02 15:24:38,1,DF:DC:EF:28:D6:3E,22,22,27625.350358753305,-6311.264557370331,19699.486370030296
24811,7721,-17163,8952,-8973,31509,16375,26658,12000,-14829,22,-1,5821,2020-11-02 15:24:08,2020-11-02 15:24:38,1,DF:DC:EF:28:D6:3E,22,22,14997.573697065563,-10467.762455320328,-9990.968240369566
24812,-3800,-18958,23806,-16649,-14825,19442,20500,3043,-28128,22,1,5847,2020-11-02 15:24:08,2020-11-02 15:24:38,1,DF:DC:EF:28:D6:3E,22,22,-9177.553488267838,-12947.696860795762,-26243.114486869166
24813,-11736,-30483,15872,-10242,-6120,10220,-3312,25575,28963,22,1,5872,2020-11-02 15:24:08,2020-11-02 15:24:38,1,DF:DC:EF:28:D6:3E,22,22,-30462.211655208295,-4484.368552040538,-19256.465635281093
24814,-3550,31210,-17670,2821,18199,-4634,17937,17900,-31197,22,1,5898,2020-11-02 15:24:08,2020-11-02 15:24:38,1,DF:DC:EF:28:D6:3E,22,22,29110.84729297377,-1723.8009727637095,-21177.40730333769
24815,-16868,8425,-8201,6919,-15083,-25883,-32494,17393,7459,22,1,5924,2020-11-02 15:24:08,2020-11-02 15:24:38,1,DF:DC:EF:28:D6:3E,22,22,832.7990228024919,20275.25698840576,-3314.641736556563
24816,281,-16408,28155,-3065,7957,28645,-19949,14070,-5086,22,1,5950,2020-11-02 15:24:08,2020-11-02 15:24:38,1,DF:DC:EF:28:D6:3E,22,22,-23356.52597847133,20217.03071114567,10380.260759806883
24817,6168,16869,24575,-19957,31253,-27679,10005,28411,-8158,22,1,5975,2020-11-02 15:24:08,2020-11-02 15:24:38,1,DF:DC:EF:28:D6:3E,22,22,-23143.40473695921,14639.422478760911,-13289.399409666474
24818,-29941,-1566,-17925,14352,-21998,4832,21271,3329,-17118,22,1,6000,2020-11-02 15:24:08,2020-11-02 15:24:38,1,DF:DC:EF:28:D6:3E,22,22,16169.699000352848,25527.434949547667,17524.62156894123
24819,-6138,-12314,32757,-18930,18194,-26396,-15591,16646,10275,22,1,6026,2020-11-02 15:24:08,2020-11-02 15:24:38,1,DF:DC:EF:28:D6:3E,22,22,-29192.019620926665,19148.632801398246,6594.432597930452
24820,5382,-8726,-11534,-31221,27410,22761,17180,-16374,-28380,22,1,6052,2020-11-02 15:24:08,2020-11-02 15:24:38,1,DF:DC:EF:28:D6:3E,22,22,-11084.552889786719,-8766.729066801616,6198.330799724761
24821,10752,-16151,-18447,-9462,-19951,-28692,13343,-29938,-9690,22,1,6077,2020-11-02 15:24:08,2020-11-02 15:24:38,1,DF:DC:EF:28:D6:3E,22,22,17786.61151621872,15783.903914819639,-12298.65610458545
24822,-12043,14314,27375,3336,529,28915,-10462,22289,4394,22,1,6103,2020-11-02 15:24:08,2020-11-02 15:24:38,1,DF:DC:EF:28:D6:3E,22,22,12309.989526355443,30769.155415312718,-1018.9714860344739
24823,6905,-25109,1521,25091,-23278,1787,-20954,28946,10286,22,1,6129,2020-11-02 15:24:08,2020-11-02 15:24:38,1,DF:DC:EF:28:D6:3E,22,22,-21095.085269491632,13550.678709967904,7199.363233793645
24824,-19975,-10001,-19467,20480,-1003,7422,31530,14866,-2254,22,1,6154,2020-11-02 15:24:08,2020-11-02 15:24:38,1,DF:DC:EF:28:D6:3E,22,22,12011.691301944778,-21504.28437168504,16470.268386656204
24825,31229,243,-19206,-1791,-27627,5377,-9683,-1776,28471,22,1,6180,2020-11-02 15:24:08,2020-11-02 15:24:38,1,DF:DC:EF:28:D6:3E,22,22,-32544.17932941488,-13156.279011785437,-10581.523535811812
24826,-11262,-14604,-6918,32264,8980,13057,4657,10511,-3782,22,1,6205,2020-11-02 15:24:08,2020-11-02 15:24:38,1,DF:DC:EF:28:D6:3E,22,22,-11906.180841588019,-14604.0,5738.834878910739
24827,771,-2318,-30222,-31217,1043,-1025,-13516,14349,-15299,22,1,6231,2020-11-02 15:24:08,2020-11-02 15:24:38,1,DF:DC:EF:28:D6:3E,22,22,-29534.202963283486,-815.1360569412648,-6811.9936532744505
24828,11780,16631,23524,-21745,25107,23810,-31688,-12278,-6081,22,1,6257,2020-11-02 15:24:08,2020-11-02 15:24:38,1,DF:DC:EF:28:D6:3E,22,22,-28774.10995841346,11794.193257608094,1297.974769910124
24829,9230,16635,29405,1291,10516,-26877,9019,-12793,14401,22,1,6308,2020-11-02 15:24:08,2020-11-02 15:24:38,1,DF:DC:EF:28:D6:3E,22,22,27233.588463730768,-21645.98087031193,-4043.9240287424172
24830,-14070,-23047,-10269,32271,-4079,24321,-31939,-13052,19266,22,1,6310,2020-11-02 15:24:08,2020-11-02 15:24:38,1,DF:DC:EF:28:D6:3E,22,22,-28780.517977772066,759.4764035358221,-2384.6279633542067
24831,-1027,10230,20435,-7155,-32241,-9725,9536,24066,-12222,22,1,6333,2020-11-02 15:24:08,2020-11-02 15:24:38,1,DF:DC:EF:28:D6:3E,22,22,-4700.812643347062,17767.118467799755,-13620.892622853955
24832,518,12543,1997,5376,-19696,15883,10049,-22273,11586,22,1,6359,2020-11-02 15:24:08,2020-11-02 15:24:38,1,DF:DC:EF:28:D6:3E,22,22,-3737.713637550645,-4080.0523370416263,-11444.031269210562
24833,6413,-8179,9181,-3850,-25587,22792,18496,-260,11585,22,1,6385,2020-11-02 15:24:08,2020-11-02 15:24:38,1,DF:DC:EF:28:D6:3E,22,22,-8853.359603664867,3000.890938013964,-10243.341657210342
24834,-25346,-6653,-24593,-771,-14581,-499,-21953,-25094,12864,22,1,6410,2020-11-02 15:24:08,2020-11-02 15:24:38,1,DF:DC:EF:28:D6:3E,22,22,-17691.169429203084,31168.515482336777,2654.0423611093083
24835,3600,-11767,-32024,-16381,1800,-5618,-31936,-19464,17982,22,1,6436,2020-11-02 15:24:08,2020-11-02 15:24:38,1,DF:DC:EF:28:D6:3E,22,22,-3179.7721567030603,-27194.154153220446,20671.862371889452
24836,-3308,782,22505,22789,-5882,15624,-17599,5623,-16580,22,-1,6461,2020-11-02 15:24:08,2020-11-02 15:24:38,1,DF:DC:EF:28:D6:3E,22,22,3560.502143701061,2008.4828599538089,-22390.13698229584
24837,18701,-23032,4334,5640,-20476,27396,2883,2806,3644,22,-1,6487,2020-11-02 15:24:08,2020-11-02 15:24:38,1,DF:DC:EF:28:D6:3E,22,22,18701.0,-23032.0,4334.0
24838,-27902,3586,-20245,31497,8708,27654,-14524,21237,20539,22,-1,6538,2020-11-02 15:24:08,2020-11-02 15:24:38,1,DF:DC:EF:28:D6:3E,22,22,-25259.374372100603,23702.838311907526,-1174.9413983837712
24839,29703,-24323,-19477,16904,9219,10765,22970,-11020,-31943,22,-1,6540,2020-11-02 15:24:08,2020-11-02 15:24:38,1,DF:DC:EF:28:D6:3E,22,22,-3990.982449498213,-9408.086442918713,41818.536985054445
24840,-19695,-12291,-11541,19973,-7420,-30451,-27716,26100,2103,22,-1,6564,2020-11-02 15:24:08,2020-11-02 15:24:38,1,DF:DC:EF:28:D6:3E,22,22,14204.089808539444,16768.191342383452,-13756.016095373048
24841,3859,15359,-24334,5121,-24057,-32246,12478,-26125,-15820,22,-1,6590,2020-11-02 15:24:08,2020-11-02 15:24:38,1,DF:DC:EF:28:D6:3E,22,22,7770.021597409655,-20833.953103862757,-18668.35505452569
24842,-25078,11771,-13326,3071,8,-10998,17855,-20238,-25550,22,-1,6615,2020-11-02 15:24:08,2020-11-02 15:24:38,1,DF:DC:EF:28:D6:3E,22,22,-7461.93159763924,23590.5995420186,-18244.122096726518
24843,-29428,-25093,758,6145,-10747,12557,-10048,14322,816,22,-1,6641,2020-11-02 15:24:08,2020-11-02 15:24:38,1,DF:DC:EF:28:D6:3E,22,22,31818.614831378294,-12919.970754664846,17801.41856456947
24844,22556,-2308,22761,8708,-15865,4617,-3134,-13071,25133,22,-1,6666,2020-11-02 15:24:08,2020-11-02 15:24:38,1,DF:DC:EF:28:D6:3E,22,22,17916.943754336004,24275.594888555017,11038.19461283057
24845,-19447,-15622,2034,-21241,-15356,25349,-23612,15089,-5333,22,-1,6692,2020-11-02 15:24:08,2020-11-02 15:24:38,1,DF:DC:EF:28:D6:3E,22,22,-3866.526563713485,8671.88436967502,23156.3866527376
24846,1311,23037,28384,15619,-26362,-1277,28358,2801,-30934,22,1,6717,2020-11-02 15:24:08,2020-11-02 15:24:38,1,DF:DC:EF:28:D6:3E,22,22,-5787.379565638756,3079.138586549547,-35987.479619001504
24847,13564,5376,-20749,-11009,12038,7936,-24122,-17,-5335,22,1,6743,2020-11-02 15:24:08,2020-11-02 15:24:38,1,DF:DC:EF:28:D6:3E,22,22,13564.0,12188.906869381424,17631.021704074505
24848,-15338,-17149,31977,19713,-16892,28155,31687,10479,7977,22,1,6769,2020-11-02 15:24:08,2020-11-02 15:24:38,1,DF:DC:EF:28:D6:3E,22,22,-14586.19950073738,25032.532541523477,26692.434746239556
24849,-29687,-8963,-17686,-9726,31489,-22790,13767,17390,-6871,22,1,6794,2020-11-02 15:24:08,2020-11-02 15:24:38,1,DF:DC:EF:28:D6:3E,22,22,32490.214431038006,-13932.59711338599,4971.583037749451
24850,31754,-2311,-21010,14849,3839,-2564,-5946,2798,-20950,22,1,6820,2020-11-02 15:24:08,2020-11-02 15:24:38,1,DF:DC:EF:28:D6:3E,22,22,-34107.333349663815,14257.397819618676,-9407.112000398567
24851,-18935,-9219,10215,-19460,-15104,9211,10694,-15123,31531,22,1,6846,2020-11-02 15:24:08,2020-11-02 15:24:38,1,DF:DC:EF:28:D6:3E,22,22,-10206.47641012905,-13358.971598464512,-16286.071598789496
24852,-26358,7415,-6419,-21513,-24576,3323,31684,16621,17708,22,1,6871,2020-11-02 15:24:08,2020-11-02 15:24:38,1,DF:DC:EF:28:D6:3E,22,22,-2247.3215678768393,4413.287844734145,27683.97345342748
24853,-23037,-24076,-30735,-9223,-4869,-3077,31938,22509,31021,22,1,6897,2020-11-02 15:24:08,2020-11-02 15:24:38,1,DF:DC:EF:28:D6:3E,22,22,-27766.343286290674,-34111.588569089035,-10973.927091112586
24854,24578,-1037,-786,32761,4094,7424,13249,-12051,2606,22,1,6922,2020-11-02 15:24:08,2020-11-02 15:24:38,1,DF:DC:EF:28:D6:3E,22,22,-9668.066111893899,1146.2520469843726,22604.996193338164
24855,4612,7668,-23823,24566,-20222,1283,20928,-11539,-32723,22,1,6948,2020-11-02 15:24:08,2020-11-02 15:24:38,1,DF:DC:EF:28:D6:3E,22,22,-2851.1507162253165,-24548.207344106417,-6071.289219278518
24856,-31230,19955,25075,20726,-22525,23813,-18753,-28435,20012,22,1,6974,2020-11-02 15:24:08,2020-11-02 15:24:38,1,DF:DC:EF:28:D6:3E,22,22,2788.266322537016,15983.187706964402,41701.724564321645
24857,-10235,-23310,-29967,31478,-6653,7432,-22593,27373,30762,22,1,6999,2020-11-02 15:24:08,2020-11-02 15:24:38,1,DF:DC:EF:28:D6:3E,22,22,12896.305585884991,22848.309244545442,-29287.753087273366
24858,17928,-26128,-26896,-18699,-4859,2828,704,25069,-3801,22,1,7025,2020-11-02 15:24:08,2020-11-02 15:24:38,1,DF:DC:EF:28:D6:3E,22,22,8636.437078959203,-26128.0,31148.353962628244
24859,16141,-31500,9716,-26124,31751,32009,32448,-11796,1829,22,1,7050,2020-11-02 15:24:08,2020-11-02 15:24:38,1,DF:DC:EF:28:D6:3E,22,22,-36689.44831349253,381.54941053542643,959.8643127443029
24860,-16629,10741,-2056,-21001,-7423,2055,-26944,-27156,-4318,22,1,7076,2020-11-02 15:24:08,2020-11-02 15:24:38,1,DF:DC:EF:28:D6:3E,22,22,18038.407980439,-5464.800201342956,6393.09426573992
24861,12559,9974,-14597,28669,14333,-4859,-2112,2541,-31455,22,1,7102,2020-11-02 15:24:08,2020-11-02 15:24:38,1,DF:DC:EF:28:D6:3E,22,22,-6001.797328257484,14872.376603304574,-14597.0
24862,-10480,-8714,1527,-13826,-28932,4100,26561,-17939,-17376,22,1,7127,2020-11-02 15:24:08,2020-11-02 15:24:38,1,DF:DC:EF:28:D6:3E,22,22,-8522.513062130472,-8135.602100234415,-7019.592194171739
24863,270,-26120,27382,25853,12287,-14078,32193,10222,20256,22,1,7153,2020-11-02 15:24:08,2020-11-02 15:24:38,1,DF:DC:EF:28:D6:3E,22,22,-30140.23745470993,-14742.149765890503,17502.466410587836
24864,32012,-8715,22263,-18441,-18429,-9976,-20287,9710,-12002,22,-1,7178,2020-11-02 15:24:08,2020-11-02 15:24:38,1,DF:DC:EF:28:D6:3E,22,22,10791.542352216515,-4702.228836328519,-38181.044978249585
24865,28170,28919,-23818,-32522,1029,14605,16578,4078,6940,22,-1,7204,2020-11-02 15:24:08,2020-11-02 15:24:38,1,DF:DC:EF:28:D6:3E,22,22,7122.760101995245,28903.61846320687,36207.75763925173
24866,18452,1785,-15369,-22283,-1532,-22002,13763,13806,-21992,22,-1,7230,2020-11-02 15:24:08,2020-11-02 15:24:38,1,DF:DC:EF:28:D6:3E,22,22,2250.6646025632745,-13045.105177201858,-20115.377942323383
24867,-23533,23291,10237,-17930,-26109,30731,-15421,26094,-15595,22,-1,7255,2020-11-02 15:24:08,2020-11-02 15:24:38,1,DF:DC:EF:28:D6:3E,22,22,-14762.059312779511,-31332.94114246234,-1182.0927243540577
24868,14354,30714,-17409,-11527,26115,-24054,23748,-26898,21267,22,-1,7281,2020-11-02 15:24:08,2020-11-02 15:24:38,1,DF:DC:EF:28:D6:3E,22,22,22870.625629820755,30327.181308853444,-3107.5633799676516
24869,20500,19706,-9729,22269,-29693,2314,24261,-12818,529,22,-1,7306,2020-11-02 15:24:08,2020-11-02 15:24:38,1,DF:DC:EF:28:D6:3E,22,22,-752.6515581335725,-20243.63266958917,22200.421819658768
24870,-7915,-16390,-12037,14080,24067,-25593,-23098,-2834,1807,22,-1,7332,2020-11-02 15:24:08,2020-11-02 15:24:38,1,DF:DC:EF:28:D6:3E,22,22,-7915.0,19822.85058197613,-4536.084633761647
24871,5651,6138,2809,2049,-6909,13061,-11833,-3090,-31475,22,-1,7358,2020-11-02 15:24:08,2020-11-02 15:24:38,1,DF:DC:EF:28:D6:3E,22,22,1603.0640085558903,5418.854749214685,-6750.224069716958
24872,23311,18168,-2823,-19967,-9979,9989,4553,-15122,1292,22,-1,7383,2020-11-02 15:24:08,2020-11-02 15:24:38,1,DF:DC:EF:28:D6:3E,22,22,-7133.852270821537,18168.0,22371.41483630605
24873,-27378,-15113,12537,9987,18947,23045,-31030,-16914,32266,22,-1,7409,2020-11-02 15:24:08,2020-11-02 15:24:38,1,DF:DC:EF:28:D6:3E,22,22,-9586.53052320942,-25087.10634176307,-20343.784061099486
24874,-2035,26358,28663,15365,-20224,1285,-7733,8943,-32247,22,-1,7434,2020-11-02 15:24:08,2020-11-02 15:24:38,1,DF:DC:EF:28:D6:3E,22,22,-38694.111405960546,4426.562179499799,-1903.7457220269607
24875,22541,-8972,22003,20485,25602,25860,19405,-30737,-21752,22,-1,7460,2020-11-02 15:24:08,2020-11-02 15:24:38,1,DF:DC:EF:28:D6:3E,22,22,16366.224568707212,-3502.599677290138,-28153.22295701314
24876,3340,-2572,31217,-28158,8197,31748,-21042,-22289,28423,22,-1,7486,2020-11-02 15:24:08,2020-11-02 15:24:38,1,DF:DC:EF:28:D6:3E,22,22,4605.085462431713,-5303.293282670837,30707.33041541837
24877,-13813,-27147,22261,6657,1795,10500,-22833,-8465,17670,22,-1,7511,2020-11-02 15:24:08,2020-11-02 15:24:38,1,DF:DC:EF:28:D6:3E,22,22,-12015.002092155035,-28607.531582109576,-21460.651446405653
24878,2571,-25867,-266,-17151,-10239,-30205,23248,12016,-31995,22,-1,7537,2020-11-02 15:24:08,2020-11-02 15:24:38,1,DF:DC:EF:28:D6:3E,22,22,-11229.54983621952,20934.06329764951,-10556.736727126703
24879,-14069,17654,26869,-10751,-13822,12547,6353,28656,-14332,22,-1,7562,2020-11-02 15:24:08,2020-11-02 15:24:38,1,DF:DC:EF:28:D6:3E,22,22,1496.6395019556512,34679.77205057112,-5159.178105242382
24880,268,-6666,26355,23553,-30462,24322,-15407,-26128,4868,22,-1,7588,2020-11-02 15:24:08,2020-11-02 15:24:38,1,DF:DC:EF:28:D6:3E,22,22,-3888.180633253228,26738.568496414093,3004.065765885689
24881,-19958,-21002,16369,-23809,-30718,-9984,8402,-24848,-29693,22,-1,7614,2020-11-02 15:24:08,2020-11-02 15:24:38,1,DF:DC:EF:28:D6:3E,22,22,25894.836920785558,-1023.3294434524219,20874.868782727342
24882,26375,22517,29425,9725,-30205,-5376,9682,-31248,-254,22,-1,7639,2020-11-02 15:24:08,2020-11-02 15:24:38,1,DF:DC:EF:28:D6:3E,22,22,40896.0712488083,-12594.296706739451,-15407.192666900952
24883,-15611,28404,30194,30203,6661,-5630,6354,-31504,4610,22,-1,7665,2020-11-02 15:24:08,2020-11-02 15:24:38,1,DF:DC:EF:28:D6:3E,22,22,34134.91778522007,-10060.628219410984,26377.250058090933
24884,19974,22772,24817,5114,6662,24836,6098,-21008,-17152,22,1,7690,2020-11-02 15:24:08,2020-11-02 15:24:38,1,DF:DC:EF:28:D6:3E,22,22,2340.8169241331307,25730.149039159092,-29425.97756320684
24885,-28154,25588,8177,-21768,3078,18693,-3631,-3088,17407,22,1,7716,2020-11-02 15:24:08,2020-11-02 15:24:38,1,DF:DC:EF:28:D6:3E,22,22,24261.26998305306,-29305.0207099297,8177.0
24886,-19189,22773,-30479,-29449,30979,-12284,30929,22257,-1539,22,1,7742,2020-11-02 15:24:08,2020-11-02 15:24:38,1,DF:DC:EF:28:D6:3E,22,22,14695.159334576638,-22767.214017903745,32886.21214117509
24887,20235,4087,15091,-25351,-7681,-9981,-20528,-13839,23805,22,1,7767,2020-11-02 15:24:08,2020-11-02 15:24:38,1,DF:DC:EF:28:D6:3E,22,22,-5168.6936764156635,-3052.4630182774163,24856.873298977676
24888,-5365,28662,23792,18682,6398,-24062,-10289,19698,16893,22,1,7793,2020-11-02 15:24:08,2020-11-02 15:24:38,1,DF:DC:EF:28:D6:3E,22,22,-33834.72337055735,-11391.64123526506,11907.75954597962
24889,9995,27382,8431,-4105,1790,-27391,-21810,-18958,24829,22,1,7819,2020-11-02 15:24:08,2020-11-02 15:24:38,1,DF:DC:EF:28:D6:3E,22,22,-14273.513549892254,23125.69204395975,13499.069909774484
24890,-8691,7414,-5135,19190,20989,2047,2765,-3342,-18179,22,1,7844,2020-11-02 15:24:08,2020-11-02 15:24:38,1,DF:DC:EF:28:D6:3E,22,22,9650.288527710327,-6113.330379747396,-5135.0
24891,-16372,-23821,31477,14838,507,-17669,2251,1267,-25346,22,1,7870,2020-11-02 15:24:08,2020-11-02 15:24:38,1,DF:DC:EF:28:D6:3E,22,22,28729.245601509214,3180.0742394107,31477.0
24892,8970,-23311,16119,6647,26105,30202,-7992,10227,1024,22,1,7895,2020-11-02 15:24:08,2020-11-02 15:24:38,1,DF:DC:EF:28:D6:3E,22,22,28680.893748514016,968.6837520262761,7755.885995488211
24893,-29431,29422,-9224,8952,-19464,-7686,-11066,-29965,-30975,22,1,7921,2020-11-02 15:24:08,2020-11-02 15:24:38,1,DF:DC:EF:28:D6:3E,22,22,-18259.04012708261,-33046.317806568186,19785.559230531788
24894,-29691,-15,-19462,31739,-32007,-30467,21189,15860,-12798,22,1,7947,2020-11-02 15:24:08,2020-11-02 15:24:38,1,DF:DC:EF:28:D6:3E,22,22,-9920.91002320531,-28313.04819697963,18980.832334409704
24895,-29690,-6669,14583,13053,21757,-25857,-23356,-19724,18179,22,1,7972,2020-11-02 15:24:08,2020-11-02 15:24:38,1,DF:DC:EF:28:D6:3E,22,22,-30193.254388876445,11048.744128676492,10243.44632375402
24896,-16634,-7693,-3595,-7429,25855,9729,10436,-6668,17155,22,1,7998,2020-11-02 15:24:08,2020-11-02 15:24:38,1,DF:DC:EF:28:D6:3E,22,22,1821.889707338517,-1262.0116940968314,-18544.11697488605
24897,-30201,4596,19705,12028,28671,-8446,-18237,7669,-4606,22,1,8023,2020-11-02 15:24:08,2020-11-02 15:24:38,1,DF:DC:EF:28:D6:3E,22,22,-33278.68703270433,-1769.2357555559638,14522.721377916027
24898,7177,-22284,3834,24318,23808,-19453,-24637,23029,24834,22,1,8049,2020-11-02 15:24:08,2020-11-02 15:24:38,1,DF:DC:EF:28:D6:3E,22,22,2311.6197981584373,-15168.470604463248,18093.077527891608
24899,15626,-13835,5881,6401,-15871,20483,-1341,24565,-19455,22,1,8075,2020-11-02 15:24:08,2020-11-02 15:24:38,1,DF:DC:EF:28:D6:3E,22,22,12565.439441783969,15766.013347472583,7981.717657382786
24900,15627,-8459,16374,13571,24064,5378,-24636,24565,12545,22,1,8100,2020-11-02 15:24:08,2020-11-02 15:24:38,1,DF:DC:EF:28:D6:3E,22,22,5104.049796549451,5338.532286649962,23006.834521479468
24901,5643,-27659,-3595,-5372,-9219,9473,22981,-24843,4097,22,-1,8126,2020-11-02 15:24:08,2020-11-02 15:24:38,1,DF:DC:EF:28:D6:3E,22,22,13931.553213328385,15358.423938834641,-19488.930041929718
24902,-5110,-29195,-17676,-2299,-24835,-11008,13254,-267,8961,22,-1,8152,2020-11-02 15:24:08,2020-11-02 15:24:38,1,DF:DC:EF:28:D6:3E,22,22,-26509.063630282908,10948.57502181178,-19191.126893368488
24903,29194,-18443,-21005,-18939,18431,22273,8647,16630,7425,22,-1,8177,2020-11-02 15:24:08,2020-11-02 15:24:38,1,DF:DC:EF:28:D6:3E,22,22,-26252.39809013067,-26615.338319908882,-15364.871318500958
24904,4619,-9483,-9485,-12796,-5631,28162,5320,20214,-16384,22,-1,8203,2020-11-02 15:24:08,2020-11-02 15:24:38,1,DF:DC:EF:28:D6:3E,22,22,-6162.899278719664,9321.449073745209,8738.245513026697
24905,-13556,-22795,-28429,28420,-16125,-28158,3785,10230,4608,22,-1,8228,2020-11-02 15:24:08,2020-11-02 15:24:38,1,DF:DC:EF:28:D6:3E,22,22,-31246.516685452192,-22795.0,-3953.2735834694995
24906,22540,22005,22259,-15100,-253,20737,3018,-10251,26367,22,-1,8254,2020-11-02 15:24:08,2020-11-02 15:24:38,1,DF:DC:EF:28:D6:3E,22,22,20936.039147300187,-9424.942177695015,30993.345023888913
24907,9995,30196,8690,-23803,16643,30976,5579,32501,-7682,22,-1,8279,2020-11-02 15:24:08,2020-11-02 15:24:38,1,DF:DC:EF:28:D6:3E,22,22,22438.557687741264,20941.248338090343,12049.472516933503
24908,-12535,-25100,-16911,-18427,20738,21760,7372,16117,-30722,22,-1,8305,2020-11-02 15:24:08,2020-11-02 15:24:38,1,DF:DC:EF:28:D6:3E,22,22,-6965.91103034835,-21191.591771501786,23989.8034111847
24909,-31224,-17932,-10512,13061,27906,30208,5325,3317,12286,22,-1,8331,2020-11-02 15:24:08,2020-11-02 15:24:38,1,DF:DC:EF:28:D6:3E,22,22,29299.2902821861,-20929.557782241725,-10512.0
24910,18184,-3596,-3086,21507,-22270,257,-7731,-8204,-17667,22,-1,8356,2020-11-02 15:24:08,2020-11-02 15:24:38,1,DF:DC:EF:28:D6:3E,22,22,-9235.432619935218,3269.1179340963954,16035.339729971605
24911,-1017,-20235,21488,-16126,-4351,-11776,-30002,-14604,21501,22,-1,8382,2020-11-02 15:24:08,2020-11-02 15:24:38,1,DF:DC:EF:28:D6:3E,22,22,-8681.421197100597,27849.091241388538,4613.534548190616
24912,-9210,-23307,5104,-28671,-7423,-25344,-2098,-19468,765,22,-1,8407,2020-11-02 15:24:08,2020-11-02 15:24:38,1,DF:DC:EF:28:D6:3E,22,22,8397.55437255254,-23307.0,-6352.6369768800505
24913,-13564,18678,16365,-6401,2818,23297,14031,-15884,-19972,22,-1,8433,2020-11-02 15:24:08,2020-11-02 15:24:38,1,DF:DC:EF:28:D6:3E,22,22,373.2822916747118,22935.64919028229,-16567.427728860792
24914,-29430,-266,-3597,-18689,-8702,-11006,20943,-2828,9724,22,-1,8459,2020-11-02 15:24:08,2020-11-02 15:24:38,1,DF:DC:EF:28:D6:3E,22,22,-16549.826117936293,-24347.946817726086,3523.465088127877
24915,-8951,-28424,10482,2048,23554,22528,32719,-7436,-21253,22,-1,8484,2020-11-02 15:24:08,2020-11-02 15:24:38,1,DF:DC:EF:28:D6:3E,22,22,30251.425266922124,2303.5034082673665,8801.22959409231
24916,22280,-3593,19185,24320,3585,29950,-29745,-24076,-28933,22,-1,8510,2020-11-02 15:24:08,2020-11-02 15:24:38,1,DF:DC:EF:28:D6:3E,22,22,14916.236207879072,-18023.62005738687,-18166.653280605075
24917,-8186,-14857,-28688,31743,-10753,-12548,24527,18164,-13573,22,1,8535,2020-11-02 15:24:08,2020-11-02 15:24:38,1,DF:DC:EF:28:D6:3E,22,22,-16045.563110046667,-6224.2994785277515,-28540.153984922865
24918,-19707,20983,-17424,32254,-20738,16636,-7474,-4877,20988,22,1,8561,2020-11-02 15:24:08,2020-11-02 15:24:38,1,DF:DC:EF:28:D6:3E,22,22,19978.95354145155,510.3039388672769,-27070.81305167056
24919,1285,-23050,-13840,-16643,-12546,-31748,15310,-24333,-4356,22,1,8587,2020-11-02 15:24:08,2020-11-02 15:24:38,1,DF:DC:EF:28:D6:3E,22,22,-12343.203951563875,22176.860969679066,8962.782979723606
24920,27909,-1291,-6673,21756,-31745,10493,31693,23283,26365,22,1,8612,2020-11-02 15:24:08,2020-11-02 15:24:38,1,DF:DC:EF:28:D6:3E,22,22,6480.299391799416,17852.872641667396,21549.676313881093
24921,-14330,-22795,7152,-13062,-10242,22781,-32308,10483,-9731,22,1,8638,2020-11-02 15:24:08,2020-11-02 15:24:38,1,DF:DC:EF:28:D6:3E,22,22,-24410.975496802108,13357.006962601692,1344.1239881562176
24922,-5881,6901,-16399,-12295,13309,-15620,14027,4595,-31234,22,1,8664,2020-11-02 15:24:08,2020-11-02 15:24:38,1,DF:DC:EF:28:D6:3E,22,22,-13213.41547638276,-2224.214930094352,13099.453515060617
24923,-13305,14837,7411,-2823,11516,-23812,-14391,8435,27135,22,1,8689,2020-11-02 15:24:08,2020-11-02 15:24:38,1,DF:DC:EF:28:D6:3E,22,22,14242.813977369617,15627.115779740992,2240.093170520998
24924,21255,5621,-7437,27386,-773,-2052,27592,19699,18688,22,1,8715,2020-11-02 15:24:08,2020-11-02 15:24:38,1,DF:DC:EF:28:D6:3E,22,22,22059.649430657326,6251.979753665975,-3600.5903899569835
24925,-8442,2805,8948,-15366,18428,-8707,11975,-27405,5377,22,1,8740,2020-11-02 15:24:08,2020-11-02 15:24:38,1,DF:DC:EF:28:D6:3E,22,22,4630.252463939012,-9303.685251750934,7155.717703804341
24926,-18426,16117,25076,14075,-16644,17919,10438,-4877,-26111,22,1,8766,2020-11-02 15:24:08,2020-11-02 15:24:38,1,DF:DC:EF:28:D6:3E,22,22,21422.84407932477,-5844.450374062122,27110.60848409834
24927,6,-30220,5619,-9734,19197,-10496,20165,22772,-11519,22,1,8792,2020-11-02 15:24:08,2020-11-02 15:24:38,1,DF:DC:EF:28:D6:3E,22,22,27062.54492664277,-10853.662842429712,9728.219878081614
24928,-7417,-17676,-24331,15100,-4,-7935,-24892,-7948,-12543,22,1,8817,2020-11-02 15:24:08,2020-11-02 15:24:38,1,DF:DC:EF:28:D6:3E,22,22,29801.846959479764,-6893.776784699183,-4876.083002420037
24929,9736,-32268,11509,-515,-21252,-31486,18884,30197,-19455,22,1,8843,2020-11-02 15:24:08,2020-11-02 15:24:38,1,DF:DC:EF:28:D6:3E,22,22,-13594.597949575058,-32565.294777954725,4812.388556042024
24930,-3577,-29452,-24332,-28930,-30979,-11261,14020,4854,26625,22,1,8868,2020-11-02 15:24:08,2020-11-02 15:24:38,1,DF:DC:EF:28:D6:3E,22,22,28357.998633607633,-19766.08824635299,-16654.94298800491
24931,520,-2828,-7948,-9986,3583,18949,19396,-25610,-12544,22,1,8894,2020-11-02 15:24:08,2020-11-02 15:24:38,1,DF:DC:EF:28:D6:3E,22,22,1354.6813032116138,-6462.892770210996,-5275.845297910404
24932,-18168,30965,-4620,18431,18944,-7162,-28988,3831,-7425,22,1,8920,2020-11-02 15:24:08,2020-11-02 15:24:38,1,DF:DC:EF:28:D6:3E,22,22,1302.842016085055,22427.307520034115,28382.570868103976
24933,-14326,-14091,14837,-20481,13313,-4345,-2876,30967,-19458,22,1,8945,2020-11-02 15:24:08,2020-11-02 15:24:38,1,DF:DC:EF:28:D6:3E,22,22,16119.731612268568,16531.25322792358,-9528.853313106234
24934,-13556,27382,-19979,21248,22529,17159,28101,-11273,31741,22,1,8971,2020-11-02 15:24:08,2020-11-02 15:24:38,1,DF:DC:EF:28:D6:3E,22,22,-31910.36053529095,-8526.365069604773,-15547.652241015981
24935,-10227,-4107,13814,-28159,-30976,32260,-5691,7160,-26116,22,1,8996,2020-11-02 15:24:08,2020-11-02 15:24:38,1,DF:DC:EF:28:D6:3E,22,22,-877.9979665379678,7299.805122624806,16069.45981489284
24936,-24052,-24075,-3083,-10237,-29441,13313,32454,17144,16636,22,1,9022,2020-11-02 15:24:08,2020-11-02 15:24:38,1,DF:DC:EF:28:D6:3E,22,22,-3672.2102999793046,31538.536107220345,12627.146539352607
24937,-31478,3573,16628,-13051,-29953,-21250,17095,17144,23036,22,1,9048,2020-11-02 15:24:08,2020-11-02 15:24:38,1,DF:DC:EF:28:D6:3E,22,22,-18948.623901190324,3467.2172064859424,30150.443679891127
24938,29193,4596,-30989,19206,3584,-31235,8136,3832,-24068,22,1,9073,2020-11-02 15:24:08,2020-11-02 15:24:38,1,DF:DC:EF:28:D6:3E,22,22,-40695.774899761294,3425.5520518794074,-12876.027510370692
24939,-25336,-21517,-2830,-22778,22784,-22787,1737,-14345,-5124,22,1,9099,2020-11-02 15:24:08,2020-11-02 15:24:38,1,DF:DC:EF:28:D6:3E,22,22,13116.807968675079,-21517.0,-21860.26405862706
24940,14856,-21261,28145,10758,18944,5374,-4151,-30985,8701,22,1,9124,2020-11-02 15:24:08,2020-11-02 15:24:38,1,DF:DC:EF:28:D6:3E,22,22,34749.572395089905,14769.059502953603,-6262.106814533082
24941,-24825,20980,14834,-4091,-3841,-2819,-15926,20471,22525,22,1,9150,2020-11-02 15:24:08,2020-11-02 15:24:38,1,DF:DC:EF:28:D6:3E,22,22,-21474.38232765259,-1744.7530133263572,28500.7951041421
24942,17671,-14604,18930,9221,31487,27901,30923,5367,-23299,22,1,9176,2020-11-02 15:24:08,2020-11-02 15:24:38,1,DF:DC:EF:28:D6:3E,22,22,-22153.21372622934,4216.018295399188,19373.855277999348
24943,8966,-2059,-25106,25604,-1,-8708,3020,-12042,2046,22,1,9201,2020-11-02 15:24:08,2020-11-02 15:24:38,1,DF:DC:EF:28:D6:3E,22,22,19097.648661403888,-2059.0,18600.54320727162
24944,26633,2805,1008,25348,-18431,-22019,-25908,-30474,14334,22,-1,9227,2020-11-02 15:24:08,2020-11-02 15:24:38,1,DF:DC:EF:28:D6:3E,22,22,-1367.2593710879057,9226.485371327333,-25123.76061629419
24945,5895,3574,-13841,8963,9218,-1028,4301,1014,20478,22,-1,9252,2020-11-02 15:24:08,2020-11-02 15:24:38,1,DF:DC:EF:28:D6:3E,22,22,-6340.368676265591,-2706.3307353370747,-13841.0
24946,-12027,-1547,28398,-29182,12033,-4612,25805,-32267,29950,22,-1,9278,2020-11-02 15:24:08,2020-11-02 15:24:38,1,DF:DC:EF:28:D6:3E,22,22,15880.155271634589,25646.69505017074,6599.700262309162
24947,26628,21494,-32018,4354,16896,27901,-28467,9461,-18178,22,-1,9304,2020-11-02 15:24:08,2020-11-02 15:24:38,1,DF:DC:EF:28:D6:3E,22,22,-43791.677458756225,-16527.163832096252,-2310.1049792835674
24948,-19197,4087,-14099,29185,7168,-8706,-20275,-2572,-4354,22,-1,9329,2020-11-02 15:24:08,2020-11-02 15:24:38,1,DF:DC:EF:28:D6:3E,22,22,-19197.0,-6035.750327242088,13381.146736629003
24949,-28669,8439,18926,16384,3841,-7936,-14643,-3852,-7938,22,-1,9355,2020-11-02 15:24:08,2020-11-02 15:24:38,1,DF:DC:EF:28:D6:3E,22,22,-3963.878037561788,31524.92246917027,-15549.556013473146
24950,14084,2808,-23570,255,-11518,-29438,-8499,245,26622,22,-1,9381,2020-11-02 15:24:08,2020-11-02 15:24:38,1,DF:DC:EF:28:D6:3E,22,22,-23067.73999405249,1313.5277711371054,-15097.775874652627
24951,-18171,-4616,24046,-29443,3844,-11517,-3891,6901,-26371,22,-1,9406,2020-11-02 15:24:08,2020-11-02 15:24:38,1,DF:DC:EF:28:D6:3E,22,22,-3315.068051000095,10900.208532133936,28282.47851184958
24952,-25081,-10247,-6931,29435,-30460,4,-14643,13045,-25348,22,-1,9432,2020-11-02 15:24:08,2020-11-02 15:24:38,1,DF:DC:EF:28:D6:3E,22,22,-12532.16802861986,17628.046077592237,17728.3131456076
24953,-23287,-21254,-5136,31225,18691,-31742,13261,11765,-15365,22,-1,9457,2020-11-02 15:24:08,2020-11-02 15:24:38,1,DF:DC:EF:28:D6:3E,22,22,14760.589073293782,-223.8892073418474,28327.906114504756
24954,12041,-25607,28911,-23048,-26110,1792,21452,-268,19451,22,-1,9483,2020-11-02 15:24:08,2020-11-02 15:24:38,1,DF:DC:EF:28:D6:3E,22,22,-14922.237561430276,-19358.723513864523,-32235.3331156045
24955,-16632,-27657,17648,24311,-15103,-15107,5323,-25356,13307,22,-1,9509,2020-11-02 15:24:08,2020-11-02 15:24:38,1,DF:DC:EF:28:D6:3E,22,22,15066.261784456976,33539.33203798377,1051.6364809604383
24956,-2043,-14348,-6159,12536,-5891,3580,-30007,20212,-20741,22,-1,9534,2020-11-02 15:24:08,2020-11-02 15:24:38,1,DF:DC:EF:28:D6:3E,22,22,423.0559241356161,-1794.2842206379069,15638.85551505044
24957,262,499,31985,24056,26364,-4357,-3641,21748,-26884,22,-1,9560,2020-11-02 15:24:08,2020-11-02 15:24:38,1,DF:DC:EF:28:D6:3E,22,22,-3158.4701923010075,2893.5310657361365,-31701.88344587693
24958,23043,2545,-26635,-3591,-20231,23804,25030,-23052,-24579,22,-1,9585,2020-11-02 15:24:08,2020-11-02 15:24:38,1,DF:DC:EF:28:D6:3E,22,22,18699.79573119948,11732.54838220846,-27559.844830306127
24959,-16895,-17937,18165,-6405,10231,-10243,13509,-31499,-17922,22,-1,9611,2020-11-02 15:24:08,2020-11-02 15:24:38,1,DF:DC:EF:28:D6:3E,22,22,26126.82022568935,12868.763223679429,9430.186476808702
24960,15618,23536,-22539,15355,-15368,27904,18884,-24586,29695,22,-1,9637,2020-11-02 15:24:08,2020-11-02 15:24:38,1,DF:DC:EF:28:D6:3E,22,22,-16685.929716707516,-14521.556621747462,-28575.791918518713
24961,15109,31730,26358,22265,11772,17666,26307,29687,-29441,22,-1,9662,2020-11-02 15:24:08,2020-11-02 15:24:38,1,DF:DC:EF:28:D6:3E,22,22,13193.78282590523,41808.627710991,2789.567827926605
24962,30983,2035,-7943,7162,-772,21506,-31550,760,24319,22,-1,9688,2020-11-02 15:24:08,2020-11-02 15:24:38,1,DF:DC:EF:28:D6:3E,22,22,-14050.609694078426,-28803.959737674562,-301.7178401949195
24963,30215,21235,-27144,-26627,-12548,7170,3010,-28680,14847,22,1,9714,2020-11-02 15:24:08,2020-11-02 15:24:38,1,DF:DC:EF:28:D6:3E,22,22,-12043.761326343183,-24711.563115507484,-36673.62332116054
24964,3592,30195,20727,1536,-2052,20738,1218,6649,3583,22,1,9739,2020-11-02 15:24:08,2020-11-02 15:24:38,1,DF:DC:EF:28:D6:3E,22,22,19381.93498479163,30195.0,8176.282116298968
24965,14089,-31501,29174,-11775,15613,-3071,20162,-25351,-6658,22,1,9765,2020-11-02 15:24:08,2020-11-02 15:24:38,1,DF:DC:EF:28:D6:3E,22,22,4174.126852538162,43598.3922909679,11121.692886507424
24966,26121,-17165,-23562,-29693,-13315,17153,-12094,1786,-11522,22,1,9790,2020-11-02 15:24:08,2020-11-02 15:24:38,1,DF:DC:EF:28:D6:3E,22,22,-23856.489598861826,-17808.47151282898,25413.3420941866
24967,12041,7156,-25099,28933,-24065,6913,-26173,14586,-18434,22,1,9816,2020-11-02 15:24:08,2020-11-02 15:24:38,1,DF:DC:EF:28:D6:3E,22,22,-12662.478840109194,-16267.235610481031,-20029.790144104973
24968,-11768,16116,4595,-762,9985,20993,-21052,12794,32510,22,1,9842,2020-11-02 15:24:08,2020-11-02 15:24:38,1,DF:DC:EF:28:D6:3E,22,22,-15048.359093086756,-3088.3066367779775,13540.109147371975
24969,26633,17140,-4112,-8185,6658,-32767,-3899,2810,9982,22,1,9867,2020-11-02 15:24:08,2020-11-02 15:24:38,1,DF:DC:EF:28:D6:3E,22,22,-32.941367421180985,31671.67826096862,-4112.0
24970,-7670,25588,-21266,-23032,4099,18433,22215,-13575,-17923,22,1,9893,2020-11-02 15:24:08,2020-11-02 15:24:38,1,DF:DC:EF:28:D6:3E,22,22,15891.38128413992,24821.86668171183,-17238.223090487358
24971,18955,-9228,29164,27400,-8958,24576,-16184,30201,21757,22,1,9918,2020-11-02 15:24:08,2020-11-02 15:24:38,1,DF:DC:EF:28:D6:3E,22,22,-13162.980536871957,-28789.504306363386,17113.95016294643
24972,-8440,-3339,5869,-11258,21506,-14849,-3895,8185,6141,22,1,9944,2020-11-02 15:24:08,2020-11-02 15:24:38,1,DF:DC:EF:28:D6:3E,22,22,3014.14456752247,-1485.6216486505064,10273.049344918758
24973,-31224,20470,-7442,15878,14081,-30977,-4662,-6920,-1796,22,-1,9969,2020-11-02 15:24:08,2020-11-02 15:24:38,1,DF:DC:EF:28:D6:3E,22,22,-10608.17212948643,20470.0,-30295.019789912458
24974,29191,28662,11502,-1532,-8703,29183,-14133,-21512,-7428,22,-1,9995,2020-11-02 15:24:08,2020-11-02 15:24:38,1,DF:DC:EF:28:D6:3E,22,22,-14497.987951399662,19860.686243398937,34659.51840840167
24975,-30459,10229,-25105,25604,-27645,23041,-29492,29176,-29444,22,-1,10021,2020-11-02 15:24:08,2020-11-02 15:24:38,1,DF:DC:EF:28:D6:3E,22,22,-29049.229105171653,-3104.5256781073313,-28445.533141588683
24976,12036,-21514,-12049,-21502,7941,22531,18637,17656,-17157,22,-1,10046,2020-11-02 15:24:08,2020-11-02 15:24:38,1,DF:DC:EF:28:D6:3E,22,22,25349.379832524555,122.72664329216741,-10501.893794807846
24977,17925,31480,-1298,-19199,-21499,-9212,-3891,16888,-25862,22,-1,10072,2020-11-02 15:24:08,2020-11-02 15:24:38,1,DF:DC:EF:28:D6:3E,22,22,-18176.857692402464,-27115.247783058985,-15758.997782012155
24978,6405,2297,21999,27392,-7675,-23804,28366,18424,23801,22,-1,10097,2020-11-02 15:24:08,2020-11-02 15:24:38,1,DF:DC:EF:28:D6:3E,22,22,17095.088502396535,-3380.8530986840824,15052.70794310273
24979,-29175,-263,-3346,-18688,3333,14083,-9522,21752,15352,22,-1,10123,2020-11-02 15:24:08,2020-11-02 15:24:38,1,DF:DC:EF:28:D6:3E,22,22,-9237.015653091516,27290.501787170648,5687.843530634248
24980,26888,-6408,4077,25600,6660,-30977,6863,1784,-29193,22,-1,10149,2020-11-02 15:24:08,2020-11-02 15:24:38,1,DF:DC:EF:28:D6:3E,22,22,14236.910944398433,23828.291066355003,-3189.333569624595
24981,-32764,-9482,-16150,14079,-24830,-18947,5327,-31241,21239,22,-1,10174,2020-11-02 15:24:08,2020-11-02 15:24:38,1,DF:DC:EF:28:D6:3E,22,22,25870.64350969284,5890.07957072588,26837.050639831963
24982,19710,20726,20716,-29955,-30720,23038,-18482,9719,22519,22,-1,10200,2020-11-02 15:24:08,2020-11-02 15:24:38,1,DF:DC:EF:28:D6:3E,22,22,11461.549469964295,16139.201558455028,-29246.587643742714
24983,1274,-17676,-16403,26364,19710,-5118,11726,26359,26871,22,-1,10225,2020-11-02 15:24:08,2020-11-02 15:24:38,1,DF:DC:EF:28:D6:3E,22,22,12824.935940593567,-19223.125954204348,7008.202884368194
24984,28158,26356,17904,-27654,17410,-15353,-22579,11512,-16394,22,-1,10251,2020-11-02 15:24:08,2020-11-02 15:24:38,1,DF:DC:EF:28:D6:3E,22,22,-8437.308705214995,38192.30407464861,-16680.06736444678
24985,-15880,-6928,25583,-22534,-7936,16396,12493,17657,32245,22,-1,10277,2020-11-02 15:24:08,2020-11-02 15:24:38,1,DF:DC:EF:28:D6:3E,22,22,-15761.263476904871,-18563.040508618746,19017.29669766352
24986,-1288,-15634,4080,-6408,-7167,25616,-21300,-1286,-10509,22,-1,10302,2020-11-02 15:24:08,2020-11-02 15:24:38,1,DF:DC:EF:28:D6:3E,22,22,12812.487161365862,9757.456294308655,-1832.899180121853
24987,17145,-21268,18679,247,517,-13806,-12085,-22276,-32271,22,-1,10328,2020-11-02 15:24:08,2020-11-02 15:24:38,1,DF:DC:EF:28:D6:3E,22,22,-30051.869428309903,-10512.82014760646,-9030.484284239268
24988,20221,24557,-18180,11768,-22520,15122,-5430,-2051,-20242,22,-1,10354,2020-11-02 15:24:08,2020-11-02 15:24:38,1,DF:DC:EF:28:D6:3E,22,22,-16553.154235831447,-27164.83342199571,-18180.0
24989,-21244,18161,-7,-26632,11532,-11763,6346,27902,-16149,22,1,10379,2020-11-02 15:24:08,2020-11-02 15:24:38,1,DF:DC:EF:28:D6:3E,22,22,7960.878816418529,-6198.566525525611,-26063.9921634989
24990,9740,-2317,760,2808,10503,23812,3529,2046,-16919,22,1,10405,2020-11-02 15:24:08,2020-11-02 15:24:38,1,DF:DC:EF:28:D6:3E,22,22,-6160.112325924272,-7892.34471700241,760.0
24991,-26360,-15118,23287,19195,-31750,32250,5320,-11267,234,22,1,10430,2020-11-02 15:24:08,2020-11-02 15:24:38,1,DF:DC:EF:28:D6:3E,22,22,-33837.70360590565,-15118.0,-9599.155362784782
24992,21766,-27151,11764,-10756,244,11254,27847,19966,-1557,22,1,10456,2020-11-02 15:24:08,2020-11-02 15:24:38,1,DF:DC:EF:28:D6:3E,22,22,-19733.587739456823,26650.102504870396,-15801.41779743387
24993,23046,-21007,13302,23804,-29965,-25868,-15674,-5122,28654,22,1,10482,2020-11-02 15:24:08,2020-11-02 15:24:38,1,DF:DC:EF:28:D6:3E,22,22,26518.83545901201,-16188.566279866323,13566.025825577008
24994,-764,21743,-30729,2046,27381,-18956,20166,28671,-6928,22,1,10507,2020-11-02 15:24:08,2020-11-02 15:24:38,1,DF:DC:EF:28:D6:3E,22,22,-31932.47264567009,17918.337518541164,8767.18639616907
24995,-22268,9710,-14858,28927,-32261,-18440,10694,-28417,-23054,22,1,10533,2020-11-02 15:24:08,2020-11-02 15:24:38,1,DF:DC:EF:28:D6:3E,22,22,-23017.09856975677,-504.1182066146812,16759.090854335154
24996,-13815,-28431,3571,4865,-29955,9211,17606,30207,-29197,22,1,10558,2020-11-02 15:24:08,2020-11-02 15:24:38,1,DF:DC:EF:28:D6:3E,22,22,-25565.728251852728,11023.463338323832,-15388.463925325665
24997,9991,4593,14837,-28159,-30209,31481,32198,7167,29684,22,1,10584,2020-11-02 15:24:08,2020-11-02 15:24:38,1,DF:DC:EF:28:D6:3E,22,22,16377.051783391167,-613.1681641506627,-8512.843161165149
24998,21252,-3088,-3340,12036,-3584,-27399,-2874,30206,15349,22,1,10610,2020-11-02 15:24:08,2020-11-02 15:24:38,1,DF:DC:EF:28:D6:3E,22,22,-1033.6224935070293,9678.96405767534,19431.62698569384
24999,-3326,-11280,7922,2310,11265,-26119,-15673,-16899,-4107,22,1,10635,2020-11-02 15:24:08,2020-11-02 15:24:38,1,DF:DC:EF:28:D6:3E,22,22,-4944.750959400271,11897.590531564816,-5920.771697399699
25000,6145,-21519,-18449,1030,-29439,-20486,-22584,4093,-30986,22,1,10661,2020-11-02 15:24:08,2020-11-02 15:24:38,1,DF:DC:EF:28:D6:3E,22,22,-16188.900156942113,11197.108137173856,21301.1330232219
25001,12034,7667,-6416,25349,-2815,-24581,29129,26876,-6410,22,1,10686,2020-11-02 15:24:08,2020-11-02 15:24:38,1,DF:DC:EF:28:D6:3E,22,22,-3846.571042880876,-1371.1624745248355,15102.612544872005
25002,-7679,20979,-4880,3591,-12800,-6149,22474,-7941,18423,22,1,10712,2020-11-02 15:24:08,2020-11-02 15:24:38,1,DF:DC:EF:28:D6:3E,22,22,13432.096898729125,18368.67389064496,-2251.771392102122
25003,2,7413,-11025,-18427,2562,24828,15051,20731,-28169,22,1,10738,2020-11-02 15:24:08,2020-11-02 15:24:38,1,DF:DC:EF:28:D6:3E,22,22,-6295.9752308074585,-3327.9570042818073,-11215.551527709664
25004,4098,23286,-13074,-18427,-26879,-4612,1740,-15110,-17929,22,1,10763,2020-11-02 15:24:08,2020-11-02 15:24:38,1,DF:DC:EF:28:D6:3E,22,22,-6794.760060742118,-24489.9599520115,9167.004596148983
25005,-4863,17655,-30227,-30203,18945,-18435,-12084,22778,-8969,22,1,10789,2020-11-02 15:24:08,2020-11-02 15:24:38,1,DF:DC:EF:28:D6:3E,22,22,-26974.206083963756,-22458.527069430893,4126.268412439094
25006,14083,13560,-29460,8452,-22782,32766,-32563,-2823,-12553,22,1,10814,2020-11-02 15:24:08,2020-11-02 15:24:38,1,DF:DC:EF:28:D6:3E,22,22,23324.549266975526,-26162.437822339096,4646.325180685511
25007,19715,30456,-19220,-13566,3075,-6146,-51,-30471,-27145,22,-1,10840,2020-11-02 15:24:08,2020-11-02 15:24:38,1,DF:DC:EF:28:D6:3E,22,22,-14657.618566354115,-29623.29482865351,-24357.179279586984
25008,19459,4088,11247,-21247,8451,4095,21966,9977,20983,22,-1,10866,2020-11-02 15:24:08,2020-11-02 15:24:38,1,DF:DC:EF:28:D6:3E,22,22,-818.4544531342653,5807.8888229144395,-22078.45089060395
25009,-18940,-1800,26604,4608,26371,9983,31438,-13832,2551,22,-1,10891,2020-11-02 15:24:08,2020-11-02 15:24:38,1,DF:DC:EF:28:D6:3E,22,22,-549.7415805914752,25000.62946930433,-21080.861612683693
25010,-29948,3578,-11798,-22786,3075,-25858,23502,22008,-15626,22,-1,10917,2020-11-02 15:24:08,2020-11-02 15:24:38,1,DF:DC:EF:28:D6:3E,22,22,-22877.405637078,-22912.281256929113,-727.5100823811663
25011,1029,-520,-3608,26620,-22782,-2819,-5427,-13065,-27146,22,-1,10942,2020-11-02 15:24:08,2020-11-02 15:24:38,1,DF:DC:EF:28:D6:3E,22,22,-1471.000754106161,2498.696520818917,2437.124838465716
25012,-22270,-8714,-22291,12026,22017,29694,1229,27383,-23818,22,-1,10968,2020-11-02 15:24:08,2020-11-02 15:24:38,1,DF:DC:EF:28:D6:3E,22,22,-13946.972517168704,29479.52521517077,-2283.6216178367886
25013,17152,26357,-27664,17400,24064,-2050,-8757,14583,-18698,22,-1,11019,2020-11-02 15:24:08,2020-11-02 15:24:38,1,DF:DC:EF:28:D6:3E,22,22,39211.27189182366,14718.495850632422,-146.57939963093486
25014,-29196,-29714,28147,-24327,20221,-4605,-15158,-25353,-17162,22,-1,11021,2020-11-02 15:24:08,2020-11-02 15:24:38,1,DF:DC:EF:28:D6:3E,22,22,21754.360121048834,-43682.17296698359,12091.211750947396
25015,13045,4590,26103,-264,-31487,-3829,7370,-17160,-15115,22,-1,11045,2020-11-02 15:24:08,2020-11-02 15:24:38,1,DF:DC:EF:28:D6:3E,22,22,-8660.181862415771,27899.403358442734,4385.347916961601
25016,-7429,-10512,5113,-4616,8966,30991,-17975,-15879,-30989,22,-1,11071,2020-11-02 15:24:08,2020-11-02 15:24:38,1,DF:DC:EF:28:D6:3E,22,22,-8871.302708036765,9241.415829084961,-5266.039853278504
25017,28169,-24074,1270,6393,29449,-31733,24009,10746,-784,22,-1,11096,2020-11-02 15:24:08,2020-11-02 15:24:38,1,DF:DC:EF:28:D6:3E,22,22,29852.228942470934,16696.955697711663,-14308.005961522194
25018,-7927,8695,-15631,5882,17927,21763,-10808,-15879,21743,22,-1,11122,2020-11-02 15:24:08,2020-11-02 15:24:38,1,DF:DC:EF:28:D6:3E,22,22,-16261.563909547265,10858.603960034572,-648.6711453667854
25019,21509,-32012,-10515,-11015,22530,-12291,1736,11257,-4114,22,-1,11147,2020-11-02 15:24:08,2020-11-02 15:24:38,1,DF:DC:EF:28:D6:3E,22,22,2773.2948916627865,-32012.0,-23780.478158436537
25020,31747,-30222,27118,-18696,5372,23036,-12858,6393,-32273,22,-1,11173,2020-11-02 15:24:08,2020-11-02 15:24:38,1,DF:DC:EF:28:D6:3E,22,22,-26974.19450046978,40079.03767728331,-17963.596157610846
25021,29700,12018,-14095,16120,31480,16892,22981,-23303,-29968,22,-1,11199,2020-11-02 15:24:08,2020-11-02 15:24:38,1,DF:DC:EF:28:D6:3E,22,22,12280.295550722145,-23784.44166698271,-22554.068918419365
25022,-6394,6898,29941,16377,-24328,-7172,-61,29434,-26639,22,-1,11224,2020-11-02 15:24:08,2020-11-02 15:24:38,1,DF:DC:EF:28:D6:3E,22,22,14731.974524129113,-27610.144893373683,2361.76768275835
25023,28678,-4112,-24328,32507,-12806,-12291,1987,3579,22770,22,1,11250,2020-11-02 15:24:08,2020-11-02 15:24:38,1,DF:DC:EF:28:D6:3E,22,22,-27810.719344365403,8117.888737161904,-24328.0
25024,3079,6897,13304,-28930,5629,21504,-23358,-30213,-21006,22,1,11276,2020-11-02 15:24:08,2020-11-02 15:24:38,1,DF:DC:EF:28:D6:3E,22,22,378.5341924058048,14777.989983959305,-3938.653310355976
25025,-11255,32498,10232,24576,-29953,-31486,-20286,-13061,32498,22,1,11301,2020-11-02 15:24:08,2020-11-02 15:24:38,1,DF:DC:EF:28:D6:3E,22,22,-24342.354682335503,-26039.288291596604,-4110.241694413953
25026,3853,15859,-30472,11267,-2303,-9214,8643,-14341,498,22,1,11327,2020-11-02 15:24:08,2020-11-02 15:24:38,1,DF:DC:EF:28:D6:3E,22,22,1232.8699699424633,34209.958117829054,4801.5696614332655
25027,-9716,-7182,10486,-5114,3844,-15359,7620,28411,31729,22,1,11352,2020-11-02 15:24:08,2020-11-02 15:24:38,1,DF:DC:EF:28:D6:3E,22,22,-10299.690799280384,-9967.815674368738,-7106.123846445958
25028,27914,-2574,-19470,265,17923,2304,-32315,-2566,7409,22,1,11378,2020-11-02 15:24:08,2020-11-02 15:24:38,1,DF:DC:EF:28:D6:3E,22,22,-14.082758366035705,33181.9034178493,-7991.173833951933
25029,-17142,6389,-23314,-14840,-9727,-10756,-5434,31226,10481,22,1,11403,2020-11-02 15:24:08,2020-11-02 15:24:38,1,DF:DC:EF:28:D6:3E,22,22,4075.79497591348,18172.536199860726,-23051.18010816518
25030,17671,29429,-7441,16392,-31488,-18694,3528,-5639,-24079,22,1,11429,2020-11-02 15:24:08,2020-11-02 15:24:38,1,DF:DC:EF:28:D6:3E,22,22,-33822.47705869791,-5862.621223808836,-7441.0
25031,17669,30710,-25362,7,19456,-16903,457,21497,23794,22,1,11455,2020-11-02 15:24:08,2020-11-02 15:24:38,1,DF:DC:EF:28:D6:3E,22,22,37014.50131809045,-4126.611128441456,22614.740276370703
25032,-30205,-25355,-29199,-28154,19713,-19719,-15671,-25864,3059,22,1,11480,2020-11-02 15:24:08,2020-11-02 15:24:38,1,DF:DC:EF:28:D6:3E,22,22,46387.527114508135,-15999.172525230282,-153.15909600550458
25033,-29439,-26892,-20243,23300,20738,11258,27850,-14089,-28429,22,1,11506,2020-11-02 15:24:08,2020-11-02 15:24:38,1,DF:DC:EF:28:D6:3E,22,22,10244.168212625866,-15315.139757944758,-40744.53271085638
25034,-5627,28660,-10001,31235,-24319,18683,-11318,7671,-2829,22,1,11531,2020-11-02 15:24:08,2020-11-02 15:24:38,1,DF:DC:EF:28:D6:3E,22,22,-27880.607025682395,7069.512767117114,-11214.832638744001
25035,9979,-779,-9751,5892,12798,-3845,11211,-23562,-32012,22,1,11557,2020-11-02 15:24:08,2020-11-02 15:24:38,1,DF:DC:EF:28:D6:3E,22,22,-10586.529631480855,-8345.815173111927,-3679.9514206076915
25036,-30457,-1800,23284,-14846,23039,10491,21195,15350,-1292,22,1,11583,2020-11-02 15:24:08,2020-11-02 15:24:38,1,DF:DC:EF:28:D6:3E,22,22,-8516.593518409896,-1503.8517737851462,37392.774297779266
25037,14349,-19463,-4113,27397,12543,-23303,-20021,-17419,-16651,22,1,11608,2020-11-02 15:24:08,2020-11-02 15:24:38,1,DF:DC:EF:28:D6:3E,22,22,23304.72445641381,6015.012954762209,-4725.29111956829
25038,-30195,20986,-27412,-4092,26108,24566,-10037,757,2807,22,1,11634,2020-11-02 15:24:08,2020-11-02 15:24:38,1,DF:DC:EF:28:D6:3E,22,22,-30195.0,-11727.618444605278,-32469.876895635964
25039,-31480,-27142,-26387,771,9722,13557,25803,27124,3065,22,-1,11659,2020-11-02 15:24:08,2020-11-02 15:24:38,1,DF:DC:EF:28:D6:3E,22,22,-8021.977800855777,-2228.552286210146,-48524.568621165556
25040,20992,32759,22513,8961,2556,-1803,-25142,-13069,-262,22,-1,11685,2020-11-02 15:24:08,2020-11-02 15:24:38,1,DF:DC:EF:28:D6:3E,22,22,-17898.393671671707,-38450.60595273845,14894.620500069701
25041,-10744,1274,-13848,18174,28671,-3080,-7479,20979,22012,22,-1,11711,2020-11-02 15:24:08,2020-11-02 15:24:38,1,DF:DC:EF:28:D6:3E,22,22,-7787.666620597696,12185.28491643582,9984.728144106386
25042,8961,-25106,-6417,-29699,10752,-18437,2249,-1294,15613,22,-1,11736,2020-11-02 15:24:08,2020-11-02 15:24:38,1,DF:DC:EF:28:D6:3E,22,22,19099.729395586623,18595.99672013749,-6417.0
25043,30716,4595,25329,-23299,8446,-26624,26056,18163,-15363,22,-1,11762,2020-11-02 15:24:08,2020-11-02 15:24:38,1,DF:DC:EF:28:D6:3E,22,22,28530.255777992494,23493.9433420716,15498.517783383511
25044,30972,31729,-8458,5884,-11775,17157,11208,-30989,11517,22,-1,11788,2020-11-02 15:24:08,2020-11-02 15:24:38,1,DF:DC:EF:28:D6:3E,22,22,-34546.73781020162,17188.275184286133,-23422.59788884314
25045,29441,-14606,-21004,12796,-15868,-9209,27336,-15885,-20997,22,-1,11813,2020-11-02 15:24:08,2020-11-02 15:24:38,1,DF:DC:EF:28:D6:3E,22,22,33542.81903588008,11194.351286361945,16457.263545429643
25046,7434,-29451,26100,1787,20484,-3068,-32056,-13581,12282,22,-1,11839,2020-11-02 15:24:08,2020-11-02 15:24:38,1,DF:DC:EF:28:D6:3E,22,22,23756.616563260854,28307.86454961654,15431.258247685535
25047,-2552,-1804,25845,-25603,7167,29440,13768,-10765,-17415,22,-1,11864,2020-11-02 15:24:08,2020-11-02 15:24:38,1,DF:DC:EF:28:D6:3E,22,22,-12171.663494546487,21245.007335863524,-8844.852518534695
25048,2823,-524,-1548,-21761,-5380,766,-10297,2804,11514,22,-1,11890,2020-11-02 15:24:08,2020-11-02 15:24:38,1,DF:DC:EF:28:D6:3E,22,22,267.10449766945624,3226.837121903738,-395.4571734445426
25049,-4602,-11532,-12812,-28161,2302,22013,32711,9204,-13830,22,-1,11916,2020-11-02 15:24:08,2020-11-02 15:24:38,1,DF:DC:EF:28:D6:3E,22,22,-15710.854424549489,3054.4281888980195,7883.672601616515
25050,1288,3830,11762,-31490,31744,15614,12231,1780,9979,22,-1,11941,2020-11-02 15:24:08,2020-11-02 15:24:38,1,DF:DC:EF:28:D6:3E,22,22,11036.74522374839,-5555.959715875114,-1412.1099467251283
25051,9,28150,2292,-30211,-14338,7680,-15162,-2061,17659,22,1,11967,2020-11-02 15:24:08,2020-11-02 15:24:38,1,DF:DC:EF:28:D6:3E,22,22,1350.1355442590957,9535.31732820771,-26550.53111450899
25052,-26102,11511,16627,1022,7934,-24575,29126,19700,20219,22,1,11992,2020-11-02 15:24:08,2020-11-02 15:24:38,1,DF:DC:EF:28:D6:3E,22,22,-27409.800520638833,-15496.277107129328,9941.975922212161
25053,24588,-8714,499,26621,11776,21250,14278,-30220,3067,22,1,12018,2020-11-02 15:24:08,2020-11-02 15:24:38,1,DF:DC:EF:28:D6:3E,22,22,-822.5912120833865,3172.564117685784,-25884.565316361328
25054,-25588,11254,24307,-18180,3329,12547,454,-23820,-29190,22,1,12044,2020-11-02 15:24:08,2020-11-02 15:24:38,1,DF:DC:EF:28:D6:3E,22,22,-829.2253143063017,36870.74362720227,3476.946757607451
25055,781,-10251,18678,-21251,18945,-4093,-5947,-16652,-7943,22,1,12069,2020-11-02 15:24:08,2020-11-02 15:24:38,1,DF:DC:EF:28:D6:3E,22,22,-806.7272808151283,20094.664779935585,-7079.144332220171
25056,3597,-4107,-5897,8703,-11263,6404,5062,-10764,7673,22,1,12097,2020-11-02 15:24:08,2020-11-02 15:24:38,1,DF:DC:EF:28:D6:3E,22,22,7187.044712071519,3591.8587995047883,-159.39156535041639
25057,781,18165,26360,15105,-16638,15620,-29498,-10508,17912,22,1,12120,2020-11-02 15:24:08,2020-11-02 15:24:38,1,DF:DC:EF:28:D6:3E,22,22,23161.99328127624,17026.290260306352,14108.660220230391
25058,27916,-2572,-4619,-32253,24324,19204,30407,-19980,18167,22,1,12146,2020-11-02 15:24:08,2020-11-02 15:24:38,1,DF:DC:EF:28:D6:3E,22,22,28249.592453809673,1184.117712948675,2794.958396030376
25059,-7924,31219,-7693,4356,-13051,25092,-21816,27380,6134,22,1,12172,2020-11-02 15:24:08,2020-11-02 15:24:38,1,DF:DC:EF:28:D6:3E,22,22,28406.2648195017,-14971.552505215517,-8095.351789015422
25060,-29941,-29453,-19470,27395,2566,-13564,-5175,9460,-14092,22,1,12197,2020-11-02 15:24:08,2020-11-02 15:24:38,1,DF:DC:EF:28:D6:3E,22,22,-13231.533353296754,41864.071137581515,14674.796860880546
25061,-20982,27124,-28940,22019,-8441,-5883,14283,-4877,14579,22,1,12223,2020-11-02 15:24:08,2020-11-02 15:24:38,1,DF:DC:EF:28:D6:3E,22,22,-4932.8748280982,-25332.525502914483,36707.07285489409
25062,-28150,246,-4109,-24317,25609,-18170,-15668,-19725,18161,22,1,12248,2020-11-02 15:24:08,2020-11-02 15:24:38,1,DF:DC:EF:28:D6:3E,22,22,-26840.04083764489,7703.434171613603,-5443.914657410616
25063,-27892,30199,-21007,-11774,30217,-2298,22222,-26893,11503,22,1,12274,2020-11-02 15:24:08,2020-11-02 15:24:38,1,DF:DC:EF:28:D6:3E,22,22,9010.563541358499,45029.76235166893,4729.43561319535
25064,-29939,4600,15857,-32255,-6649,-6651,-25137,-25357,17901,22,1,12300,2020-11-02 15:24:08,2020-11-02 15:24:38,1,DF:DC:EF:28:D6:3E,22,22,-12098.410960592944,16883.669051773468,27157.288921738695
25065,-11252,13560,-25870,16896,4358,25091,28112,-25613,-9749,22,1,12325,2020-11-02 15:24:08,2020-11-02 15:24:38,1,DF:DC:EF:28:D6:3E,22,22,-17241.024667733982,-25789.388449643084,4170.433526625751
25066,29451,-25609,20465,-28673,-1021,-26368,-11056,29683,-790,22,1,12351,2020-11-02 15:24:08,2020-11-02 15:24:38,1,DF:DC:EF:28:D6:3E,22,22,-22913.045773244143,3384.1019531164093,37490.514725249275
25067,9,-15625,-2318,-22274,13314,-28419,-13616,755,-22294,22,1,12402,2020-11-02 15:24:08,2020-11-02 15:24:38,1,DF:DC:EF:28:D6:3E,22,22,611.2479949753791,-4351.834562871906,15172.400661267553
25068,-4089,32759,-11790,15358,4097,-31492,29904,32498,-14870,22,-1,12404,2020-11-02 15:24:08,2020-11-02 15:24:38,1,DF:DC:EF:28:D6:3E,22,22,-15218.142156806261,-28414.465282672558,-13780.508481004317
25069,-29434,19959,-1295,-4611,7169,8957,976,2034,-1558,22,-1,12428,2020-11-02 15:24:08,2020-11-02 15:24:38,1,DF:DC:EF:28:D6:3E,22,22,-29434.0,19959.0,-1295.0
25070,11014,-27146,-13327,-13060,-20223,-25347,-31793,-25871,3307,22,-1,12453,2020-11-02 15:24:08,2020-11-02 15:24:38,1,DF:DC:EF:28:D6:3E,22,22,-29760.515463159776,5079.290121850906,11150.559278578616
25071,17926,-4107,-21263,-16901,-4096,13054,-9266,17649,6891,22,-1,12479,2020-11-02 15:24:08,2020-11-02 15:24:38,1,DF:DC:EF:28:D6:3E,22,22,6722.015692450158,-26753.241284663836,5422.423793379887
25072,7428,14324,4853,-15878,-11265,26110,-2867,4849,19179,22,-1,12504,2020-11-02 15:24:08,2020-11-02 15:24:38,1,DF:DC:EF:28:D6:3E,22,22,-9375.067260197646,-13132.413101436086,4853.0
25073,-3579,23541,15089,22524,-4102,7168,5837,10993,-23829,22,-1,12530,2020-11-02 15:24:08,2020-11-02 15:24:38,1,DF:DC:EF:28:D6:3E,22,22,-14132.447859963597,16328.731088130906,18119.390208749235
25074,15360,10736,-14093,-4613,14846,-20478,27340,-22287,-13077,22,-1,12556,2020-11-02 15:24:08,2020-11-02 15:24:38,1,DF:DC:EF:28:D6:3E,22,22,-9687.360060659503,21325.270612911372,1091.7111986408636
25075,-8191,-25361,-22540,30970,15103,10757,-5173,19954,25579,22,-1,12581,2020-11-02 15:24:08,2020-11-02 15:24:38,1,DF:DC:EF:28:D6:3E,22,22,-22414.543828626098,12847.39425470363,23470.34485939241
25076,-23547,-17424,14071,22265,2816,28934,25547,4083,-23318,22,-1,12607,2020-11-02 15:24:08,2020-11-02 15:24:38,1,DF:DC:EF:28:D6:3E,22,22,-1287.10819196793,-32225.46200659395,3989.1072890734577
25077,-5622,-13582,-11271,25849,-18432,19204,-11830,-27405,-10775,22,-1,12632,2020-11-02 15:24:08,2020-11-02 15:24:38,1,DF:DC:EF:28:D6:3E,22,22,5085.48561014645,-16427.60627146285,-6883.649998277655
25078,-27125,-8718,14588,-2053,28415,1537,14794,-13069,-32023,22,-1,12658,2020-11-02 15:24:08,2020-11-02 15:24:38,1,DF:DC:EF:28:D6:3E,22,22,16053.54708753798,20296.23104599259,-18839.46719617854
25079,-13047,29425,16123,14079,-23811,-2,-9015,-6157,-19223,22,-1,12684,2020-11-02 15:24:08,2020-11-02 15:24:38,1,DF:DC:EF:28:D6:3E,22,22,-2232.6701478363175,-30081.547657936073,-19649.978053786257
25080,-9208,-17680,-3335,-31999,-2565,-32257,-16439,16372,15082,22,-1,12709,2020-11-02 15:24:08,2020-11-02 15:24:38,1,DF:DC:EF:28:D6:3E,22,22,-12135.79383280149,16124.301240971716,1105.1273854788642
25081,11530,753,-21513,-4607,-19203,-1024,-3639,-23308,-31510,22,-1,12735,2020-11-02 15:24:08,2020-11-02 15:24:38,1,DF:DC:EF:28:D6:3E,22,22,-7478.223306839864,-22625.68008421561,5335.902444738471
25082,-32246,2545,5624,19457,-22273,-10238,18890,-2060,23018,22,-1,12761,2020-11-02 15:24:08,2020-11-02 15:24:38,1,DF:DC:EF:28:D6:3E,22,22,18569.96186821816,26569.498660251087,-5208.567380368543
25083,-14325,-784,4090,-23807,16640,5892,-14902,21749,-9751,22,-1,12786,2020-11-02 15:24:08,2020-11-02 15:24:38,1,DF:DC:EF:28:D6:3E,22,22,10990.944319249069,-9630.303421261222,3000.7965585175957
25084,3341,-11023,-6406,14083,25856,-18941,28619,-20747,19177,22,-1,12812,2020-11-02 15:24:08,2020-11-02 15:24:38,1,DF:DC:EF:28:D6:3E,22,22,4692.304146294923,-3049.735080972063,-11932.604231036566
25085,-20723,30706,-28424,-2043,14592,-12031,25292,-6411,-5656,22,-1,12837,2020-11-02 15:24:08,2020-11-02 15:24:38,1,DF:DC:EF:28:D6:3E,22,22,-7276.09369684127,-41582.13514887062,-19955.185741451904
25086,20492,-25614,25078,31239,22015,-28417,30669,-3595,-6680,22,-1,12863,2020-11-02 15:24:08,2020-11-02 15:24:38,1,DF:DC:EF:28:D6:3E,22,22,25193.592166192695,-8175.973008831932,31675.566658268417
25087,18187,-3342,-32012,2824,32767,5374,-27698,-11531,8937,22,-1,12889,2020-11-02 15:24:08,2020-11-02 15:24:38,1,DF:DC:EF:28:D6:3E,22,22,-35351.03027965364,-6173.632365515727,8882.285662061782
25088,-27383,-5903,31731,-18169,-13825,23038,-23601,-22283,27625,22,-1,12914,2020-11-02 15:24:08,2020-11-02 15:24:38,1,DF:DC:EF:28:D6:3E,22,22,-35298.69862070087,-10033.757392056696,21091.610827110337
25089,5642,-22796,-23566,-6906,-513,-32003,-24880,26101,-22295,22,-1,12940,2020-11-02 15:24:08,2020-11-02 15:24:38,1,DF:DC:EF:28:D6:3E,22,22,6885.749631913646,-32084.637662561203,5478.011871907529
25090,7948,5875,26609,-11003,256,-5124,23505,-3340,-2583,22,-1,12965,2020-11-02 15:24:08,2020-11-02 15:24:38,1,DF:DC:EF:28:D6:3E,22,22,7948.0,16297.601325074942,-21839.01776749393
25091,16138,-17418,-25111,-30204,-15874,-30982,-10543,29428,-27670,22,-1,12991,2020-11-02 15:24:08,2020-11-02 15:24:38,1,DF:DC:EF:28:D6:3E,22,22,20804.129292180096,22637.02425878812,15784.08775005044
25092,-31735,-15879,8945,-27904,25854,19449,-32559,-13325,30443,22,-1,13017,2020-11-02 15:24:08,2020-11-02 15:24:38,1,DF:DC:EF:28:D6:3E,22,22,-5525.322267383199,-27439.271891638393,-23575.90004428893
25093,-15095,30967,-27922,20223,14333,18168,-10288,4083,-25876,22,1,13042,2020-11-02 15:24:08,2020-11-02 15:24:38,1,DF:DC:EF:28:D6:3E,22,22,14985.771111275391,-7002.680808070427,-41144.15297099633
25094,13576,30454,12015,26364,-19204,-14602,-24881,11250,-531,22,1,13068,2020-11-02 15:24:08,2020-11-02 15:24:38,1,DF:DC:EF:28:D6:3E,22,22,20120.567919790934,-28999.044810905198,-3214.383866340838
25095,-20473,501,2800,3579,10747,-19721,-5427,32753,-22801,22,1,13093,2020-11-02 15:24:08,2020-11-02 15:24:38,1,DF:DC:EF:28:D6:3E,22,22,8478.117255263376,702.4618648962739,-18837.802555881397
25096,8452,-2572,-16142,-21766,-15111,-2567,204,18673,27121,22,1,13121,2020-11-02 15:24:08,2020-11-02 15:24:38,1,DF:DC:EF:28:D6:3E,22,22,5011.785933646758,9737.618324988038,14787.712572002392
25097,6153,-4105,16885,5882,14331,-19718,15306,16881,-12046,22,1,13145,2020-11-02 15:24:08,2020-11-02 15:24:38,1,DF:DC:EF:28:D6:3E,22,22,-7270.649208211287,16902.73973943829,-1117.4562147799397
25098,-4342,5621,14835,20987,-12802,4095,2505,-21519,-18957,22,1,13170,2020-11-02 15:24:08,2020-11-02 15:24:38,1,DF:DC:EF:28:D6:3E,22,22,-1389.729669122898,-5875.921971210061,-15299.281762063552
25099,2826,-24328,-25102,16122,-31486,-2306,3016,-23311,-1805,22,1,13196,2020-11-02 15:24:08,2020-11-02 15:24:38,1,DF:DC:EF:28:D6:3E,22,22,-20844.45310978018,-24328.0,14269.038319178182
25100,22279,30198,-12044,28409,20224,17405,-6970,16113,10228,22,1,13221,2020-11-02 15:24:08,2020-11-02 15:24:38,1,DF:DC:EF:28:D6:3E,22,22,-25892.008784298523,-28883.833123242737,-6975.603645740923
25101,-23546,-25611,26866,-10757,-9476,-18178,-7227,22001,-26636,22,1,13247,2020-11-02 15:24:08,2020-11-02 15:24:38,1,DF:DC:EF:28:D6:3E,22,22,-25200.150306407762,15761.279056242603,-32382.92605750297
25102,13055,-24333,5110,-9731,5626,-27903,9669,2802,3061,22,1,13273,2020-11-02 15:24:08,2020-11-02 15:24:38,1,DF:DC:EF:28:D6:3E,22,22,13055.0,-17447.092741057797,-17714.568690344353
25103,11268,-13069,-9740,13821,-20227,19716,-2620,-8206,-12044,22,1,13298,2020-11-02 15:24:08,2020-11-02 15:24:38,1,DF:DC:EF:28:D6:3E,22,22,-17827.871862533546,-7549.830335004387,4219.150597659695
25104,19719,-6669,-10509,28668,22529,1541,-4156,14579,-269,22,1,13324,2020-11-02 15:24:08,2020-11-02 15:24:38,1,DF:DC:EF:28:D6:3E,22,22,-17761.80612838419,-6669.0,-13557.148854301699
25105,-13816,-24843,-1550,-32005,12802,-31227,-7484,26099,-1294,22,1,13349,2020-11-02 15:24:08,2020-11-02 15:24:38,1,DF:DC:EF:28:D6:3E,22,22,-6156.1630607847,-14727.010211134435,-23572.777341886806
25106,-25333,-13323,1525,13307,-20222,25860,-19260,27635,-2831,22,1,13375,2020-11-02 15:24:08,2020-11-02 15:24:38,1,DF:DC:EF:28:D6:3E,22,22,16278.431698009666,13404.878044499032,-19414.18937440711
25107,-24309,5622,-11786,6397,512,-19966,-32316,28403,17905,22,1,13401,2020-11-02 15:24:08,2020-11-02 15:24:38,1,DF:DC:EF:28:D6:3E,22,22,-16016.088887538328,-10743.959930486066,-19735.662713944548
25108,18955,-23563,28407,-31232,11772,9729,30148,-11277,10737,22,1,13426,2020-11-02 15:24:08,2020-11-02 15:24:38,1,DF:DC:EF:28:D6:3E,22,22,-25700.40613664451,-1980.2178444533583,32512.036305036843
25109,19722,23541,28150,-9726,7675,-6144,-20796,-31756,27633,22,1,13452,2020-11-02 15:24:08,2020-11-02 15:24:38,1,DF:DC:EF:28:D6:3E,22,22,1262.0651134034742,31038.349515054644,-27759.44012459251
25110,11276,19700,18933,-1790,-15107,-17662,12485,6133,25841,22,1,13477,2020-11-02 15:24:08,2020-11-02 15:24:38,1,DF:DC:EF:28:D6:3E,22,22,-28734.59369856417,5610.715889020723,-4066.8977355137395
25111,-10738,10484,9461,8194,28416,-5373,-11323,27381,-6416,22,1,13503,2020-11-02 15:24:08,2020-11-02 15:24:38,1,DF:DC:EF:28:D6:3E,22,22,16775.00836973316,-906.8931332130278,-5701.4086014171535
25112,27407,12276,-7178,2818,-22271,260,31174,-31243,11504,22,-1,13529,2020-11-02 15:24:08,2020-11-02 15:24:38,1,DF:DC:EF:28:D6:3E,22,22,5367.267243433549,-3555.2855598527385,-30198.0114564762
25113,-31215,-8460,-17929,-15101,-18175,-11518,17863,-29707,32751,22,-1,13554,2020-11-02 15:24:08,2020-11-02 15:24:38,1,DF:DC:EF:28:D6:3E,22,22,12449.160859992238,-3639.2774750778117,34629.047335169766
25114,-9967,-21515,20215,9734,-29696,31487,12744,27125,15343,22,-1,13580,2020-11-02 15:24:08,2020-11-02 15:24:38,1,DF:DC:EF:28:D6:3E,22,22,-2949.011098285546,29099.287642786156,10743.245842136428
25115,9744,23797,5622,-31992,-27138,11515,10441,8181,-19217,22,-1,13605,2020-11-02 15:24:08,2020-11-02 15:24:38,1,DF:DC:EF:28:D6:3E,22,22,-23277.013634594867,-11527.033272539513,4261.193399583213
25116,-25333,-21260,18931,24073,-26116,22008,458,-17932,-7184,22,-1,13631,2020-11-02 15:24:08,2020-11-02 15:24:38,1,DF:DC:EF:28:D6:3E,22,22,-5782.613082503855,-30342.455874514482,-22316.54111732365
25117,1033,24052,28657,28680,6908,27383,-24886,18676,26866,22,-1,13657,2020-11-02 15:24:08,2020-11-02 15:24:38,1,DF:DC:EF:28:D6:3E,22,22,-27594.080419198206,25282.67091207841,377.78217317191957
25118,3335,18163,-8208,-19960,-30469,5881,7371,-4621,-3085,22,-1,13682,2020-11-02 15:24:08,2020-11-02 15:24:38,1,DF:DC:EF:28:D6:3E,22,22,3335.0,16720.304624786237,10848.836170500133
25119,-2807,25590,-13588,11270,-7173,-2312,29643,-19213,27125,22,-1,13708,2020-11-02 15:24:08,2020-11-02 15:24:38,1,DF:DC:EF:28:D6:3E,22,22,-8802.941591839768,-1363.3429841449652,27713.004316353723
25120,-22006,-19210,15344,-12284,-1030,24825,25803,-25869,-4618,22,-1,13734,2020-11-02 15:24:08,2020-11-02 15:24:38,1,DF:DC:EF:28:D6:3E,22,22,17796.252877361792,24168.871444794837,13707.133493549005
25121,1280,-1033,-25114,-9725,-8456,-13575,11979,-30989,-28424,22,-1,13759,2020-11-02 15:24:08,2020-11-02 15:24:38,1,DF:DC:EF:28:D6:3E,22,22,-23807.028829846335,-8029.997184433732,1470.7170063787667
25122,-7928,-1543,4337,-2560,-2051,-4870,-18230,22771,-20999,22,-1,13785,2020-11-02 15:24:08,2020-11-02 15:24:38,1,DF:DC:EF:28:D6:3E,22,22,-6898.74749670222,-3144.616964510372,5153.859633639475
25123,-19194,13306,-31760,16130,-29440,16379,-31798,-9998,27642,22,-1,13810,2020-11-02 15:24:08,2020-11-02 15:24:38,1,DF:DC:EF:28:D6:3E,22,22,34746.65085263935,-12137.335515830793,-14124.87922429532
25124,-31740,30712,8431,3586,8449,-29188,-30518,21234,-6406,22,-1,13836,2020-11-02 15:24:08,2020-11-02 15:24:38,1,DF:DC:EF:28:D6:3E,22,22,19933.171477630134,-29883.35007643822,-27044.229847648323
25125,-26124,30450,22003,-16128,-16900,3583,30666,8434,16379,22,-1,13862,2020-11-02 15:24:08,2020-11-02 15:24:38,1,DF:DC:EF:28:D6:3E,22,22,-13126.406058686414,-42775.56753244511,9578.422169632608
25126,28158,-18691,-11025,-516,-1539,18181,28874,-12046,1019,22,-1,13887,2020-11-02 15:24:08,2020-11-02 15:24:38,1,DF:DC:EF:28:D6:3E,22,22,-25171.716437431947,-15874.070036654262,19446.739111350103
25127,20227,-14856,26351,-21764,-17915,-16120,-30518,21747,-20487,22,-1,13913,2020-11-02 15:24:08,2020-11-02 15:24:38,1,DF:DC:EF:28:D6:3E,22,22,16609.544193730148,32148.362849890356,3848.801598980448
25128,-27646,-13070,14582,12281,-16126,-25337,29642,-14605,9208,22,1,13938,2020-11-02 15:24:08,2020-11-02 15:24:38,1,DF:DC:EF:28:D6:3E,22,22,-10620.17705436787,2478.238848544065,-32075.397293618127
25129,4098,21490,28404,-6150,27646,-2297,11466,-24588,4343,22,1,13964,2020-11-02 15:24:08,2020-11-02 15:24:38,1,DF:DC:EF:28:D6:3E,22,22,3164.3127801009614,-34770.67962895476,-8147.875966795314
25130,-17915,-25099,31478,-4614,23040,26630,-13111,29429,13558,22,1,13990,2020-11-02 15:24:08,2020-11-02 15:24:38,1,DF:DC:EF:28:D6:3E,22,22,-29529.4218384813,-29356.720959599203,-14421.084924001125
25131,6409,-16650,8185,-20741,19970,-20222,25033,-20491,31989,22,1,14015,2020-11-02 15:24:08,2020-11-02 15:24:38,1,DF:DC:EF:28:D6:3E,22,22,14286.074692528226,11909.69777533653,-6273.689088538632
25132,17417,-19467,-2569,-11779,-12800,-28418,1481,31989,18421,22,1,14041,2020-11-02 15:24:08,2020-11-02 15:24:38,1,DF:DC:EF:28:D6:3E,22,22,-4582.741786136987,20317.03939864678,15972.855937352855
25133,-27641,2549,-7948,-27649,510,-5892,-20792,21749,-17931,22,1,14066,2020-11-02 15:24:08,2020-11-02 15:24:38,1,DF:DC:EF:28:D6:3E,22,22,-28653.96170707506,-402.5632623719224,-3532.9035239112336
25134,-22520,2805,22260,-3585,-32516,22013,22728,27893,28406,22,1,14092,2020-11-02 15:24:08,2020-11-02 15:24:38,1,DF:DC:EF:28:D6:3E,22,22,-24806.168307852837,-19666.848006640157,-2897.4347906711446
25135,-12535,30965,4085,24064,-18180,17918,5576,-22539,5367,22,1,14118,2020-11-02 15:24:08,2020-11-02 15:24:38,1,DF:DC:EF:28:D6:3E,22,22,11833.080711962026,30965.0,-5813.058649643255
25136,-15606,13812,1525,15617,-28163,19199,3784,-9739,32247,22,1,14146,2020-11-02 15:24:08,2020-11-02 15:24:38,1,DF:DC:EF:28:D6:3E,22,22,10488.82692321761,13234.084213431473,-12308.03517246312
25137,-9972,-21262,-31243,-14847,22781,1537,15816,11254,-18441,22,1,14169,2020-11-02 15:24:08,2020-11-02 15:24:38,1,DF:DC:EF:28:D6:3E,22,22,15866.435756815508,-35372.209510018205,4970.059129851862
25138,-5874,-25613,24052,18432,-15873,-27390,30920,31478,-25353,22,1,14194,2020-11-02 15:24:08,2020-11-02 15:24:38,1,DF:DC:EF:28:D6:3E,22,22,8803.75308291519,-34363.23507521847,3269.6109585600207
25139,25361,-12044,-27912,6400,20993,-23550,-21048,-27146,8183,22,-1,14220,2020-11-02 15:24:08,2020-11-02 15:24:38,1,DF:DC:EF:28:D6:3E,22,22,-3681.3219204980323,9044.570658273276,-38366.15189884389
25140,-14062,-2572,-25863,-13822,-14080,-1025,4809,32758,-11274,22,-1,14246,2020-11-02 15:24:08,2020-11-02 15:24:38,1,DF:DC:EF:28:D6:3E,22,22,9080.400622961308,-18902.184099036465,-20820.748252948473
25141,-16112,-23052,-18952,27653,-2561,-2309,-22327,9974,6647,22,-1,14271,2020-11-02 15:24:08,2020-11-02 15:24:38,1,DF:DC:EF:28:D6:3E,22,22,-11647.179505838063,19148.607950594054,25452.771462322766
25142,22797,-11278,27127,-13562,-16129,-1800,19914,-32267,-9225,22,-1,14297,2020-11-02 15:24:08,2020-11-02 15:24:38,1,DF:DC:EF:28:D6:3E,22,22,-5070.892967731916,21476.83267571425,-29929.956978405095
25143,14090,8690,-31500,-8185,13822,-2313,-1846,-12556,-2824,22,-1,14323,2020-11-02 15:24:08,2020-11-02 15:24:38,1,DF:DC:EF:28:D6:3E,22,22,22779.360018059735,8690.0,25920.62609520884
25144,-32503,22514,500,-31481,-26627,-14857,-31285,10740,15610,22,-1,14348,2020-11-02 15:24:08,2020-11-02 15:24:38,1,DF:DC:EF:28:D6:3E,22,22,-5672.678210018004,-1799.2605995052388,39091.6690385644
25145,-10744,10994,16116,22023,6397,-10761,-2869,-30477,-27653,22,-1,14374,2020-11-02 15:24:08,2020-11-02 15:24:38,1,DF:DC:EF:28:D6:3E,22,22,-16429.62280335463,2203.004035508344,14874.182187906114
25146,-10237,-16654,19189,-19962,-9475,-24328,20172,-3598,-8196,22,-1,14399,2020-11-02 15:24:08,2020-11-02 15:24:38,1,DF:DC:EF:28:D6:3E,22,22,6063.876449310057,16059.170989890703,-21347.178631494975
25147,14088,-13326,-7697,-16122,-25347,-17158,-12340,-26894,-3331,22,-1,14425,2020-11-02 15:24:08,2020-11-02 15:24:38,1,DF:DC:EF:28:D6:3E,22,22,2385.9702634585046,-1453.289550450052,-20675.902021059308
25148,-28418,24566,-15629,-26622,-26114,-18949,-5172,13810,-12034,22,-1,14450,2020-11-02 15:24:08,2020-11-02 15:24:38,1,DF:DC:EF:28:D6:3E,22,22,23330.455895834562,-8054.071767208759,32344.373183927513
25149,-16375,12791,-18191,23040,-18175,1281,8653,25330,-770,22,-1,14476,2020-11-02 15:24:08,2020-11-02 15:24:38,1,DF:DC:EF:28:D6:3E,22,22,9996.094479393487,22218.205478999822,-13003.54672587373
25150,-5612,19705,-5904,-1537,19716,-27138,18637,5618,-24322,22,-1,14502,2020-11-02 15:24:08,2020-11-02 15:24:38,1,DF:DC:EF:28:D6:3E,22,22,17801.25429408457,7959.376918080116,8625.685458748714
25151,27405,3833,19187,12545,-4865,25082,205,21745,1535,22,-1,14527,2020-11-02 15:24:08,2020-11-02 15:24:38,1,DF:DC:EF:28:D6:3E,22,22,-24423.074774690536,3833.0,-22862.37985315341
25152,-5878,14585,-14864,-6654,-19718,17911,28108,-12560,-30720,22,-1,14553,2020-11-02 15:24:08,2020-11-02 15:24:38,1,DF:DC:EF:28:D6:3E,22,22,20963.758126875673,-2396.6816141350937,-4794.618591537899
25153,3317,-1290,-269,30471,-10255,-30981,-27445,4593,-254,22,-1,14578,2020-11-02 15:24:08,2020-11-02 15:24:38,1,DF:DC:EF:28:D6:3E,22,22,3317.0,1046.780142151892,-800.4450849349157
25154,-26121,-12815,7162,-6906,-21001,-13054,-20277,13810,29444,22,-1,14604,2020-11-02 15:24:08,2020-11-02 15:24:38,1,DF:DC:EF:28:D6:3E,22,22,14855.908036652845,-1932.7056088031704,25949.792974823788
25155,-8459,5612,-29954,23557,26876,-14071,-13620,-22285,13572,22,-1,14630,2020-11-02 15:24:08,2020-11-02 15:24:38,1,DF:DC:EF:28:D6:3E,22,22,23837.612803196047,18976.54984415902,-8482.341236772561
25156,-14327,11254,761,11510,-19960,-3324,22989,-23309,-5119,22,-1,14655,2020-11-02 15:24:08,2020-11-02 15:24:38,1,DF:DC:EF:28:D6:3E,22,22,2542.5726530317042,-6780.178610269755,16734.96544116228
25157,-2041,-10253,32507,-5377,17917,-13311,2253,-16909,12545,22,-1,14681,2020-11-02 15:24:08,2020-11-02 15:24:38,1,DF:DC:EF:28:D6:3E,22,22,21270.259189822442,-21838.42613012713,-15383.561263789175
25158,-28665,15350,1265,-22527,-3590,7421,-2868,6644,1026,22,-1,14706,2020-11-02 15:24:08,2020-11-02 15:24:38,1,DF:DC:EF:28:D6:3E,22,22,-14423.304801928236,15350.0,24804.248196441553
25159,32518,-27147,21745,1023,-19205,-12293,25292,6900,4355,22,-1,14732,2020-11-02 15:24:08,2020-11-02 15:24:38,1,DF:DC:EF:28:D6:3E,22,22,22897.270745305537,34201.13363605537,-23942.063579083093
25160,11014,24309,-20753,-16387,-1798,5885,-28725,15604,8452,22,-1,14758,2020-11-02 15:24:08,2020-11-02 15:24:38,1,DF:DC:EF:28:D6:3E,22,22,-16464.42393272712,23952.821183594053,-17265.798212368016
25161,8,-6154,7154,-21766,18427,-12803,28106,-31500,4101,22,-1,14783,2020-11-02 15:24:08,2020-11-02 15:24:38,1,DF:DC:EF:28:D6:3E,22,22,-15.76222590848738,9436.687894227587,-13.005351703446422
25162,9479,-22795,-4113,-10503,30720,23554,30921,-17420,13829,22,-1,14809,2020-11-02 15:24:08,2020-11-02 15:24:38,1,DF:DC:EF:28:D6:3E,22,22,14586.25907240038,-6856.024200245197,-19147.224692849606
25163,-27383,-12299,-10769,24567,6402,5127,-19512,6133,22788,22,-1,14834,2020-11-02 15:24:08,2020-11-02 15:24:38,1,DF:DC:EF:28:D6:3E,22,22,2816.0263146465204,-11165.331093992161,29740.054276291263
25164,-20723,31221,-26893,26357,24066,14345,-11833,-26635,-4606,22,-1,14860,2020-11-02 15:24:08,2020-11-02 15:24:38,1,DF:DC:EF:28:D6:3E,22,22,530.1656567615973,-37446.25608346139,26924.409904549837
25165,9233,-1035,-3081,26102,19714,-12536,-4154,4086,27393,22,-1,14886,2020-11-02 15:24:08,2020-11-02 15:24:38,1,DF:DC:EF:28:D6:3E,22,22,-6818.382134077435,-6311.0362915842625,-3081.0
25166,-11504,9462,24057,32505,5379,-13307,19910,15606,10496,22,-1,14911,2020-11-02 15:24:08,2020-11-02 15:24:38,1,DF:DC:EF:28:D6:3E,22,22,2280.866492351197,-20068.3024029917,19815.94296787683
25167,-19186,1781,29176,16892,-15869,14083,-315,3062,15871,22,-1,14937,2020-11-02 15:24:08,2020-11-02 15:24:38,1,DF:DC:EF:28:D6:3E,22,22,6364.7344888169355,-18186.937946967988,29176.0
25168,-22516,-21773,31735,13822,-13309,-1279,-3131,-20747,-30210,22,1,14962,2020-11-02 15:24:08,2020-11-02 15:24:38,1,DF:DC:EF:28:D6:3E,22,22,25931.313640565604,10904.400665145124,-34594.869981091106
25169,26124,-11277,-11273,17408,12801,14337,6598,30709,5118,22,1,14988,2020-11-02 15:24:08,2020-11-02 15:24:38,1,DF:DC:EF:28:D6:3E,22,22,22350.523370960273,3392.9133084644045,20631.45361639368
25170,-5109,24308,-24841,-15870,20734,-7937,27846,-29195,3070,22,1,15014,2020-11-02 15:24:08,2020-11-02 15:24:38,1,DF:DC:EF:28:D6:3E,22,22,-3519.733521247641,-34688.499921896924,4286.6624672305115
25171,32267,13556,-14090,18179,-12547,-32003,-14906,-22027,28414,22,1,15039,2020-11-02 15:24:08,2020-11-02 15:24:38,1,DF:DC:EF:28:D6:3E,22,22,6318.4008678668615,35546.998489276964,10951.768527332937
25172,-23031,-28941,-21511,3588,-20483,-12293,2759,-24843,9215,22,1,15065,2020-11-02 15:24:08,2020-11-02 15:24:38,1,DF:DC:EF:28:D6:3E,22,22,23690.864679774495,-16668.122029368882,31490.446197834048
25173,-8697,17906,29431,13318,-12803,23547,-31289,31733,-1281,22,1,15091,2020-11-02 15:24:08,2020-11-02 15:24:38,1,DF:DC:EF:28:D6:3E,22,22,-26937.760084087677,-23142.8452347063,-1101.0004970773234
25174,-11258,1012,29170,8964,26625,27387,3272,1525,-27392,22,1,15142,2020-11-02 15:24:08,2020-11-02 15:24:38,1,DF:DC:EF:28:D6:3E,22,22,6592.83575843092,-9181.569836490631,29170.0
25175,27142,-19469,-23563,21509,-24320,26364,-31544,-31756,1,22,1,15144,2020-11-02 15:24:08,2020-11-02 15:24:38,1,DF:DC:EF:28:D6:3E,22,22,-16612.667479894946,17072.51359510398,-33218.874947045246
25176,8710,-8461,29425,-24314,-16896,28413,22985,9460,20993,22,1,15170,2020-11-02 15:24:08,2020-11-02 15:24:38,1,DF:DC:EF:28:D6:3E,22,22,2106.1744357636526,-28380.63475268224,-14261.37603041798
25177,8455,27126,28911,16901,7681,-2,13258,-8461,26881,22,1,15193,2020-11-02 15:24:08,2020-11-02 15:24:38,1,DF:DC:EF:28:D6:3E,22,22,-24475.26297552357,29150.681340339877,13941.0222606854
25178,3336,-7688,22766,17412,5376,-21761,-7990,-14093,27905,22,1,15219,2020-11-02 15:24:08,2020-11-02 15:24:38,1,DF:DC:EF:28:D6:3E,22,22,23417.725701156254,4160.537708386492,-4777.556379834788
25179,-14839,24570,-32272,-31485,-12033,-11522,21963,-17165,-28671,22,1,15244,2020-11-02 15:24:08,2020-11-02 15:24:38,1,DF:DC:EF:28:D6:3E,22,22,11574.442164481583,-30567.61749896002,-28231.469214660858
25180,6409,-18440,4337,-27645,-18433,27901,-20789,-28685,-6911,22,1,15270,2020-11-02 15:24:08,2020-11-02 15:24:38,1,DF:DC:EF:28:D6:3E,22,22,15982.416952584908,10029.124289705065,-6625.516156147716
25181,-16895,14068,30197,-18940,-17411,9214,-4405,-28941,-32510,22,1,15295,2020-11-02 15:24:08,2020-11-02 15:24:38,1,DF:DC:EF:28:D6:3E,22,22,-6635.68721132455,27162.16277261953,24766.772634866767
25182,-1786,-18953,-12821,-29185,-20478,16639,14796,29683,-25854,22,1,15321,2020-11-02 15:24:08,2020-11-02 15:24:38,1,DF:DC:EF:28:D6:3E,22,22,-21918.7220088885,-4524.162246416955,-5087.792002938238
25183,-9724,-10,16116,12287,13313,-4865,3276,16627,29442,22,1,15347,2020-11-02 15:24:08,2020-11-02 15:24:38,1,DF:DC:EF:28:D6:3E,22,22,5295.134502637179,-17935.534847117196,2135.385760659181
25184,17160,9209,18925,-14594,32256,-20225,-2613,13555,26882,22,1,15372,2020-11-02 15:24:08,2020-11-02 15:24:38,1,DF:DC:EF:28:D6:3E,22,22,388.91932813102176,-13638.417935171861,-23479.12272598337
25185,5893,22520,18929,29438,-11778,-16897,-29237,14323,-29438,22,1,15398,2020-11-02 15:24:08,2020-11-02 15:24:38,1,DF:DC:EF:28:D6:3E,22,22,17539.595599926146,17823.097575805303,-16579.64622645412
25186,29189,27127,-20754,-17412,13055,-31488,7371,24051,-23294,22,1,15423,2020-11-02 15:24:08,2020-11-02 15:24:38,1,DF:DC:EF:28:D6:3E,22,22,-6093.220510468178,-42086.09111316392,14499.447045500552
25187,22022,6903,-25616,14330,-26625,3841,24266,-30221,-26622,22,1,15449,2020-11-02 15:24:08,2020-11-02 15:24:38,1,DF:DC:EF:28:D6:3E,22,22,6782.768693976066,28708.51602152684,-17849.776068224353
25188,-20219,21494,-11790,27386,30718,-10495,30665,-8973,-28670,22,1,15475,2020-11-02 15:24:08,2020-11-02 15:24:38,1,DF:DC:EF:28:D6:3E,22,22,7613.921494166815,7376.703943767098,-29956.911312861936
25189,-252,-29196,-26123,-24326,26109,-31998,-23096,24820,-31230,22,1,15500,2020-11-02 15:24:08,2020-11-02 15:24:38,1,DF:DC:EF:28:D6:3E,22,22,-36133.284855148886,14822.725707610749,3090.886146981733
25190,-11003,16627,-5131,-32260,10749,-3069,6088,8437,26882,22,1,15526,2020-11-02 15:24:08,2020-11-02 15:24:38,1,DF:DC:EF:28:D6:3E,22,22,7781.63885027116,-11339.55893802737,15320.274112918283
25191,11269,-11534,2809,-16387,-23811,-7164,-12089,-7691,3842,22,1,15551,2020-11-02 15:24:08,2020-11-02 15:24:38,1,DF:DC:EF:28:D6:3E,22,22,-1752.9004941656563,7354.0540846880795,14517.548910785057
25192,-32504,14323,-15883,2046,-16384,-23547,-7993,28150,21761,22,1,15577,2020-11-02 15:24:08,2020-11-02 15:24:38,1,DF:DC:EF:28:D6:3E,22,22,-35699.01896279569,10771.980196954491,-11111.819010871866
25193,-29943,500,26358,-28674,1,-18684,-3129,-15882,-30464,22,-1,15603,2020-11-02 15:24:08,2020-11-02 15:24:38,1,DF:DC:EF:28:D6:3E,22,22,-3743.442873672717,-10892.104766569419,-38195.891169150964
25194,-5880,-18701,18933,-29697,-19199,2820,9416,-3082,-11521,22,-1,15628,2020-11-02 15:24:08,2020-11-02 15:24:38,1,DF:DC:EF:28:D6:3E,22,22,-21227.30942748169,16181.369519562653,-5506.805329890982
25195,-5880,-526,-21260,31999,-26367,-16892,25800,9207,4095,22,-1,15654,2020-11-02 15:24:08,2020-11-02 15:24:38,1,DF:DC:EF:28:D6:3E,22,22,8851.464348223635,-15745.804505672293,12671.223120175735
25196,-5366,-17678,13301,11263,-6912,-26363,-25400,31223,15870,22,-1,15679,2020-11-02 15:24:08,2020-11-02 15:24:38,1,DF:DC:EF:28:D6:3E,22,22,-9528.657412135875,17242.716022928533,-11406.825722995494
25197,-3828,-13070,-22026,-16897,-31489,-26363,-11832,-2057,32253,22,-1,15705,2020-11-02 15:24:08,2020-11-02 15:24:38,1,DF:DC:EF:28:D6:3E,22,22,-15075.745062798233,-467.62690636579646,21050.56759039902
25198,-20978,9203,23287,8449,-1538,19716,7625,32760,-2820,22,-1,15731,2020-11-02 15:24:08,2020-11-02 15:24:38,1,DF:DC:EF:28:D6:3E,22,22,-25441.834229470187,-14622.932702316994,-14350.57393359817
25199,-13298,24820,27895,-31998,25599,13570,-30263,-10504,-22788,22,-1,15756,2020-11-02 15:24:08,2020-11-02 15:24:38,1,DF:DC:EF:28:D6:3E,22,22,30750.472886787153,24291.29944190355,5944.864814505408
25200,-6130,-2316,-2827,-19965,11520,15871,5066,-9480,-25604,22,-1,15782,2020-11-02 15:24:08,2020-11-02 15:24:38,1,DF:DC:EF:28:D6:3E,22,22,2362.7443891397706,807.5794418780988,-6685.651755561637
25201,8461,5621,-6412,8964,9728,-12549,-27190,30712,-5636,22,-1,15808,2020-11-02 15:24:08,2020-11-02 15:24:38,1,DF:DC:EF:28:D6:3E,22,22,-5698.1933214441215,1178.4868070400726,10509.027914944469
25202,-9975,500,2036,-18428,-9730,-15111,1995,-6153,-24067,22,-1,15833,2020-11-02 15:24:08,2020-11-02 15:24:38,1,DF:DC:EF:28:D6:3E,22,22,4264.266258954936,-5702.201056456439,-7293.617578711235
25203,-14586,-18957,29682,2564,-17666,-18183,24523,22519,-30722,22,-1,15859,2020-11-02 15:24:08,2020-11-02 15:24:38,1,DF:DC:EF:28:D6:3E,22,22,-29529.111420703222,23049.783760282717,7062.5361102015795
25204,-20987,19188,16625,5891,8192,31227,-24117,-10762,13311,22,-1,15884,2020-11-02 15:24:08,2020-11-02 15:24:38,1,DF:DC:EF:28:D6:3E,22,22,28843.758642354256,-2651.9491076881623,-15685.308135699675
25205,29189,-8716,31473,1026,27393,-19460,-10037,21238,-31745,22,1,15910,2020-11-02 15:24:08,2020-11-02 15:24:38,1,DF:DC:EF:28:D6:3E,22,22,-28102.591813775416,-18239.71022368565,-28214.77290896207
25206,18180,5621,15855,3074,513,20477,2508,-5899,-16897,22,1,15936,2020-11-02 15:24:08,2020-11-02 15:24:38,1,DF:DC:EF:28:D6:3E,22,22,6575.509370600499,860.4985531702478,23864.435563346917
25207,-14079,21238,-29456,25344,-2048,19198,7628,-27147,-8449,22,1,15961,2020-11-02 15:24:08,2020-11-02 15:24:38,1,DF:DC:EF:28:D6:3E,22,22,36284.87134650812,10602.663014273747,9376.484915633691
25208,-14586,12791,16113,12801,32000,1024,15820,30453,-13569,22,1,15987,2020-11-02 15:24:08,2020-11-02 15:24:38,1,DF:DC:EF:28:D6:3E,22,22,-14475.387196012709,16369.249257299707,-12589.705726422058
25209,18691,-31243,-27409,16127,4866,-26367,23244,32245,-28929,22,1,16012,2020-11-02 15:24:08,2020-11-02 15:24:38,1,DF:DC:EF:28:D6:3E,22,22,-9492.72750146026,-33223.387762368955,29712.39541292981
25210,-16631,-5640,22767,20990,-28669,24832,22732,21237,1791,22,1,16038,2020-11-02 15:24:08,2020-11-02 15:24:38,1,DF:DC:EF:28:D6:3E,22,22,13171.519095568565,2370.6784573275154,25448.517017049064
25211,12031,-31244,-22803,5632,27389,30976,11724,19957,2047,22,1,16063,2020-11-02 15:24:08,2020-11-02 15:24:38,1,DF:DC:EF:28:D6:3E,22,22,-14580.688003280977,33736.80098498493,17033.528778573676
25212,26876,-28943,16368,-9474,-6658,-13820,7628,-3595,-2562,22,1,16089,2020-11-02 15:24:08,2020-11-02 15:24:38,1,DF:DC:EF:28:D6:3E,22,22,26876.0,-29411.16671807722,-15511.026570845239
25213,26362,2032,-21259,2300,-18942,27145,4556,-9482,4094,22,1,16115,2020-11-02 15:24:08,2020-11-02 15:24:38,1,DF:DC:EF:28:D6:3E,22,22,32132.281053326973,2032.0,10696.571381054984
25214,27650,2034,14835,-7687,-11515,7180,-2613,-12553,21500,22,1,16140,2020-11-02 15:24:08,2020-11-02 15:24:38,1,DF:DC:EF:28:D6:3E,22,22,24458.702833388765,-5541.064563437471,18968.535531553243
25215,-29177,-31245,-10765,12280,26118,-18678,-30005,29432,20474,22,1,16166,2020-11-02 15:24:08,2020-11-02 15:24:38,1,DF:DC:EF:28:D6:3E,22,22,-23354.681045909696,1854.5776374962043,-37343.70086146156
25216,-4856,3316,-12297,-13576,-27133,30214,-9526,-14600,-13832,22,1,16193,2020-11-02 15:24:08,2020-11-02 15:24:38,1,DF:DC:EF:28:D6:3E,22,22,-12190.829513382385,-6077.575104139274,-489.44624749969535
25217,20999,-29197,18936,27644,-26880,25346,20426,-520,9976,22,1,16217,2020-11-02 15:24:08,2020-11-02 15:24:38,1,DF:DC:EF:28:D6:3E,22,22,-10728.132038434103,31843.56319088183,-22866.77879094998
25218,1031,-10766,-20234,7422,20992,6144,458,1273,504,22,1,16243,2020-11-02 15:24:08,2020-11-02 15:24:38,1,DF:DC:EF:28:D6:3E,22,22,1031.0,-10766.0,-20234.0
25219,14086,-30222,23540,254,-1792,30976,-14391,-3080,-5129,22,1,16268,2020-11-02 15:24:08,2020-11-02 15:24:38,1,DF:DC:EF:28:D6:3E,22,22,14086.0,33981.651121604285,17684.69030120602
25220,-30457,-24590,-1037,26620,-16382,-23294,31177,-7176,-32521,22,1,16294,2020-11-02 15:24:08,2020-11-02 15:24:38,1,DF:DC:EF:28:D6:3E,22,22,-2583.809919764539,-36830.20226853052,-13047.315630337764
25221,-32503,29683,5365,12283,30468,19460,5833,-14088,-24074,22,-1,16320,2020-11-02 15:24:08,2020-11-02 15:24:38,1,DF:DC:EF:28:D6:3E,22,22,-993.7172139043505,-16478.78675882295,-41155.44722216042
25222,-19700,16628,-5131,13051,15621,31748,-19000,-27400,-30731,22,-1,16345,2020-11-02 15:24:08,2020-11-02 15:24:38,1,DF:DC:EF:28:D6:3E,22,22,20719.156385232298,9456.38915223466,13122.530544288564
25223,22031,-17676,18679,12796,18946,-25855,21960,22520,-16140,22,-1,16371,2020-11-02 15:24:08,2020-11-02 15:24:38,1,DF:DC:EF:28:D6:3E,22,22,23823.8509040564,16340.000662260596,17667.469667686262
25224,22031,28148,29435,-14850,-24323,5373,-4665,15608,-5132,22,-1,16396,2020-11-02 15:24:08,2020-11-02 15:24:38,1,DF:DC:EF:28:D6:3E,22,22,17597.038802643845,28148.0,-32282.01374416173
25225,19981,-21772,16635,-17406,7677,24057,-12345,7416,-4619,22,-1,16422,2020-11-02 15:24:08,2020-11-02 15:24:38,1,DF:DC:EF:28:D6:3E,22,22,21629.400344122583,24186.5116205496,-9857.244360504053
25226,23307,9203,-19977,3590,-18689,3575,11464,31223,6135,22,-1,16448,2020-11-02 15:24:08,2020-11-02 15:24:38,1,DF:DC:EF:28:D6:3E,22,22,-17133.478477370303,-151.93281185890055,27081.595571276248
25227,-21496,-23312,26099,10759,-25089,-17163,-16184,-29450,25336,22,-1,16473,2020-11-02 15:24:08,2020-11-02 15:24:38,1,DF:DC:EF:28:D6:3E,22,22,22808.933277017753,-24739.950732764224,23545.11757254466
25228,-16635,19440,3827,18438,-13827,-17418,12233,-14091,-12039,22,-1,16499,2020-11-02 15:24:08,2020-11-02 15:24:38,1,DF:DC:EF:28:D6:3E,22,22,-7314.92482285625,11818.745221999725,-21819.530018160796
25229,19462,-16912,-16652,-21499,-13059,-11016,-32055,21493,8699,22,-1,16524,2020-11-02 15:24:08,2020-11-02 15:24:38,1,DF:DC:EF:28:D6:3E,22,22,-21406.649359222225,-12663.951462527022,17984.826620406166
25230,-23033,-272,-28939,-21755,-16642,9210,-6455,-3852,10748,22,-1,16550,2020-11-02 15:24:08,2020-11-02 15:24:38,1,DF:DC:EF:28:D6:3E,22,22,8169.8180904063065,-32618.08434076407,-15406.928321650348
25231,20743,17137,-12299,-506,29439,6651,-32566,-32268,-4100,22,-1,16576,2020-11-02 15:24:08,2020-11-02 15:24:38,1,DF:DC:EF:28:D6:3E,22,22,18296.631288541103,16654.92852636525,-16219.150972626272
25232,19460,-13326,32500,13574,17664,-14085,16331,756,-31747,22,-1,16601,2020-11-02 15:24:08,2020-11-02 15:24:38,1,DF:DC:EF:28:D6:3E,22,22,28540.571510984137,11850.903570896524,-25642.06969766116
25233,-29689,-17420,-1807,19974,-30718,5373,10188,-32525,-22019,22,-1,16627,2020-11-02 15:24:08,2020-11-02 15:24:38,1,DF:DC:EF:28:D6:3E,22,22,22066.21863373705,11116.76410468861,24034.515203116178
25234,-27128,24311,24560,19973,-12798,-31235,1741,-4622,-25347,22,-1,16652,2020-11-02 15:24:08,2020-11-02 15:24:38,1,DF:DC:EF:28:D6:3E,22,22,-666.5813166429762,-36421.26815952874,24560.0
25235,30215,6648,-1042,-26876,-30207,20990,-16179,32498,-27651,22,-1,16678,2020-11-02 15:24:08,2020-11-02 15:24:38,1,DF:DC:EF:28:D6:3E,22,22,-6308.680722660743,12986.36922351243,27382.159427812443
25236,30213,17143,29679,-24318,-29695,21247,18126,16114,-32003,22,-1,16704,2020-11-02 15:24:08,2020-11-02 15:24:38,1,DF:DC:EF:28:D6:3E,22,22,9769.497743863614,-41568.930068408066,-16252.132961566724
25237,-16388,31987,-4363,-2304,-3586,-26879,-32562,19698,28669,22,-1,16729,2020-11-02 15:24:08,2020-11-02 15:24:38,1,DF:DC:EF:28:D6:3E,22,22,18493.185470077777,-15780.304022645389,-26828.24217354141
25238,7427,19189,26862,-14337,25856,-29179,-11826,-1550,4605,22,1,16755,2020-11-02 15:24:08,2020-11-02 15:24:38,1,DF:DC:EF:28:D6:3E,22,22,7427.0,16440.105832888345,-28627.044646687347
25239,-17917,21238,21487,-17155,-29951,14343,-2610,-16397,17916,22,1,16780,2020-11-02 15:24:08,2020-11-02 15:24:38,1,DF:DC:EF:28:D6:3E,22,22,8963.953843359559,-22730.468479202264,-25233.629073324188
25240,-28675,16883,24562,4350,-1796,29193,-7986,-11788,-30725,22,1,16806,2020-11-02 15:24:08,2020-11-02 15:24:38,1,DF:DC:EF:28:D6:3E,22,22,-24940.203809047627,20709.025073922196,-25684.73617639138
25241,4870,5366,-5135,11772,8193,23049,-4914,-1291,27642,22,1,16832,2020-11-02 15:24:08,2020-11-02 15:24:38,1,DF:DC:EF:28:D6:3E,22,22,877.7577562165525,-7193.079821703752,-5135.0
25242,-8190,5621,23796,-20740,-27905,12039,-22834,-10250,-29703,22,1,16857,2020-11-02 15:24:08,2020-11-02 15:24:38,1,DF:DC:EF:28:D6:3E,22,22,6673.237954858103,14779.811933945059,-20048.601232880475
25243,14088,14070,-4367,27131,-13567,-29948,21966,28407,-12296,22,1,16883,2020-11-02 15:24:08,2020-11-02 15:24:38,1,DF:DC:EF:28:D6:3E,22,22,-6286.388652570473,18254.917877530836,6538.090240539532
25244,-4347,-28173,-23310,-22278,5634,-1535,-19251,-29449,16632,22,1,16908,2020-11-02 15:24:08,2020-11-02 15:24:38,1,DF:DC:EF:28:D6:3E,22,22,-32652.37420161246,12229.261826552722,11842.2148340373
25245,-1022,20208,4594,2298,-15871,2306,-52,-27145,-11785,22,1,16934,2020-11-02 15:24:08,2020-11-02 15:24:38,1,DF:DC:EF:28:D6:3E,22,22,16650.24762823497,-12178.328009616906,-2229.3866440427305
25246,6915,6126,-14348,-13320,17409,5380,11724,-11017,18167,22,1,16960,2020-11-02 15:24:08,2020-11-02 15:24:38,1,DF:DC:EF:28:D6:3E,22,22,4434.244604727392,-11235.483735443731,12054.525499414127
25247,1798,23790,-3591,-31240,258,12806,22475,19960,32758,22,1,16985,2020-11-02 15:24:08,2020-11-02 15:24:38,1,DF:DC:EF:28:D6:3E,22,22,-22326.780913339415,-5765.545906741348,-7096.8668752485955
25248,-1269,5615,-30468,14329,-5371,22279,-16182,-27400,13813,22,1,17011,2020-11-02 15:24:08,2020-11-02 15:24:38,1,DF:DC:EF:28:D6:3E,22,22,24585.955270190938,18467.502212120133,-3989.9593353201635
25249,-28134,-24590,-25091,9210,25354,24325,28874,12792,26099,22,1,17036,2020-11-02 15:24:08,2020-11-02 15:24:38,1,DF:DC:EF:28:D6:3E,22,22,-40925.2549571373,96.8219399972877,18731.323210207112
25250,7696,-7438,-8712,9213,-12026,-26113,18122,17399,13810,22,1,17062,2020-11-02 15:24:08,2020-11-02 15:24:38,1,DF:DC:EF:28:D6:3E,22,22,-5087.842938922724,-9531.825930452978,-8585.415112875926
25251,6923,-272,-3338,26111,30977,9469,10442,-26122,2290,22,1,17088,2020-11-02 15:24:08,2020-11-02 15:24:38,1,DF:DC:EF:28:D6:3E,22,22,-6063.307144960304,2661.8679200926244,-3910.8723632784386
25252,-16375,-2832,-15881,-20480,10238,-30725,-55,19190,-26382,22,1,17113,2020-11-02 15:24:08,2020-11-02 15:24:38,1,DF:DC:EF:28:D6:3E,22,22,-6988.136902278588,12423.649808543438,18032.910970492
25253,-28153,-16656,-14856,8962,-17667,-20486,-7223,3318,31475,22,1,17139,2020-11-02 15:24:08,2020-11-02 15:24:38,1,DF:DC:EF:28:D6:3E,22,22,-28602.974662285116,20897.81041739358,5988.80966698324
25254,23046,7153,19704,2563,-24578,-7943,-3383,-22539,24820,22,1,17164,2020-11-02 15:24:08,2020-11-02 15:24:38,1,DF:DC:EF:28:D6:3E,22,22,22144.067568003968,14695.600607317901,-16254.560447267477
25255,2821,-4368,20727,14852,1791,14586,10186,11765,16885,22,1,17190,2020-11-02 15:24:08,2020-11-02 15:24:38,1,DF:DC:EF:28:D6:3E,22,22,15646.898240920282,13393.16985350151,-5695.925799511803
25256,28676,22001,16886,5381,13311,7676,-26678,-12556,-3851,22,1,17217,2020-11-02 15:24:08,2020-11-02 15:24:38,1,DF:DC:EF:28:D6:3E,22,22,-17037.29997257729,-27160.180238390003,23739.18684501614
25257,8453,31729,-4619,-15867,-10754,-4867,14283,-21004,27126,22,1,17241,2020-11-02 15:24:08,2020-11-02 15:24:38,1,DF:DC:EF:28:D6:3E,22,22,1494.3929745306223,15505.14404317362,-29272.429158477968
25258,-32251,-31758,27892,-4091,-30722,-21506,-3381,-21516,-14602,22,-1,17267,2020-11-02 15:24:08,2020-11-02 15:24:38,1,DF:DC:EF:28:D6:3E,22,22,-40526.30350577274,-12237.179402369104,-32164.1320951184
25259,-9210,12530,12531,28166,9727,-22529,-14644,-13068,3319,22,-1,17293,2020-11-02 15:24:08,2020-11-02 15:24:38,1,DF:DC:EF:28:D6:3E,22,22,18934.535683661536,6180.086193616923,-1463.1657744813174
25260,-26874,14836,12277,-24059,-3586,16895,-30003,-11532,17143,22,-1,17344,2020-11-02 15:24:08,2020-11-02 15:24:38,1,DF:DC:EF:28:D6:3E,22,22,8925.362445793253,-1325.272525235151,-31806.053809692905
25261,14598,1268,31218,12295,13823,-27137,29646,-8460,30199,22,-1,17346,2020-11-02 15:24:08,2020-11-02 15:24:38,1,DF:DC:EF:28:D6:3E,22,22,29464.827937743175,7194.624464991461,16411.405954607773
25262,-26361,20723,-20754,-23291,-1793,-512,25039,-1292,-31753,22,-1,17369,2020-11-02 15:24:08,2020-11-02 15:24:38,1,DF:DC:EF:28:D6:3E,22,22,20572.96417849435,-33575.92755865818,-2117.4984028627932
25263,2308,-1035,-15378,-14845,-1794,2,2256,12789,30199,22,-1,17395,2020-11-02 15:24:08,2020-11-02 15:24:38,1,DF:DC:EF:28:D6:3E,22,22,-5231.432979417539,14036.231402274625,4300.847591308283
25264,21767,26615,-20496,-10238,-24578,3843,-32560,-21003,27127,22,-1,17421,2020-11-02 15:24:08,2020-11-02 15:24:38,1,DF:DC:EF:28:D6:3E,22,22,36491.25807893182,631.6808705579042,-16438.844031578497
25265,-28920,14583,7920,-30720,19200,10244,-14896,16118,14839,22,-1,17446,2020-11-02 15:24:08,2020-11-02 15:24:38,1,DF:DC:EF:28:D6:3E,22,22,226.35778418397695,-3217.1164988327673,33186.67823971657
25266,32262,24823,-1550,-28673,31488,-17405,-12592,-21770,-12298,22,-1,17472,2020-11-02 15:24:08,2020-11-02 15:24:38,1,DF:DC:EF:28:D6:3E,22,22,1329.0756593697247,31113.895085068794,26259.846982170377
25267,-32515,11247,8946,-5117,11518,22022,11217,20983,32502,22,-1,17497,2020-11-02 15:24:08,2020-11-02 15:24:38,1,DF:DC:EF:28:D6:3E,22,22,8311.893804376463,-33213.789557623655,-9565.968566050078
25268,17931,9713,3054,-19463,27650,4863,10449,21239,-25611,22,-1,17523,2020-11-02 15:24:08,2020-11-02 15:24:38,1,DF:DC:EF:28:D6:3E,22,22,8670.273366177727,-14135.819784504645,-12255.407164829578
25269,12556,-6666,-15627,-3844,10497,28420,29904,-10249,-20235,22,-1,17549,2020-11-02 15:24:08,2020-11-02 15:24:38,1,DF:DC:EF:28:D6:3E,22,22,-7465.407701336877,15982.42757173313,11624.178154481491
25270,19977,-10760,-28427,24829,6146,-27646,7376,8440,21237,22,1,17574,2020-11-02 15:24:08,2020-11-02 15:24:38,1,DF:DC:EF:28:D6:3E,22,22,7096.743327473605,-19301.49512767143,-30000.682958566707
25271,19206,9461,18677,17661,-32764,32257,-4913,248,-25356,22,1,17600,2020-11-02 15:24:08,2020-11-02 15:24:38,1,DF:DC:EF:28:D6:3E,22,22,-19713.98779041484,8351.026427893437,18677.0
25272,21248,18673,10993,-8708,-3071,-4349,-20273,7928,-525,22,1,17625,2020-11-02 15:24:08,2020-11-02 15:24:38,1,DF:DC:EF:28:D6:3E,22,22,105.23644630813033,-16934.797640417997,-25183.4476624719
25273,6660,-14863,12534,22265,10756,17412,10703,20984,1523,22,1,17651,2020-11-02 15:24:08,2020-11-02 15:24:38,1,DF:DC:EF:28:D6:3E,22,22,-7402.621644185047,-18577.510495700335,4737.385521064008
25274,-29440,21231,27129,7675,-29950,-11004,-26930,-27144,8946,22,1,17677,2020-11-02 15:24:08,2020-11-02 15:24:38,1,DF:DC:EF:28:D6:3E,22,22,38670.359327318154,-3458.8363651858635,23368.59778623796
25275,12030,-4115,-1800,-21508,-10750,24071,21966,13049,15345,22,1,17702,2020-11-02 15:24:08,2020-11-02 15:24:38,1,DF:DC:EF:28:D6:3E,22,22,-2306.520699813884,-5359.939340797988,-11438.75594303402
25276,-12540,13041,3065,-13317,25350,-5625,11982,-16647,-11281,22,1,17728,2020-11-02 15:24:08,2020-11-02 15:24:38,1,DF:DC:EF:28:D6:3E,22,22,-9291.469895790642,-731.9331803937116,-15806.52925202288
25277,20490,-12046,21498,-8196,-7418,12804,1742,-14343,22766,22,1,17753,2020-11-02 15:24:08,2020-11-02 15:24:38,1,DF:DC:EF:28:D6:3E,22,22,29493.896474833156,7963.516005249596,9685.179583567751
25278,1035,-271,-17928,-25090,22277,4863,-1075,20985,32237,22,1,17779,2020-11-02 15:24:08,2020-11-02 15:24:38,1,DF:DC:EF:28:D6:3E,22,22,-1268.1859225093976,3331.759798497528,17602.526270710823
25279,13575,-9488,-5386,-22273,-18430,764,-3379,-28680,19181,22,1,17805,2020-11-02 15:24:08,2020-11-02 15:24:38,1,DF:DC:EF:28:D6:3E,22,22,2639.848232530655,9207.609782347057,-14545.20155945704
25280,30980,-18705,4598,-24321,-20737,-8197,-12339,-2057,-26131,22,1,17830,2020-11-02 15:24:08,2020-11-02 15:24:38,1,DF:DC:EF:28:D6:3E,22,22,-29305.003178067505,15624.910972917643,15094.965214330616
25281,-6908,-8721,6903,-15873,14077,8189,-28467,-15113,12270,22,1,17856,2020-11-02 15:24:08,2020-11-02 15:24:38,1,DF:DC:EF:28:D6:3E,22,22,-5834.200535212216,11603.608913330118,-1657.129536703564
25282,16646,25072,16632,17664,24572,-31491,22733,-12553,-8466,22,1,17882,2020-11-02 15:24:08,2020-11-02 15:24:38,1,DF:DC:EF:28:D6:3E,22,22,-20252.852709336126,-18741.382045471,20515.859235226624
25283,1288,27120,-4617,27905,-23044,-16132,16845,-12809,-26897,22,1,17907,2020-11-02 15:24:08,2020-11-02 15:24:38,1,DF:DC:EF:28:D6:3E,22,22,21513.206000997052,-14065.113928560851,-9890.630451860381
25284,-8954,1521,-6922,20738,24828,27131,17613,-22281,29424,22,1,17933,2020-11-02 15:24:08,2020-11-02 15:24:38,1,DF:DC:EF:28:D6:3E,22,22,1724.36420139836,-7693.942634813465,-8260.233400645251
25285,-14076,-30479,-5387,-766,28411,-10502,20941,31223,31473,22,1,17958,2020-11-02 15:24:08,2020-11-02 15:24:38,1,DF:DC:EF:28:D6:3E,22,22,28250.24997209523,13552.544261343184,-13205.109108162158
25286,-765,4594,-3083,-15614,4346,12795,20941,28663,-20494,22,1,17984,2020-11-02 15:24:08,2020-11-02 15:24:38,1,DF:DC:EF:28:D6:3E,22,22,3147.3522984597553,4603.173197684322,316.1012836114139
25287,-8444,10482,17143,-10750,30201,-12549,18125,-28937,-2573,22,1,18010,2020-11-02 15:24:08,2020-11-02 15:24:38,1,DF:DC:EF:28:D6:3E,22,22,-17251.1107058675,-12796.321647536171,3702.5991825609244
25288,-16634,-19726,1272,-26365,-25350,6140,23757,-20745,8181,22,1,18035,2020-11-02 15:24:08,2020-11-02 15:24:38,1,DF:DC:EF:28:D6:3E,22,22,-3837.213592594003,19669.58649460698,-16303.56326009705
25289,-17657,-31758,503,-22268,-28676,-15365,-21043,-26377,4086,22,1,18061,2020-11-02 15:24:08,2020-11-02 15:24:38,1,DF:DC:EF:28:D6:3E,22,22,14556.276913168978,31511.16507109106,10758.92653983633
25290,22023,8435,-13068,26885,27645,11259,10446,19447,-6666,22,1,18086,2020-11-02 15:24:08,2020-11-02 15:24:38,1,DF:DC:EF:28:D6:3E,22,22,1310.8993250555832,26745.5994107038,-3144.651510379086
25291,-11002,-21517,-18958,-32507,10493,-32517,-21042,-1802,-17929,22,1,18112,2020-11-02 15:24:08,2020-11-02 15:24:38,1,DF:DC:EF:28:D6:3E,22,22,13520.443232130065,-16887.310192825684,21804.756963975407
25292,-27899,5876,9714,-22012,-5636,253,7119,-13578,-32008,22,-1,18137,2020-11-02 15:24:08,2020-11-02 15:24:38,1,DF:DC:EF:28:D6:3E,22,22,5458.117570286965,827.3525587754675,-29610.265337082215
25293,-4348,-10764,23282,-28925,-11523,19967,31695,-12042,1529,22,-1,18163,2020-11-02 15:24:08,2020-11-02 15:24:38,1,DF:DC:EF:28:D6:3E,22,22,-13581.438086132795,19272.335198381024,-10997.361479636167
25294,23815,20725,-31759,2306,-7937,-9983,-11569,3063,7673,22,-1,18189,2020-11-02 15:24:08,2020-11-02 15:24:38,1,DF:DC:EF:28:D6:3E,22,22,44425.0027266011,-223.33676950711924,-5628.781789061559
25295,1031,32246,-17936,-27393,16129,27394,-1329,15095,-12552,22,-1,18214,2020-11-02 15:24:08,2020-11-02 15:24:38,1,DF:DC:EF:28:D6:3E,22,22,36286.75631678724,1800.9367869369562,6526.524013252269
25296,-5880,-31241,19953,-12291,7938,-11519,-9265,25079,24312,22,-1,18242,2020-11-02 15:24:08,2020-11-02 15:24:38,1,DF:DC:EF:28:D6:3E,22,22,15757.158133464935,18381.224858047608,-28679.9447397458
25297,-8191,6133,-9744,-18435,-258,-8447,-30513,-30729,11256,22,-1,18265,2020-11-02 15:24:08,2020-11-02 15:24:38,1,DF:DC:EF:28:D6:3E,22,22,-8966.80226334195,6548.471746694795,8738.745959968497
25298,12034,-3596,-17167,-20484,19711,-2301,9167,6904,760,22,-1,18291,2020-11-02 15:24:08,2020-11-02 15:24:38,1,DF:DC:EF:28:D6:3E,22,22,-3849.188526452808,12502.605304295328,-16772.682233108408
25299,-7932,-10508,10739,30203,1282,6150,-23090,-10760,-29705,22,-1,18317,2020-11-02 15:24:08,2020-11-02 15:24:38,1,DF:DC:EF:28:D6:3E,22,22,3565.132725350445,7614.259476039649,-14763.93207388112
25300,-29181,-12554,-26633,-11526,-24573,19460,8142,9721,-25866,22,-1,18342,2020-11-02 15:24:08,2020-11-02 15:24:38,1,DF:DC:EF:28:D6:3E,22,22,12203.533651770402,-38038.47466132036,11072.424208374443
25301,8444,-19214,-15373,24573,31234,31494,-12595,-28167,-14347,22,-1,18368,2020-11-02 15:24:08,2020-11-02 15:24:38,1,DF:DC:EF:28:D6:3E,22,22,-10660.483824257832,-8916.96429973863,-21992.04159030998
25302,3070,-8719,-31246,-23557,-15867,-4344,-22323,5370,21748,22,-1,18394,2020-11-02 15:24:08,2020-11-02 15:24:38,1,DF:DC:EF:28:D6:3E,22,22,-3635.1292173002525,-3746.815611546659,32163.730899051498
25303,-21758,29682,12790,-6918,-19706,-2039,21197,-22534,-27918,22,-1,18419,2020-11-02 15:24:08,2020-11-02 15:24:38,1,DF:DC:EF:28:D6:3E,22,22,8743.335331998536,37593.73365893674,5317.994438992241
25304,-30202,-7181,9721,-22021,1543,-28154,-308,-8198,-9232,22,1,18445,2020-11-02 15:24:08,2020-11-02 15:24:38,1,DF:DC:EF:28:D6:3E,22,22,-19279.009906293337,16734.571283092893,-20161.827967823905
25305,31493,29425,-27654,-771,13062,17922,-9780,-19462,-20241,22,1,18496,2020-11-02 15:24:08,2020-11-02 15:24:38,1,DF:DC:EF:28:D6:3E,22,22,24278.885432610772,10907.031930768397,43748.78017283863
25306,-30461,15853,14584,9471,-8700,-31487,-6196,24570,-3858,22,1,18498,2020-11-02 15:24:08,2020-11-02 15:24:38,1,DF:DC:EF:28:D6:3E,22,22,24042.83346043312,20837.425297365982,-19484.0204313835
25307,5640,-23058,-31239,-26370,13059,-29952,-6708,6138,21742,22,1,18521,2020-11-02 15:24:08,2020-11-02 15:24:38,1,DF:DC:EF:28:D6:3E,22,22,348.1560722686736,39087.03450609505,-3382.100806995163
25308,3593,244,-17412,-32768,-18175,-4867,-7732,-16647,10734,22,1,18547,2020-11-02 15:24:08,2020-11-02 15:24:38,1,DF:DC:EF:28:D6:3E,22,22,16133.026041997757,-1747.8839218251517,7267.551274263389
25309,-25846,-22031,-4109,-30718,32511,3833,9677,6649,-26130,22,1,18573,2020-11-02 15:24:08,2020-11-02 15:24:38,1,DF:DC:EF:28:D6:3E,22,22,26937.36778045548,-18267.555818099587,10532.7669438327
25310,-24825,-2319,-7436,-5631,-518,-24586,2253,25336,-6929,22,1,18598,2020-11-02 15:24:08,2020-11-02 15:24:38,1,DF:DC:EF:28:D6:3E,22,22,9856.550036452187,-19642.708814520254,-13927.1279812775
25311,23047,-5392,3319,259,-9993,-14859,-15156,-3337,-11791,22,1,18624,2020-11-02 15:24:08,2020-11-02 15:24:38,1,DF:DC:EF:28:D6:3E,22,22,-4806.375025728653,-23146.268335166696,3521.74037494411
25312,1030,10992,-21513,6916,-21513,1269,-28212,-28169,500,22,1,18650,2020-11-02 15:24:08,2020-11-02 15:24:38,1,DF:DC:EF:28:D6:3E,22,22,16264.447236127024,9096.241401026637,-15408.448379946922
25313,-765,19439,2551,21252,12537,-6155,31180,8695,5622,22,1,18675,2020-11-02 15:24:08,2020-11-02 15:24:38,1,DF:DC:EF:28:D6:3E,22,22,-15489.888423258702,7960.3250478853215,-9036.820722300825
25314,-10495,-18,-28681,-18173,7419,15353,31436,-13066,-20233,22,1,18701,2020-11-02 15:24:08,2020-11-02 15:24:38,1,DF:DC:EF:28:D6:3E,22,22,-15513.898192222066,25574.629797667985,-6164.60733490801
25315,23810,-18,6136,13571,26365,-23043,-21044,-17418,-27912,22,1,18726,2020-11-02 15:24:08,2020-11-02 15:24:38,1,DF:DC:EF:28:D6:3E,22,22,14178.59497043986,-17768.288280146568,9371.35509186497
25316,9477,4336,8441,2819,13056,-32512,7629,-13578,-18696,22,1,18752,2020-11-02 15:24:08,2020-11-02 15:24:38,1,DF:DC:EF:28:D6:3E,22,22,10622.610937815496,6322.440571190224,5201.133346451563
25317,-6394,9969,29432,-5373,-2303,32513,-12339,-12298,26104,22,1,18778,2020-11-02 15:24:08,2020-11-02 15:24:38,1,DF:DC:EF:28:D6:3E,22,22,2707.5811941644624,-31461.746420215615,3055.2147661100475
25318,-30713,23027,7925,5124,21252,-512,-19762,-19722,-11017,22,1,18803,2020-11-02 15:24:08,2020-11-02 15:24:38,1,DF:DC:EF:28:D6:3E,22,22,-967.3377561817326,-38615.77911921737,6650.006291822705
25319,19974,27126,24564,-25341,25603,-20994,31695,22774,21495,22,1,18829,2020-11-02 15:24:08,2020-11-02 15:24:38,1,DF:DC:EF:28:D6:3E,22,22,17826.85239824263,-34106.6846423285,16034.588996292465
25320,-27127,13814,27889,-6141,30464,12541,6864,246,16631,22,1,18854,2020-11-02 15:24:08,2020-11-02 15:24:38,1,DF:DC:EF:28:D6:3E,22,22,25841.255120299873,-18006.477249625408,26692.571192492833
25321,-20986,-30987,-29709,-14077,-5379,-12803,29392,-13579,-19977,22,1,18880,2020-11-02 15:24:08,2020-11-02 15:24:38,1,DF:DC:EF:28:D6:3E,22,22,5255.782235420842,38404.55112427421,-27940.978007880167
25322,32262,6902,-26636,-3326,23550,-12290,-17456,-15883,9720,22,1,18906,2020-11-02 15:24:08,2020-11-02 15:24:38,1,DF:DC:EF:28:D6:3E,22,22,-10817.919774164493,-36451.38312062729,18767.52579198945
25323,8198,-24332,-4621,-28670,2560,10241,4817,-9995,16632,22,1,18931,2020-11-02 15:24:08,2020-11-02 15:24:38,1,DF:DC:EF:28:D6:3E,22,22,18663.583965934446,17689.0714477337,4401.642178038461
25324,16392,22262,25840,10241,6658,11010,29137,246,-3593,22,1,18957,2020-11-02 15:24:08,2020-11-02 15:24:38,1,DF:DC:EF:28:D6:3E,22,22,16392.0,31093.49083007784,-14017.741330181023
25325,-24313,12277,-8210,256,-21502,-30716,-24623,23030,32759,22,-1,18982,2020-11-02 15:24:08,2020-11-02 15:24:38,1,DF:DC:EF:28:D6:3E,22,22,-375.7136452799223,-5115.779918686079,-27981.037026534927
25326,12546,6132,25581,-772,4606,-3325,26833,-7946,10231,22,-1,19008,2020-11-02 15:24:08,2020-11-02 15:24:38,1,DF:DC:EF:28:D6:3E,22,22,456.5769378585228,29124.09964564752,-984.6107506063636
25327,-30216,26350,8433,-14853,11004,-24056,-10032,-2569,-2826,22,-1,19034,2020-11-02 15:24:08,2020-11-02 15:24:38,1,DF:DC:EF:28:D6:3E,22,22,-30216.0,21333.090574510472,-17616.391104302053
25328,-24601,-9501,30447,22266,-12816,24338,10448,11770,25334,22,-1,19059,2020-11-02 15:24:08,2020-11-02 15:24:38,1,DF:DC:EF:28:D6:3E,22,22,-34991.96231054954,6535.174143534816,18850.78469376685
25329,-18678,24046,11257,-17932,-27126,20248,25039,10493,-1293,22,-1,19085,2020-11-02 15:24:08,2020-11-02 15:24:38,1,DF:DC:EF:28:D6:3E,22,22,-31596.515956763076,-7198.188817605065,1908.9542006349202
25330,-6130,-10251,-5890,30711,-5110,-23283,6606,17662,-14352,22,-1,19110,2020-11-02 15:24:08,2020-11-02 15:24:38,1,DF:DC:EF:28:D6:3E,22,22,-2361.541286046093,-3760.6163026334775,12555.193697377475
25331,28933,-23308,-17420,20988,31492,18947,31693,24062,14831,22,-1,19136,2020-11-02 15:24:08,2020-11-02 15:24:38,1,DF:DC:EF:28:D6:3E,22,22,34554.221697179695,-19473.909399483902,10517.14640968967
25332,-2555,-21008,18432,19197,-24578,31740,-1588,9214,7919,22,-1,19162,2020-11-02 15:24:08,2020-11-02 15:24:38,1,DF:DC:EF:28:D6:3E,22,22,25311.835118158746,538.9109411707741,12108.810467945728
