id,accelerationx,accelerationy,accelerationz,angularvelocityx,angularvelocityy,angularvelocityz,pitch,roll,yaw,mdlcircle_id,hallsensor,timestamp,starttime,endtime,train_mode,blemac,training_id,training_handle_id,accelerationWorldx,accelerationWorldy,accelerationWorldz
41174,-31778,6898,-521,-17413,505,-6655,-25136,29980,24536,36,1,1382,2020-11-02 15:44:23,2020-11-02 15:44:53,0,DF:DC:EF:28:D6:3E,36,36,6263.779492401068,13547.112316142659,-28895.25814669929
41175,-21024,-8206,-26887,-12549,-23811,-21247,-27951,-996,2010,36,1,1407,2020-11-02 15:44:23,2020-11-02 15:44:53,0,DF:DC:EF:28:D6:3E,36,36,-21024.0,25711.948244151063,11364.194757663074
41176,-13851,-1802,-3332,22780,23553,9987,13264,17949,15577,36,1,1433,2020-11-02 15:44:23,2020-11-02 15:44:53,0,DF:DC:EF:28:D6:3E,36,36,-9128.419068374047,10863.406728566488,2204.0845178625677
41177,7407,26362,22782,-11524,-24061,-4861,16845,31517,-19754,36,1,1458,2020-11-02 15:44:23,2020-11-02 15:44:53,0,DF:DC:EF:28:D6:3E,36,36,7204.391041283681,33033.341886033966,11213.085684354024
41178,18167,5118,-14848,4860,25093,-15101,9161,24093,723,36,1,1484,2020-11-02 15:44:23,2020-11-02 15:44:53,0,DF:DC:EF:28:D6:3E,36,36,-9062.647116367487,15259.428383860788,16177.613842653678
41179,30207,19968,-23039,26364,-29948,-12798,31941,1053,-10545,36,1,1509,2020-11-02 15:44:23,2020-11-02 15:44:53,0,DF:DC:EF:28:D6:3E,36,36,2496.8142248879085,-34294.66498307938,-25683.093007360818
41180,-21506,6912,-8447,5629,-8190,-30719,14787,-20196,-1075,36,1,1535,2020-11-02 15:44:23,2020-11-02 15:44:53,0,DF:DC:EF:28:D6:3E,36,36,19907.766406066185,4804.428430182686,-12737.106939205423
41181,26366,14591,24322,-10244,17665,-30721,12994,28188,24525,36,1,1561,2020-11-02 15:44:23,2020-11-02 15:44:53,0,DF:DC:EF:28:D6:3E,36,36,-8511.54505944423,33269.46255310871,17897.468623477114
41182,16892,513,25859,20476,-5891,-8707,30146,27932,13774,36,1,1586,2020-11-02 15:44:23,2020-11-02 15:44:53,0,DF:DC:EF:28:D6:3E,36,36,-15929.951826906865,-25128.816070691486,8310.833392493441
41183,-2313,25857,-2815,12797,-17927,3581,10948,-5860,-31792,36,1,1612,2020-11-02 15:44:23,2020-11-02 15:44:53,0,DF:DC:EF:28:D6:3E,36,36,-20853.117292957497,-12892.881099310354,8987.756067295266
41184,1772,-22789,-16645,12286,-24588,10238,-5945,-2019,-18476,36,1,1638,2020-11-02 15:44:23,2020-11-02 15:44:53,0,DF:DC:EF:28:D6:3E,36,36,-5468.437188628848,25805.779314641724,10182.950391611967
41185,31451,8181,15606,26363,-3341,30974,-18482,10015,9692,36,-1,1663,2020-11-02 15:44:23,2020-11-02 15:44:53,0,DF:DC:EF:28:D6:3E,36,36,6594.241934259642,-643.9848778063224,-35436.45939974264
41186,19159,-30218,11767,-1545,-30470,-21764,-22572,23839,15843,36,-1,1689,2020-11-02 15:44:23,2020-11-02 15:44:53,0,DF:DC:EF:28:D6:3E,36,36,-25826.441862926564,-19445.62485259651,19326.656948188305
41187,13777,29680,-14851,-32520,14334,-24069,-15146,-9442,-22810,36,-1,1714,2020-11-02 15:44:23,2020-11-02 15:44:53,0,DF:DC:EF:28:D6:3E,36,36,-28351.835727362475,22075.119744033953,350.46993482351127
41188,-25894,-28170,-1538,26877,-13824,26621,12247,22302,-11801,36,-1,1740,2020-11-02 15:44:23,2020-11-02 15:44:53,0,DF:DC:EF:28:D6:3E,36,36,2730.0374189786653,-25565.350721032242,28379.100024517906
41189,-24862,-15884,8190,-11518,777,-30978,20180,-12771,-16924,36,-1,1766,2020-11-02 15:44:23,2020-11-02 15:44:53,0,DF:DC:EF:28:D6:3E,36,36,5025.944410950628,-24028.03229915242,-18300.004005707822
41190,32765,2302,-16134,-14333,26893,5631,-11570,-21220,28894,36,-1,1791,2020-11-02 15:44:23,2020-11-02 15:44:53,0,DF:DC:EF:28:D6:3E,36,36,-24372.776450657973,27296.808225221666,49.13045616258205
41191,-25848,32252,-17153,-23554,6661,5374,9164,-24037,31195,36,-1,1817,2020-11-02 15:44:23,2020-11-02 15:44:53,0,DF:DC:EF:28:D6:3E,36,36,39180.05410310406,-20133.537297141345,7880.358708996498
41192,-10486,773,-15607,-23556,17663,-30724,23500,13851,14556,36,-1,1842,2020-11-02 15:44:23,2020-11-02 15:44:53,0,DF:DC:EF:28:D6:3E,36,36,5744.721063352419,17044.519769303206,5533.055190227833
41193,-3576,17665,-25848,16642,-27904,8189,11725,-8422,10461,36,-1,1868,2020-11-02 15:44:23,2020-11-02 15:44:53,0,DF:DC:EF:28:D6:3E,36,36,-26828.9708465495,-11888.741596840511,11481.430727855806
41194,-19210,12544,21248,15112,8703,3326,-3634,-23014,1758,36,-1,1894,2020-11-02 15:44:23,2020-11-02 15:44:53,0,DF:DC:EF:28:D6:3E,36,36,28637.033377092845,12544.0,649.5562787552753
41195,26867,22532,8697,-4344,-15357,-18177,4048,25626,-16419,36,-1,1919,2020-11-02 15:44:23,2020-11-02 15:44:53,0,DF:DC:EF:28:D6:3E,36,36,30535.470204831367,12576.86956746222,14648.274070787276
41196,-13579,25087,10999,-26875,-11001,13826,-9778,2586,18139,36,-1,1945,2020-11-02 15:44:23,2020-11-02 15:44:53,0,DF:DC:EF:28:D6:3E,36,36,10224.174372496083,-24497.90171375052,-15167.19753363203
41197,27639,-11773,-9987,-19966,17925,13315,-9524,-20199,-28712,36,-1,1970,2020-11-02 15:44:23,2020-11-02 15:44:53,0,DF:DC:EF:28:D6:3E,36,36,6216.035321981339,-31037.06824888726,-565.0826397922228
41198,12533,22786,-22274,-30974,28160,-15612,-16949,-743,-5418,36,-1,1996,2020-11-02 15:44:23,2020-11-02 15:44:53,0,DF:DC:EF:28:D6:3E,36,36,12533.0,-29736.012702678418,-11449.996530398932
41199,-5386,-17149,26623,-12287,5888,-23802,26314,-23526,7893,36,-1,2022,2020-11-02 15:44:23,2020-11-02 15:44:53,0,DF:DC:EF:28:D6:3E,36,36,-26293.234740178737,17088.013609963913,6967.562254012955
41200,8695,-32767,-15107,6914,-15360,-6905,13768,22043,29138,36,-1,2047,2020-11-02 15:44:23,2020-11-02 15:44:53,0,DF:DC:EF:28:D6:3E,36,36,22865.485200989413,19200.200407827535,22045.92147819168
41201,-8716,32000,1786,-21760,15103,-7416,15301,3100,5071,36,-1,2073,2020-11-02 15:44:23,2020-11-02 15:44:53,0,DF:DC:EF:28:D6:3E,36,36,-8716.0,-14940.703973819225,28354.27940834862
41202,3818,-518,4601,-28675,-27909,-27382,9153,4637,-822,36,-1,2098,2020-11-02 15:44:23,2020-11-02 15:44:53,0,DF:DC:EF:28:D6:3E,36,36,3818.0,-4151.484595540828,2050.0489391688207
41203,-4635,29180,17656,-13062,1529,24075,26298,19230,-20540,36,-1,2150,2020-11-02 15:44:23,2020-11-02 15:44:53,0,DF:DC:EF:28:D6:3E,36,36,-651.0961966693476,5676.137262068176,33941.82523855845
41204,-31000,-17923,-10754,15610,-14852,265,21310,-11746,-17732,36,1,2152,2020-11-02 15:44:23,2020-11-02 15:44:53,0,DF:DC:EF:28:D6:3E,36,36,-2746.3222188181844,-19847.424262681398,-31566.119644447135
41205,-13338,-6917,28157,-23552,30712,-26877,-27081,5151,-10686,36,1,2175,2020-11-02 15:44:23,2020-11-02 15:44:53,0,DF:DC:EF:28:D6:3E,36,36,-21333.196445305133,2152.9260090616426,-23639.44629270166
41206,-19228,2303,9714,-8190,16640,-25348,-8138,-22241,-20415,36,1,2201,2020-11-02 15:44:23,2020-11-02 15:44:53,0,DF:DC:EF:28:D6:3E,36,36,-17053.442414415684,-11944.481729321154,-5990.913706282309
41207,-10006,27901,10743,-17923,8452,-24068,4924,28959,20410,36,1,2226,2020-11-02 15:44:23,2020-11-02 15:44:53,0,DF:DC:EF:28:D6:3E,36,36,9071.158897443136,-29476.104230006924,-6547.613433847924
41208,-22539,-1282,4863,19194,12800,27133,25150,21791,25277,36,1,2252,2020-11-02 15:44:23,2020-11-02 15:44:53,0,DF:DC:EF:28:D6:3E,36,36,-10961.864224342175,-19604.364589235807,5367.050938774868
41209,-22025,2816,-17919,26108,-16384,-27910,20545,-28641,6593,36,1,2278,2020-11-02 15:44:23,2020-11-02 15:44:53,0,DF:DC:EF:28:D6:3E,36,36,15412.765208685927,23524.432775353867,4813.39518632922
41210,22004,22529,14592,-14850,-6908,-31233,15172,7711,23236,36,1,2303,2020-11-02 15:44:23,2020-11-02 15:44:53,0,DF:DC:EF:28:D6:3E,36,36,-32835.510825229845,-3375.1670237654635,-10728.270942136933
41211,25594,20224,25855,2559,32515,-23293,-31934,27678,-15422,36,1,2329,2020-11-02 15:44:23,2020-11-02 15:44:53,0,DF:DC:EF:28:D6:3E,36,36,-1948.3445499499503,41534.806656663786,1899.427942365236
41212,-26886,26623,-10499,28671,20226,10753,8001,-4323,29633,36,1,2354,2020-11-02 15:44:23,2020-11-02 15:44:53,0,DF:DC:EF:28:D6:3E,36,36,14638.790409696816,32368.010801537228,16729.84811923103
41213,3314,-22273,18172,-21506,-4865,6143,24641,-15075,-8767,36,1,2380,2020-11-02 15:44:23,2020-11-02 15:44:53,0,DF:DC:EF:28:D6:3E,36,36,20632.1410956474,20266.193771257604,941.7286419863335
41214,-3608,1537,21498,13310,20990,-28160,3649,-227,-13375,36,1,2406,2020-11-02 15:44:23,2020-11-02 15:44:53,0,DF:DC:EF:28:D6:3E,36,36,2899.0479312931625,2641.127428214102,21498.0
41215,7142,-15617,-13576,-17411,23295,-3583,-27841,4126,-26432,36,1,2431,2020-11-02 15:44:23,2020-11-02 15:44:53,0,DF:DC:EF:28:D6:3E,36,36,-20169.38083845946,-7983.043342595735,-2945.118772379519
41216,31458,511,9210,12541,28926,-21248,15934,8990,-23105,36,-1,2457,2020-11-02 15:44:23,2020-11-02 15:44:53,0,DF:DC:EF:28:D6:3E,36,36,-2758.4859466039015,16331.39074790911,-28290.765569731364
41217,20191,6397,18682,12030,-13571,24319,30269,32030,12735,36,-1,2482,2020-11-02 15:44:23,2020-11-02 15:44:53,0,DF:DC:EF:28:D6:3E,36,36,-20656.32349329217,-2274.3618752183993,19124.82135344064
41218,5089,-26374,-2310,19455,30719,-24835,17214,-14818,12224,36,-1,2508,2020-11-02 15:44:23,2020-11-02 15:44:53,0,DF:DC:EF:28:D6:3E,36,36,-23699.939824784014,-11740.459367412175,5224.592150949243
41219,4840,-23815,17661,-32511,-31230,-4357,17473,-15842,10947,36,-1,2534,2020-11-02 15:44:23,2020-11-02 15:44:53,0,DF:DC:EF:28:D6:3E,36,36,-8589.050135368763,25646.594911262346,13075.593035489219
41220,22511,-29962,-2310,1540,-5375,21242,5190,30494,-29753,36,-1,2559,2020-11-02 15:44:23,2020-11-02 15:44:53,0,DF:DC:EF:28:D6:3E,36,36,31170.963905014167,-251.72917115058,20931.08469852186
41221,28665,-7945,-30979,31489,-17666,-31239,31166,22558,17356,36,-1,2585,2020-11-02 15:44:23,2020-11-02 15:44:53,0,DF:DC:EF:28:D6:3E,36,36,32767.672721271956,27612.367794337286,-2887.9854954370185
41222,-5891,-6150,6401,-18176,2044,6391,-17468,25630,-31534,36,-1,2610,2020-11-02 15:44:23,2020-11-02 15:44:53,0,DF:DC:EF:28:D6:3E,36,36,-4438.22155791538,9644.728052129853,-883.5112921262826
41223,-4101,-11521,-15612,4866,-6914,-30475,32203,-15587,15577,36,-1,2636,2020-11-02 15:44:23,2020-11-02 15:44:53,0,DF:DC:EF:28:D6:3E,36,36,18379.014013401877,3668.9157064163237,-6483.601424701328
41224,13820,14594,-23035,-10236,-14335,32504,3023,-21732,20956,36,-1,2662,2020-11-02 15:44:23,2020-11-02 15:44:53,0,DF:DC:EF:28:D6:3E,36,36,8267.103282622198,-15919.972864437068,24754.755670578626
41225,11005,17922,-20477,5383,-3326,14844,26832,-10725,-16164,36,-1,2687,2020-11-02 15:44:23,2020-11-02 15:44:53,0,DF:DC:EF:28:D6:3E,36,36,-27280.49489450793,5780.560245009532,9163.807045357407
41226,10747,-1280,14847,-11768,21508,11006,-10544,16155,-8229,36,-1,2713,2020-11-02 15:44:23,2020-11-02 15:44:53,0,DF:DC:EF:28:D6:3E,36,36,11984.679192796832,3177.80053557867,-13558.719202115613
41227,-28938,14080,-18951,-15352,-2557,29182,721,-18918,-26406,36,-1,2738,2020-11-02 15:44:23,2020-11-02 15:44:53,0,DF:DC:EF:28:D6:3E,36,36,-31129.706716022352,14501.84690606438,14677.617009838603
41228,9458,-27905,28662,-31482,-24573,-13825,1489,19994,25305,36,1,2764,2020-11-02 15:44:23,2020-11-02 15:44:53,0,DF:DC:EF:28:D6:3E,36,36,-17642.126003370813,22265.0302910992,-29709.87797379219
41229,26867,27904,-24586,17411,-27645,-15870,10960,16410,-18729,36,1,2790,2020-11-02 15:44:23,2020-11-02 15:44:53,0,DF:DC:EF:28:D6:3E,36,36,6936.988628941521,-35137.69387511177,-28673.349279441856
41230,-32266,-31743,-22022,31744,-8188,5,5070,25626,15061,36,1,2815,2020-11-02 15:44:23,2020-11-02 15:44:53,0,DF:DC:EF:28:D6:3E,36,36,13151.467983103097,47541.8824954657,-10024.44949494715
41231,11255,-27646,22525,-17665,7940,-4347,17355,-27878,14546,36,1,2841,2020-11-02 15:44:23,2020-11-02 15:44:53,0,DF:DC:EF:28:D6:3E,36,36,-10683.198953719866,-34786.75743566102,8608.29444360039
41232,30962,-23296,-27908,-23809,2305,31495,-27448,283,26063,36,1,2866,2020-11-02 15:44:23,2020-11-02 15:44:53,0,DF:DC:EF:28:D6:3E,36,36,7270.2385392553915,-47190.839439304014,611.4152403681874
41233,-4371,-28164,-18953,13055,-16132,-26871,-20027,-741,27596,36,1,2892,2020-11-02 15:44:23,2020-11-02 15:44:53,0,DF:DC:EF:28:D6:3E,36,36,21934.17604629273,-13168.738625133177,22737.831695066343
41234,3560,13821,-25357,10237,12284,-24569,27842,8221,21193,36,1,2918,2020-11-02 15:44:23,2020-11-02 15:44:53,0,DF:DC:EF:28:D6:3E,36,36,-3015.0496605041008,28939.34377103991,308.1357594752171
41235,-32024,9471,-25866,27899,19969,-10236,-20034,30493,7110,36,1,2943,2020-11-02 15:44:23,2020-11-02 15:44:53,0,DF:DC:EF:28:D6:3E,36,36,-6521.55822630883,-34266.24481493852,-23823.940009653368
41236,-29465,2554,13817,18429,29948,20994,7868,-24803,2756,36,1,2969,2020-11-02 15:44:23,2020-11-02 15:44:53,0,DF:DC:EF:28:D6:3E,36,36,26535.867093570334,-10246.672507903477,16014.746020719344
41237,-11291,15358,20211,-8962,-18437,1788,17085,17182,29637,36,1,2994,2020-11-02 15:44:23,2020-11-02 15:44:53,0,DF:DC:EF:28:D6:3E,36,36,-20986.116559337883,-16374.748019446062,7955.495274181961
41238,-16924,-10499,29938,-27908,-14080,-1543,-5696,13086,-31287,36,1,3020,2020-11-02 15:44:23,2020-11-02 15:44:53,0,DF:DC:EF:28:D6:3E,36,36,19787.548585241617,29879.769348259575,2930.345659049488
41239,-29459,15870,1529,14072,-11773,20477,-12095,-32227,26827,36,1,3046,2020-11-02 15:44:23,2020-11-02 15:44:53,0,DF:DC:EF:28:D6:3E,36,36,10960.006871266036,20666.452862042872,23975.05782021727
41240,-7946,22015,4353,14326,4355,12543,27584,-3044,28875,36,1,3071,2020-11-02 15:44:23,2020-11-02 15:44:53,0,DF:DC:EF:28:D6:3E,36,36,-12893.822833548345,4472.209275926967,-19506.317615823344
41241,22268,13567,-7419,26360,18178,-17155,-31297,-28644,-6965,36,1,3097,2020-11-02 15:44:23,2020-11-02 15:44:53,0,DF:DC:EF:28:D6:3E,36,36,5819.689916264598,11226.314959073976,-23980.615832755422
41242,11261,8189,-8956,-24324,-11518,-22789,9920,5404,23245,36,1,3122,2020-11-02 15:44:23,2020-11-02 15:44:53,0,DF:DC:EF:28:D6:3E,36,36,1691.2444213430813,-16340.420656647544,2051.858443236805
41243,-19976,-15110,23041,3839,13569,-28421,-23871,-29669,12751,36,1,3148,2020-11-02 15:44:23,2020-11-02 15:44:53,0,DF:DC:EF:28:D6:3E,36,36,19806.47639014991,-25109.038241415128,11639.589709160151
41244,-18703,-28680,8700,10751,-21765,-17667,17347,-22245,1489,36,1,3174,2020-11-02 15:44:23,2020-11-02 15:44:53,0,DF:DC:EF:28:D6:3E,36,36,20302.44517051721,27165.24073237993,9894.191480357993
41245,11501,32504,-13062,2301,-8710,-28417,-26940,21020,-16942,36,-1,3199,2020-11-02 15:44:23,2020-11-02 15:44:53,0,DF:DC:EF:28:D6:3E,36,36,-7538.052426821132,10828.741175214122,-34428.40384291316
41246,23276,-14343,-27140,9981,-3587,28415,11717,-17380,-9517,36,-1,3225,2020-11-02 15:44:23,2020-11-02 15:44:53,0,DF:DC:EF:28:D6:3E,36,36,13471.71359997531,35741.23212299663,5015.04576353136
41247,-22550,-28677,12540,-23041,21248,23039,-31803,-15844,28372,36,-1,3250,2020-11-02 15:44:23,2020-11-02 15:44:53,0,DF:DC:EF:28:D6:3E,36,36,-35620.66870712149,-10400.652355942459,-10541.29121257563
41248,13805,-2564,-29959,-4352,-15357,15616,5829,28700,-8237,36,-1,3276,2020-11-02 15:44:23,2020-11-02 15:44:53,0,DF:DC:EF:28:D6:3E,36,36,31667.676297011458,-5225.105663900367,8034.323291278203
41249,-9998,-26882,-17926,-20737,20741,10752,-5949,-15077,-26670,36,-1,3302,2020-11-02 15:44:23,2020-11-02 15:44:53,0,DF:DC:EF:28:D6:3E,36,36,27376.28020930245,13600.95624220824,-14473.999972339767
41250,8439,14592,-11268,32510,11267,30463,2243,10779,-10031,36,-1,3327,2020-11-02 15:44:23,2020-11-02 15:44:53,0,DF:DC:EF:28:D6:3E,36,36,9619.331330770268,12025.88203184353,-13189.300023316038
41251,-20488,-21247,5374,-8963,22528,-7426,-11582,-5350,-4143,36,-1,3353,2020-11-02 15:44:23,2020-11-02 15:44:53,0,DF:DC:EF:28:D6:3E,36,36,-20488.0,13728.436207878349,17083.469328160914
41252,-14346,-15102,-28418,12285,20733,-22530,6083,4123,-23086,36,-1,3379,2020-11-02 15:44:23,2020-11-02 15:44:53,0,DF:DC:EF:28:D6:3E,36,36,-2544.947975412031,-21154.117631501584,-28062.20574072965
41253,-5645,-25343,-19201,-2308,-30469,-28673,-30013,-29157,-24365,36,-1,3404,2020-11-02 15:44:23,2020-11-02 15:44:53,0,DF:DC:EF:28:D6:3E,36,36,11198.9993170216,-30137.041395216867,-3025.4297612627515
41254,31213,-32258,20480,-29186,-14856,-5889,30404,25884,-2092,36,-1,3430,2020-11-02 15:44:23,2020-11-02 15:44:53,0,DF:DC:EF:28:D6:3E,36,36,-48208.903818858365,10488.394366428323,-394.3465459938343
41255,-32029,-28165,-14081,2819,32757,16126,-21561,-28387,8408,36,-1,3455,2020-11-02 15:44:23,2020-11-02 15:44:53,0,DF:DC:EF:28:D6:3E,36,36,-3153.8582181756046,43016.93218784832,12529.778548949103
41256,-16166,-25607,18687,19978,27390,-3847,-24883,-6883,9181,36,1,3481,2020-11-02 15:44:23,2020-11-02 15:44:53,0,DF:DC:EF:28:D6:3E,36,36,7460.898178741827,16423.422982426026,-30673.574129970046
41257,-17446,25074,-28423,23316,23568,-12553,-24882,6940,-30501,36,1,3506,2020-11-02 15:44:23,2020-11-02 15:44:53,0,DF:DC:EF:28:D6:3E,36,36,1379.4188495244507,22716.79386456435,34971.128108090365
41258,14053,19436,-19,-32494,-2291,250,-3123,-31719,27351,36,1,3532,2020-11-02 15:44:23,2020-11-02 15:44:53,0,DF:DC:EF:28:D6:3E,36,36,12115.499765820165,-15707.274143912991,-13481.152413364885
41259,14831,26609,15596,-21247,27134,-28673,-6194,-17384,-2602,36,1,3558,2020-11-02 15:44:23,2020-11-02 15:44:53,0,DF:DC:EF:28:D6:3E,36,36,-12711.958226118179,27500.485535909283,15917.35126667344
41260,-8453,2298,-8712,-4364,-20742,5637,16846,30233,31191,36,1,3583,2020-11-02 15:44:23,2020-11-02 15:44:53,0,DF:DC:EF:28:D6:3E,36,36,4444.666547108283,9530.333071713381,-6484.647085788303
41261,14345,14592,15108,-14859,-11521,17925,-3381,22810,-10026,36,1,3609,2020-11-02 15:44:23,2020-11-02 15:44:53,0,DF:DC:EF:28:D6:3E,36,36,5757.619267223299,18040.142230004603,-16981.173154258326
41262,16143,-7937,-14072,15356,5890,-29440,-3127,28442,-15915,36,1,3634,2020-11-02 15:44:23,2020-11-02 15:44:53,0,DF:DC:EF:28:D6:3E,36,36,-7257.857649025119,3213.886537193119,21415.135714548633
41263,2825,-23809,23815,19713,-24577,-18949,22730,8986,17110,36,1,3660,2020-11-02 15:44:23,2020-11-02 15:44:53,0,DF:DC:EF:28:D6:3E,36,36,-9579.514314897338,-27632.868095912236,-16931.061315953964
41264,6393,-14593,-27392,-29691,-4867,-12551,-12084,-21991,18136,36,1,3686,2020-11-02 15:44:23,2020-11-02 15:44:53,0,DF:DC:EF:28:D6:3E,36,36,12370.006107396439,17261.73584848617,-23519.42147247806
41265,5359,26367,-9735,22534,29440,17404,207,10265,-24103,36,1,3711,2020-11-02 15:44:23,2020-11-02 15:44:53,0,DF:DC:EF:28:D6:3E,36,36,-16492.75791632209,-21242.828983892312,-9769.285955211857
41266,28143,16383,-11529,-17150,29956,23041,-562,-10728,-8488,36,1,3737,2020-11-02 15:44:23,2020-11-02 15:44:53,0,DF:DC:EF:28:D6:3E,36,36,27243.1539505713,-12106.784503815848,17452.372641094847
41267,-20239,8191,16379,11518,-5629,8708,14029,-10216,-4394,36,1,3762,2020-11-02 15:44:23,2020-11-02 15:44:53,0,DF:DC:EF:28:D6:3E,36,36,-11466.976407897386,-18302.041292135484,-16689.06766723931
41268,7410,-2,28414,23036,26883,17414,-17718,5401,-19756,36,-1,3788,2020-11-02 15:44:23,2020-11-02 15:44:53,0,DF:DC:EF:28:D6:3E,36,36,-6769.704246752852,-5017.315412922406,-28129.364558388937
41269,14322,-10245,-27905,-15620,26623,-13817,5576,-20967,25298,36,-1,3814,2020-11-02 15:44:23,2020-11-02 15:44:53,0,DF:DC:EF:28:D6:3E,36,36,-1059.6611056638426,14446.78037028256,29646.86137306885
41270,29167,9721,8957,-29187,18681,10246,31430,-9958,5329,36,-1,3839,2020-11-02 15:44:23,2020-11-02 15:44:53,0,DF:DC:EF:28:D6:3E,36,36,21464.962186175057,11346.564833045753,20879.42632917783
41271,7914,-30727,24058,11774,-3848,24578,-23866,10012,-28463,36,-1,3865,2020-11-02 15:44:23,2020-11-02 15:44:53,0,DF:DC:EF:28:D6:3E,36,36,17223.924182796385,-22814.36157365107,-27720.184536398665
41272,-5402,16885,31483,12287,-17668,-29440,20423,-12260,31186,36,-1,3891,2020-11-02 15:44:23,2020-11-02 15:44:53,0,DF:DC:EF:28:D6:3E,36,36,-12227.465938103855,-33256.77900202819,7066.812940977486
41273,23013,-17675,12027,-32768,-8964,-15362,-19768,7965,-6701,36,-1,3919,2020-11-02 15:44:23,2020-11-02 15:44:53,0,DF:DC:EF:28:D6:3E,36,36,18591.14148523785,6573.100913120281,-24450.28273173555
41274,3304,-3081,-25096,25089,-23299,-2307,-13878,16669,-7467,36,-1,3942,2020-11-02 15:44:23,2020-11-02 15:44:53,0,DF:DC:EF:28:D6:3E,36,36,-12358.846103773,-20614.328862225277,-8516.252787657315
41275,12524,28410,10232,10240,-14593,-8195,8908,6685,9687,36,-1,3967,2020-11-02 15:44:23,2020-11-02 15:44:53,0,DF:DC:EF:28:D6:3E,36,36,11366.912371547034,30177.521294253762,5364.980118549534
41276,23281,-1028,-31749,20734,24833,5887,8396,-10980,19927,36,-1,3993,2020-11-02 15:44:23,2020-11-02 15:44:53,0,DF:DC:EF:28:D6:3E,36,36,-31155.45841808282,-21983.775693148986,9854.530076691848
41277,6134,-22018,14847,-9731,11777,-24321,29643,-24292,-4138,36,-1,4019,2020-11-02 15:44:23,2020-11-02 15:44:53,0,DF:DC:EF:28:D6:3E,36,36,15156.669448542601,7991.474706394301,-21195.83431348423
41278,7673,3328,-15616,-9218,-16384,-4865,-1078,-30948,-19242,36,-1,4044,2020-11-02 15:44:23,2020-11-02 15:44:53,0,DF:DC:EF:28:D6:3E,36,36,13139.592666993669,-1488.6381280577261,-11787.494647684001
41279,15099,-29952,9985,7168,-17152,26368,-26934,31260,22998,36,-1,4070,2020-11-02 15:44:23,2020-11-02 15:44:53,0,DF:DC:EF:28:D6:3E,36,36,-12000.72908104445,-32285.85402948422,6197.456019223654
41280,22267,-1537,18944,9473,12800,-21248,22730,-32228,-1323,36,-1,4095,2020-11-02 15:44:23,2020-11-02 15:44:53,0,DF:DC:EF:28:D6:3E,36,36,-11875.75272310443,-1151.7589654112398,-26733.812719948357
41281,2040,21502,26110,31233,9215,27392,29386,-26340,-9771,36,-1,4121,2020-11-02 15:44:23,2020-11-02 15:44:53,0,DF:DC:EF:28:D6:3E,36,36,20077.704934825266,26359.337771493436,7092.3043362797525
41282,-4370,-27397,-10246,-27648,19963,12032,-29237,-4580,-10538,36,1,4147,2020-11-02 15:44:23,2020-11-02 15:44:53,0,DF:DC:EF:28:D6:3E,36,36,-633.0382083473305,4786.817453066271,-29178.051105202223
41283,4324,-11783,18422,10237,-16904,31489,-3123,-20451,-31271,36,1,4172,2020-11-02 15:44:23,2020-11-02 15:44:53,0,DF:DC:EF:28:D6:3E,36,36,9347.283983489999,-9940.212797334658,-17627.43885752254
41284,7648,-11271,19959,-31752,-13574,-32509,14799,-28130,-18213,36,1,4198,2020-11-02 15:44:23,2020-11-02 15:44:53,0,DF:DC:EF:28:D6:3E,36,36,16951.421243811175,16010.688065084316,6340.0482251662625
41285,25568,-18440,13053,9462,-6916,-8190,-23346,19231,-28452,36,1,4223,2020-11-02 15:44:23,2020-11-02 15:44:53,0,DF:DC:EF:28:D6:3E,36,36,16973.625572158624,-22979.383727569242,18654.248616261346
41286,-5920,-3848,28416,-30728,-23812,-6400,-12082,-14305,6366,36,1,4249,2020-11-02 15:44:23,2020-11-02 15:44:53,0,DF:DC:EF:28:D6:3E,36,36,-17668.170754023908,23269.705731438713,-1918.097333010688
41287,14815,6648,4606,-23299,-27140,21502,-12079,-1761,-12575,36,1,4275,2020-11-02 15:44:23,2020-11-02 15:44:53,0,DF:DC:EF:28:D6:3E,36,36,-4872.48561900057,-14062.868920867279,-7961.78162267327
41288,-4640,28151,22523,-25600,32256,8701,30676,-19937,-30236,36,1,4300,2020-11-02 15:44:23,2020-11-02 15:44:53,0,DF:DC:EF:28:D6:3E,36,36,-26240.195658787896,15584.964294312855,19744.74486372316
41289,25584,-19720,-20227,-25343,-8184,16894,-3120,-2274,-14368,36,1,4326,2020-11-02 15:44:23,2020-11-02 15:44:53,0,DF:DC:EF:28:D6:3E,36,36,-28578.045923224534,-15057.049751198592,-20227.0
41290,12545,-26117,-22783,-13054,30987,-2563,11212,-20963,-31525,36,1,4351,2020-11-02 15:44:23,2020-11-02 15:44:53,0,DF:DC:EF:28:D6:3E,36,36,-7002.739601637448,-5834.189234396464,35713.63432988739
41291,8970,8188,-6911,18435,-4606,-15366,14795,-30948,1498,36,1,4377,2020-11-02 15:44:23,2020-11-02 15:44:53,0,DF:DC:EF:28:D6:3E,36,36,12441.8122936925,2876.7442191442838,-5673.783089451176
41292,-14840,-8961,15618,-13311,-22276,15096,13518,-5861,-16932,36,1,4403,2020-11-02 15:44:23,2020-11-02 15:44:53,0,DF:DC:EF:28:D6:3E,36,36,-11314.977159829095,441.2764382982323,-20401.559057521776
41293,30980,-8960,29701,-22782,-21506,-26633,24017,2843,-14113,36,1,4428,2020-11-02 15:44:23,2020-11-02 15:44:53,0,DF:DC:EF:28:D6:3E,36,36,12872.202345924372,-39961.3209205937,-12632.9188253111
41294,-23810,27648,-26108,14087,26878,24056,-1581,2586,-19999,36,-1,4454,2020-11-02 15:44:23,2020-11-02 15:44:53,0,DF:DC:EF:28:D6:3E,36,36,27473.407326895813,-24011.245154103675,-26108.0
41295,-14857,-770,-1538,-20983,-25860,-24326,-4394,18713,27619,36,-1,4479,2020-11-02 15:44:23,2020-11-02 15:44:53,0,DF:DC:EF:28:D6:3E,36,36,-10054.868004015294,-10463.728210785599,3619.2284195169323
41296,-26126,-9730,1019,-4601,-29955,12797,31449,-10984,-16412,36,-1,4505,2020-11-02 15:44:23,2020-11-02 15:44:53,0,DF:DC:EF:28:D6:3E,36,36,7621.599199622631,20937.777255461442,-16786.895074461907
41297,-26639,-31490,-13318,-8444,-32767,16127,28634,-23528,-14108,36,-1,4531,2020-11-02 15:44:23,2020-11-02 15:44:53,0,DF:DC:EF:28:D6:3E,36,36,-7941.9451629045225,-42594.89856075327,-1107.0991954456895
41298,-16653,4608,-29956,2051,-15357,25601,4058,-19176,-16413,36,-1,4556,2020-11-02 15:44:23,2020-11-02 15:44:53,0,DF:DC:EF:28:D6:3E,36,36,-4429.913169709692,-20752.5514742196,27306.14373394197
41299,6135,-23808,13566,19714,24838,17155,-21288,-232,-14111,36,-1,4582,2020-11-02 15:44:23,2020-11-02 15:44:53,0,DF:DC:EF:28:D6:3E,36,36,20619.63426323301,-16183.698683472243,-10070.453056992324
41300,31735,-5889,5887,2306,15111,-20988,27350,24857,-5154,36,-1,4607,2020-11-02 15:44:23,2020-11-02 15:44:53,0,DF:DC:EF:28:D6:3E,36,36,-21204.12915872026,8304.603573143584,23619.182481898897
41301,32754,-11779,-21252,6145,-2813,-1531,16596,-5863,18652,36,-1,4633,2020-11-02 15:44:23,2020-11-02 15:44:53,0,DF:DC:EF:28:D6:3E,36,36,-22493.779947749994,-21264.666315507653,26552.97895062463
41302,12780,2296,17146,-22274,14591,-15866,-12846,-14566,-15142,36,-1,4659,2020-11-02 15:44:23,2020-11-02 15:44:53,0,DF:DC:EF:28:D6:3E,36,36,12031.099843957805,-8880.260737554761,15458.943617781968
41303,6631,25588,-30727,5372,-9475,18692,2258,-21733,28634,36,-1,4684,2020-11-02 15:44:23,2020-11-02 15:44:53,0,DF:DC:EF:28:D6:3E,36,36,20821.67160364031,-15038.939660873571,31355.266216486863
41304,-18465,25581,-17668,-28932,-24063,-2556,17872,8220,14297,36,-1,4710,2020-11-02 15:44:23,2020-11-02 15:44:53,0,DF:DC:EF:28:D6:3E,36,36,17523.445992423127,16575.075904304562,26938.77705682224
41305,-25890,20468,6903,5376,1531,27908,27855,-4836,-29224,36,-1,4735,2020-11-02 15:44:23,2020-11-02 15:44:53,0,DF:DC:EF:28:D6:3E,36,36,475.60114724637515,-27139.692620649366,-20002.335388784188
41306,16348,19191,-27151,-9216,-4353,-20483,14545,16413,15322,36,-1,4761,2020-11-02 15:44:23,2020-11-02 15:44:53,0,DF:DC:EF:28:D6:3E,36,36,-23234.73012710301,10633.794212429955,-26829.05370243951
41307,-29468,-11271,-17417,-22020,28426,9981,-20274,13852,-8233,36,-1,4787,2020-11-02 15:44:23,2020-11-02 15:44:53,0,DF:DC:EF:28:D6:3E,36,36,23199.497892995387,-20028.39146295182,18957.77378596077
41308,-11026,25086,3070,9978,29192,4098,-30262,12315,18644,36,-1,4812,2020-11-02 15:44:23,2020-11-02 15:44:53,0,DF:DC:EF:28:D6:3E,36,36,-27569.977999694365,-284.220885262921,-347.1362625094306
41309,32247,24576,-32511,-15880,-28669,3589,-10042,-742,29393,36,1,4838,2020-11-02 15:44:23,2020-11-02 15:44:53,0,DF:DC:EF:28:D6:3E,36,36,-4353.050774748586,-34915.99574737997,-38245.75918871796
41310,-8709,19457,14339,1786,20482,-10236,-30525,4123,719,36,1,4889,2020-11-02 15:44:23,2020-11-02 15:44:53,0,DF:DC:EF:28:D6:3E,36,36,-8709.0,-8230.800031836749,22725.221689477883
41311,-28932,26881,-14333,7678,-20222,4612,-832,-486,-7220,36,1,4891,2020-11-02 15:44:23,2020-11-02 15:44:53,0,DF:DC:EF:28:D6:3E,36,36,6987.555229244044,38869.30481650353,-14333.0
41312,4604,20224,-13825,12801,-8445,9476,7871,-19942,-9782,36,1,4915,2020-11-02 15:44:23,2020-11-02 15:44:53,0,DF:DC:EF:28:D6:3E,36,36,15793.24462861827,17158.640611379393,-8802.959358655593
41313,24571,7423,11772,-10752,-25597,-8701,-30531,15642,-4664,36,1,4943,2020-11-02 15:44:23,2020-11-02 15:44:53,0,DF:DC:EF:28:D6:3E,36,36,-716.287800053693,-9182.832158640937,-26694.146911518335
41314,31224,11007,9210,17150,30721,11011,7100,-5095,31943,36,1,4966,2020-11-02 15:44:23,2020-11-02 15:44:53,0,DF:DC:EF:28:D6:3E,36,36,7128.280762066879,-30452.84916861139,14238.255366826084
41315,16115,-21505,30201,-1029,-26115,2051,-27718,3354,22982,36,1,4992,2020-11-02 15:44:23,2020-11-02 15:44:53,0,DF:DC:EF:28:D6:3E,36,36,-17193.015663926162,-6444.078895223771,-36015.72865529894
41316,23019,32767,-8202,1019,28153,9731,21317,-10726,5573,36,1,5017,2020-11-02 15:44:23,2020-11-02 15:44:53,0,DF:DC:EF:28:D6:3E,36,36,1713.514432259898,-31281.617829999763,26255.431975655585
41317,29413,17408,-22539,23290,14842,-10495,14915,-13285,-17469,36,1,5043,2020-11-02 15:44:23,2020-11-02 15:44:53,0,DF:DC:EF:28:D6:3E,36,36,36680.23299899536,-8155.673728721187,16254.693081386042
41318,7139,30719,9975,1530,-4355,31744,-20159,17180,3523,36,1,5068,2020-11-02 15:44:23,2020-11-02 15:44:53,0,DF:DC:EF:28:D6:3E,36,36,-15892.207552081105,-29003.907422671906,-577.9276240617646
41319,-2078,-2563,7162,-4359,-3332,19200,25664,-26084,-22590,36,1,5094,2020-11-02 15:44:23,2020-11-02 15:44:53,0,DF:DC:EF:28:D6:3E,36,36,1710.8083011015738,-6923.364383027983,3364.7373711333667
41320,-26399,-28676,14333,-6918,29177,-17666,2623,26653,9154,36,-1,5119,2020-11-02 15:44:23,2020-11-02 15:44:53,0,DF:DC:EF:28:D6:3E,36,36,27592.434625594622,-10101.320692281764,-29347.503091472143
41321,32224,18426,3838,-12035,-30217,-27141,-6594,-16098,-31550,36,-1,5145,2020-11-02 15:44:23,2020-11-02 15:44:53,0,DF:DC:EF:28:D6:3E,36,36,-12983.101032026534,2592.3976662729833,34890.57835479506
41322,29156,3065,-15107,28928,-31235,4601,4419,-10721,-11578,36,-1,5171,2020-11-02 15:44:23,2020-11-02 15:44:53,0,DF:DC:EF:28:D6:3E,36,36,-9058.688090141079,-27158.78333848971,16371.581098309041
41323,-3088,-8456,7168,32257,21764,5369,-8259,31263,9934,36,-1,5196,2020-11-02 15:44:23,2020-11-02 15:44:53,0,DF:DC:EF:28:D6:3E,36,36,-7397.40897808115,-8813.283314568767,155.82563379681756
41324,-9730,-4614,-19198,13058,17151,4347,-31806,-6626,-27950,36,-1,5222,2020-11-02 15:44:23,2020-11-02 15:44:53,0,DF:DC:EF:28:D6:3E,36,36,-14934.329359758802,-8870.694964296983,-13520.417058088198
41325,-7421,31228,8703,-30206,-13068,-11014,-10807,29727,-25895,36,-1,5247,2020-11-02 15:44:23,2020-11-02 15:44:53,0,DF:DC:EF:28:D6:3E,36,36,-30458.77190393449,-1751.1190670054557,-13236.246828964053
41326,13826,19966,2301,-26369,245,-28423,-11562,-23777,-25882,36,-1,5273,2020-11-02 15:44:23,2020-11-02 15:44:53,0,DF:DC:EF:28:D6:3E,36,36,20066.414142101683,-13722.795800254778,2029.2688097370005
41327,-18429,-2817,18430,24318,-12804,-14855,31196,-12002,-29716,36,-1,5299,2020-11-02 15:44:23,2020-11-02 15:44:53,0,DF:DC:EF:28:D6:3E,36,36,-16050.537364914904,5226.809144708215,-20057.147017017778
41328,10242,-30720,-1792,4608,24319,-16136,10205,-14051,24045,36,-1,5324,2020-11-02 15:44:23,2020-11-02 15:44:53,0,DF:DC:EF:28:D6:3E,36,36,-24573.911507504148,-5365.961825233972,20473.33765929451
41329,-26628,-2302,-15363,27138,-17154,27896,-7715,-25316,-8723,36,-1,5350,2020-11-02 15:44:23,2020-11-02 15:44:53,0,DF:DC:EF:28:D6:3E,36,36,-5122.740346666767,-18250.259486573104,24311.662160645883
41330,-6411,-28159,1536,8452,-1536,4860,22238,-16101,-12307,36,-1,5375,2020-11-02 15:44:23,2020-11-02 15:44:53,0,DF:DC:EF:28:D6:3E,36,36,21962.222120577477,-18479.646226760735,-3543.0174795200774
41331,14580,28926,27134,-18427,-16382,-16897,8670,-26853,-16660,36,1,5401,2020-11-02 15:44:23,2020-11-02 15:44:53,0,DF:DC:EF:28:D6:3E,36,36,-14867.362685287595,-15175.329659066418,-36526.90417381108
41332,-8463,-29185,-25348,8965,-3580,9984,14813,-23013,-6678,36,1,5427,2020-11-02 15:44:23,2020-11-02 15:44:53,0,DF:DC:EF:28:D6:3E,36,36,26065.583137534297,24543.083646785144,16856.159669604323
41333,10995,22017,24573,5635,25608,-22528,-22054,-20709,-29209,36,1,5452,2020-11-02 15:44:23,2020-11-02 15:44:53,0,DF:DC:EF:28:D6:3E,36,36,15586.594631954304,-11924.60278820018,28711.192227470834
41334,-6923,-23296,-22527,-23295,10505,15875,-15914,-14565,5603,36,1,5478,2020-11-02 15:44:23,2020-11-02 15:44:53,0,DF:DC:EF:28:D6:3E,36,36,-24904.901252304335,-10789.186429899903,-19011.48662766365
41335,21494,-7680,2819,27393,-5116,-8443,17363,9244,10719,36,1,5503,2020-11-02 15:44:23,2020-11-02 15:44:53,0,DF:DC:EF:28:D6:3E,36,36,-1549.9796261607817,10921.778649882563,-20180.02753420956
41336,27122,-13829,3076,22274,-22528,21768,-4144,2077,28380,36,1,5529,2020-11-02 15:44:23,2020-11-02 15:44:53,0,DF:DC:EF:28:D6:3E,36,36,-28193.94399267622,-11486.75964481874,3076.0
41337,-12821,10233,17920,-22269,5886,11783,32463,9758,27866,36,1,5555,2020-11-02 15:44:23,2020-11-02 15:44:53,0,DF:DC:EF:28:D6:3E,36,36,22330.84820352814,-4875.128282940717,8233.169057893538
41338,14568,24565,9730,5124,-25345,3332,-23346,-7650,-2856,36,1,5580,2020-11-02 15:44:23,2020-11-02 15:44:53,0,DF:DC:EF:28:D6:3E,36,36,-2420.8242051125653,-23420.44382586077,18866.93324755354
41339,-21791,15091,-14592,27656,11259,2304,-11056,20767,10458,36,1,5606,2020-11-02 15:44:23,2020-11-02 15:44:53,0,DF:DC:EF:28:D6:3E,36,36,13557.62452238314,13480.055640965897,23451.894235360585
41340,-11817,5878,-26119,2315,-28676,-22277,6104,10783,-4385,36,1,5631,2020-11-02 15:44:23,2020-11-02 15:44:53,0,DF:DC:EF:28:D6:3E,36,36,-14097.666541461747,25154.277606090374,4991.257376802996
41341,26846,19958,-5384,-19447,-14325,22013,-10539,24862,-549,36,1,5657,2020-11-02 15:44:23,2020-11-02 15:44:53,0,DF:DC:EF:28:D6:3E,36,36,-2636.3874876951427,6252.87363831062,33195.90288391091
41342,31724,-1032,22782,-19450,11021,-23042,-25905,11549,22484,36,1,5683,2020-11-02 15:44:23,2020-11-02 15:44:53,0,DF:DC:EF:28:D6:3E,36,36,29515.84138072608,12527.002477714097,-22324.5613733207
41343,32752,6397,-12032,32516,32259,-12289,-21555,27932,31185,36,1,5708,2020-11-02 15:44:23,2020-11-02 15:44:53,0,DF:DC:EF:28:D6:3E,36,36,-16137.077509483399,26240.005857953125,17590.934000999223
41344,8948,9215,-5886,10756,4864,31233,-19763,29724,-9264,36,1,5734,2020-11-02 15:44:23,2020-11-02 15:44:53,0,DF:DC:EF:28:D6:3E,36,36,-9349.419147270784,-3861.076037841037,9864.500921924848
41345,-12809,2048,-18429,-15610,17407,32257,18382,-17892,-27952,36,1,5760,2020-11-02 15:44:23,2020-11-02 15:44:53,0,DF:DC:EF:28:D6:3E,36,36,-7012.950694404645,7242.8192341942195,-20155.716759734336
41346,6391,21503,14850,-16886,511,-14592,-10033,-2276,-16688,36,1,5785,2020-11-02 15:44:23,2020-11-02 15:44:53,0,DF:DC:EF:28:D6:3E,36,36,19267.17153577422,-15846.269942855435,-10070.661344182323
41347,24053,8191,12287,-8692,-14081,26113,-16431,10781,-14640,36,-1,5811,2020-11-02 15:44:23,2020-11-02 15:44:53,0,DF:DC:EF:28:D6:3E,36,36,6050.118231308707,-5436.835287039484,-27026.77469563818
41348,11509,9215,-4867,-17652,-18944,-25341,-10286,-31971,-7729,36,-1,5836,2020-11-02 15:44:23,2020-11-02 15:44:53,0,DF:DC:EF:28:D6:3E,36,36,-2872.6412754497487,6108.97031665254,-13981.752707469856
41349,-29705,-6659,764,-8693,-8449,261,14803,8734,22222,36,-1,5862,2020-11-02 15:44:23,2020-11-02 15:44:53,0,DF:DC:EF:28:D6:3E,36,36,20905.022439762153,-5077.3470535627885,21552.57724010561
41350,-22283,12797,-22278,-28919,29693,3845,25556,-5090,-7475,36,-1,5888,2020-11-02 15:44:23,2020-11-02 15:44:53,0,DF:DC:EF:28:D6:3E,36,36,-33265.42912817015,5121.521732969024,4877.071053143991
41351,-5134,32509,-25865,29191,1789,-12028,-28458,-14561,-11826,36,-1,5913,2020-11-02 15:44:23,2020-11-02 15:44:53,0,DF:DC:EF:28:D6:3E,36,36,13295.393042695683,33075.03362533819,-21942.332066646595
41352,-5395,-25090,-25868,10245,12031,-32253,-5417,28960,16079,36,-1,5939,2020-11-02 15:44:23,2020-11-02 15:44:53,0,DF:DC:EF:28:D6:3E,36,36,13128.41501546985,31605.108709371827,-12511.169875370368
41353,13291,-16130,-21518,-24831,-28927,26626,-14891,-12768,-25396,36,-1,5967,2020-11-02 15:44:23,2020-11-02 15:44:53,0,DF:DC:EF:28:D6:3E,36,36,27382.765615410455,-12039.483807472518,2255.4116921532946
41354,13035,27648,15859,15101,-13822,25089,-17968,-8160,-19513,36,-1,5990,2020-11-02 15:44:23,2020-11-02 15:44:53,0,DF:DC:EF:28:D6:3E,36,36,-26848.595606644933,21560.17988325855,377.5809216309299
41355,31471,11007,12790,4601,29442,32512,17867,-20704,1987,36,-1,6016,2020-11-02 15:44:23,2020-11-02 15:44:53,0,DF:DC:EF:28:D6:3E,36,36,-29588.394576950195,-12701.772313166806,15438.713562443383
41356,-3343,24316,-17415,20725,1280,2302,-29239,30240,-18238,36,-1,6041,2020-11-02 15:44:23,2020-11-02 15:44:53,0,DF:DC:EF:28:D6:3E,36,36,21714.841147246814,-20740.356576208538,2007.240155427296
41357,-21264,-25865,25340,5362,5629,4346,-19764,10528,-9785,36,-1,6067,2020-11-02 15:44:23,2020-11-02 15:44:53,0,DF:DC:EF:28:D6:3E,36,36,8602.389876271061,40613.329259556325,6310.934627414199
41358,-16403,-30736,26367,31728,2043,17395,28371,12831,-2096,36,-1,6092,2020-11-02 15:44:23,2020-11-02 15:44:53,0,DF:DC:EF:28:D6:3E,36,36,12305.901262120173,40045.00172464812,12407.313367521525
41359,-2588,20203,-12284,-14607,30203,-13076,-18217,-8164,-17193,36,-1,6118,2020-11-02 15:44:23,2020-11-02 15:44:53,0,DF:DC:EF:28:D6:3E,36,36,6072.871150389558,22819.708524147973,2852.498530007431
41360,-27676,29677,24070,-266,-14593,14062,-9256,-231,-18726,36,1,6144,2020-11-02 15:44:23,2020-11-02 15:44:53,0,DF:DC:EF:28:D6:3E,36,36,32520.10217648882,-32019.96092210259,-11967.257913897822
41361,6383,-5392,20484,5372,-23039,-15117,-22056,-14569,26587,36,1,6169,2020-11-02 15:44:23,2020-11-02 15:44:53,0,DF:DC:EF:28:D6:3E,36,36,-3636.918114771085,-16799.935225786583,13926.435726194442
41362,3321,757,25604,27387,-4609,24052,29400,1046,-10021,36,1,6195,2020-11-02 15:44:23,2020-11-02 15:44:53,0,DF:DC:EF:28:D6:3E,36,36,22635.080580187794,10587.15795532801,6536.980920680449
41363,-6662,-27910,4867,9466,-15364,-26383,-22056,4884,7133,36,1,6220,2020-11-02 15:44:23,2020-11-02 15:44:53,0,DF:DC:EF:28:D6:3E,36,36,-27427.866799702202,9694.142548225323,-879.6340560034737
41364,-31753,21250,-23038,20473,-24324,-12303,-14632,-1775,-29986,36,1,6246,2020-11-02 15:44:23,2020-11-02 15:44:53,0,DF:DC:EF:28:D6:3E,36,36,19560.68095813046,-38899.44857516088,-9735.379499672668
41365,-27659,-18939,-4348,26106,-4868,14328,-25640,-31216,-22305,36,1,6272,2020-11-02 15:44:23,2020-11-02 15:44:53,0,DF:DC:EF:28:D6:3E,36,36,20887.400715924854,-12850.909144706846,23263.312994646138
41366,14327,-2556,18948,-21250,5116,511,-19752,12560,32480,36,1,6297,2020-11-02 15:44:23,2020-11-02 15:44:53,0,DF:DC:EF:28:D6:3E,36,36,-1446.0156516670029,23235.32208987327,-5371.369947693181
41367,-28940,-21503,24320,-25598,-8200,26624,-22823,28176,-23327,36,1,6323,2020-11-02 15:44:23,2020-11-02 15:44:53,0,DF:DC:EF:28:D6:3E,36,36,-41481.75109177001,10209.914504728384,-8147.820639077316
41368,-3601,-1792,18938,-11773,506,-15616,11739,-20464,6627,36,1,6348,2020-11-02 15:44:23,2020-11-02 15:44:53,0,DF:DC:EF:28:D6:3E,36,36,16514.15242188329,-4772.06817076159,8907.10077187917
41369,-4882,-8704,-9224,-9982,29184,-5117,-6181,10769,31715,36,1,6374,2020-11-02 15:44:23,2020-11-02 15:44:53,0,DF:DC:EF:28:D6:3E,36,36,-12142.120200153739,-2894.801882028488,5372.592959532938
41370,14835,-20225,-27398,-16895,-19451,-10745,-31781,12050,-31774,36,1,6400,2020-11-02 15:44:23,2020-11-02 15:44:53,0,DF:DC:EF:28:D6:3E,36,36,-28450.247827672058,-23782.139571735766,-2184.374037229255
41371,25334,-11011,-3845,-4608,25606,-29687,27610,-31981,-11552,36,-1,6425,2020-11-02 15:44:23,2020-11-02 15:44:53,0,DF:DC:EF:28:D6:3E,36,36,-3420.3622970414,-17776.155675626673,-21216.67064251277
41372,21493,-12039,6651,-9985,-3070,-20470,17881,-748,20447,36,-1,6451,2020-11-02 15:44:23,2020-11-02 15:44:53,0,DF:DC:EF:28:D6:3E,36,36,-22827.3966090976,-7836.956468000623,-8283.383871922304
41373,5104,12274,18938,-10754,17661,-13557,-14376,-19690,-8482,36,-1,6476,2020-11-02 15:44:23,2020-11-02 15:44:53,0,DF:DC:EF:28:D6:3E,36,36,8914.084074000582,8535.120511147556,19571.42199692801
41374,-790,17900,-16390,16381,29179,-16372,3545,-23016,-28961,36,-1,6502,2020-11-02 15:44:23,2020-11-02 15:44:53,0,DF:DC:EF:28:D6:3E,36,36,-20536.811207788163,-6321.768932272968,11311.092917247863
41375,30953,-2334,17922,3837,-32002,24075,-23336,30746,-23073,36,-1,6528,2020-11-02 15:44:23,2020-11-02 15:44:53,0,DF:DC:EF:28:D6:3E,36,36,-5078.680163749846,24296.677002105334,25857.53939279025
41376,17899,-14615,7169,-30207,10236,29444,2777,-27365,7904,36,-1,6553,2020-11-02 15:44:23,2020-11-02 15:44:53,0,DF:DC:EF:28:D6:3E,36,36,8908.214717084289,-13175.949300635173,-18231.97898148784
41377,25061,6127,-5382,-29181,24063,22012,8667,28443,-13087,36,-1,6579,2020-11-02 15:44:23,2020-11-02 15:44:53,0,DF:DC:EF:28:D6:3E,36,36,14652.996461865543,13179.729912830035,17496.976542060318
41378,6377,30708,-11270,3839,-29687,7676,5337,-23014,27615,36,-1,6604,2020-11-02 15:44:23,2020-11-02 15:44:53,0,DF:DC:EF:28:D6:3E,36,36,31539.49788783985,-10462.626849609605,2540.434094554248
41379,29938,-27912,-14336,-5127,-28919,-8706,-3884,-7399,-24357,36,-1,6630,2020-11-02 15:44:23,2020-11-02 15:44:53,0,DF:DC:EF:28:D6:3E,36,36,2665.6954030633506,39615.769573361904,17446.184486253154
41380,-5384,23036,-31484,-1545,-4607,11520,22226,-27879,1498,36,-1,6656,2020-11-02 15:44:23,2020-11-02 15:44:53,0,DF:DC:EF:28:D6:3E,36,36,29568.18074114372,-18362.444817931,-18423.634711085007
41381,249,20734,16645,4857,6911,-9728,16081,-21479,5082,36,-1,6681,2020-11-02 15:44:23,2020-11-02 15:44:53,0,DF:DC:EF:28:D6:3E,36,36,-1929.5912550709977,-23763.64417848192,-11772.11429382402
41382,30968,-5634,-6398,-2821,28672,-25598,18896,-1767,-7463,36,-1,6707,2020-11-02 15:44:23,2020-11-02 15:44:53,0,DF:DC:EF:28:D6:3E,36,36,22185.237501803316,-22557.242453079547,5538.901867840358
41383,-8456,-4611,-24321,-18947,-12798,-6654,-15154,12826,-19752,36,-1,6732,2020-11-02 15:44:23,2020-11-02 15:44:53,0,DF:DC:EF:28:D6:3E,36,36,-19219.124223705905,17660.70626716273,1732.3441398174873
41384,-5385,-15107,-21251,-5892,24836,11523,-27444,12314,-16170,36,-1,6758,2020-11-02 15:44:23,2020-11-02 15:44:53,0,DF:DC:EF:28:D6:3E,36,36,21740.49034882208,-14871.750864221196,3873.8586222666936
41385,15092,3838,-15620,-12294,24066,5124,5578,13338,-15404,36,-1,6784,2020-11-02 15:44:23,2020-11-02 15:44:53,0,DF:DC:EF:28:D6:3E,36,36,12014.116249475072,17028.616749870504,-7222.903178786824
41386,-31506,-5891,27900,-30727,2046,25606,-25145,-15590,6867,36,-1,6809,2020-11-02 15:44:23,2020-11-02 15:44:53,0,DF:DC:EF:28:D6:3E,36,36,32761.213676724183,19069.760716486573,-19203.88037985985
41387,-1048,27644,30970,-23559,-32519,-7673,965,540,24785,36,-1,6835,2020-11-02 15:44:23,2020-11-02 15:44:53,0,DF:DC:EF:28:D6:3E,36,36,21606.066694957433,-17276.19524007098,30970.0
41388,24291,25597,-3335,30457,-20742,26630,10690,24605,28623,36,-1,6860,2020-11-02 15:44:23,2020-11-02 15:44:53,0,DF:DC:EF:28:D6:3E,36,36,32732.409393560425,12446.45398374299,5482.378454915808
41389,14050,7421,14076,762,18430,8708,-10818,3102,-564,36,-1,6886,2020-11-02 15:44:23,2020-11-02 15:44:53,0,DF:DC:EF:28:D6:3E,36,36,14050.0,15854.128994003417,1360.739079140536
41390,-28958,-10245,4095,-19206,-5124,-11775,27580,28702,25547,36,-1,6912,2020-11-02 15:44:23,2020-11-02 15:44:53,0,DF:DC:EF:28:D6:3E,36,36,15964.710206949267,3498.0030929278673,-26328.44120661147
41391,8675,20474,-30208,-29700,23544,6143,17340,22815,-6197,36,1,6937,2020-11-02 15:44:23,2020-11-02 15:44:53,0,DF:DC:EF:28:D6:3E,36,36,-15608.39513283081,-5315.804720870603,-33691.004534548876
41392,31714,-5387,26623,2559,5109,-1542,32706,-18656,30930,36,1,6963,2020-11-02 15:44:23,2020-11-02 15:44:53,0,DF:DC:EF:28:D6:3E,36,36,13600.352093782993,38636.25666803226,-8114.911435565068
41393,31715,-28684,20479,26880,22007,-5385,-11051,-2016,-6171,36,1,6991,2020-11-02 15:44:23,2020-11-02 15:44:53,0,DF:DC:EF:28:D6:3E,36,36,18595.17946789859,-25750.123351441754,35201.604650103334
41394,3057,20727,9729,-20222,257,17401,-31013,-9441,24299,36,1,7014,2020-11-02 15:44:23,2020-11-02 15:44:53,0,DF:DC:EF:28:D6:3E,36,36,8759.431264642782,15419.820934448313,14802.32094198569
41395,-32767,-30470,23809,-21499,-32513,-23557,20699,1567,29674,36,1,7040,2020-11-02 15:44:23,2020-11-02 15:44:53,0,DF:DC:EF:28:D6:3E,36,36,16409.34549072213,39024.677748475275,-27870.657997144157
41396,23046,13052,5627,11269,-11017,27900,15072,23070,-29458,36,1,7091,2020-11-02 15:44:23,2020-11-02 15:44:53,0,DF:DC:EF:28:D6:3E,36,36,3796.729534594138,-24350.757239738192,11214.339735021345
41397,1547,-2,-24582,-9473,-10759,-7683,-18972,-23267,-11534,36,1,7093,2020-11-02 15:44:23,2020-11-02 15:44:53,0,DF:DC:EF:28:D6:3E,36,36,-10396.251981419437,-14384.954051004763,-17078.026194186314
41398,-32498,-32514,12545,30205,19195,15101,22246,4381,-11020,36,1,7116,2020-11-02 15:44:23,2020-11-02 15:44:53,0,DF:DC:EF:28:D6:3E,36,36,8037.343518398237,43781.18307246854,-17007.83181191111
41399,-16635,-8707,9473,30460,27641,-6411,6887,-20709,9462,36,1,7142,2020-11-02 15:44:23,2020-11-02 15:44:53,0,DF:DC:EF:28:D6:3E,36,36,19732.573186120608,7271.338531726537,-161.22782459325845
41400,-16654,769,-6397,16636,17147,-24590,-29210,-29927,10230,36,1,7168,2020-11-02 15:44:23,2020-11-02 15:44:53,0,DF:DC:EF:28:D6:3E,36,36,-8455.88029086608,-1412.1781488707052,15664.371273127905
41401,-27158,14849,-15869,-5378,-22020,26616,-5403,-7145,-13835,36,-1,7193,2020-11-02 15:44:23,2020-11-02 15:44:53,0,DF:DC:EF:28:D6:3E,36,36,14051.56576588129,-4978.885393924142,-31426.72629723436
41402,3055,-3327,-12543,27395,-29184,13055,15590,28183,-9483,36,-1,7219,2020-11-02 15:44:23,2020-11-02 15:44:53,0,DF:DC:EF:28:D6:3E,36,36,8786.023553648056,9988.21252291733,877.6125066217883
41403,-6667,1793,3586,-5115,14342,23809,5862,-11497,-12044,36,-1,7244,2020-11-02 15:44:23,2020-11-02 15:44:53,0,DF:DC:EF:28:D6:3E,36,36,-1713.4275093264994,1179.2416731756834,-7496.445107284453
41404,20987,5888,-1021,23302,-4344,26113,4837,-31208,-27406,36,-1,7270,2020-11-02 15:44:23,2020-11-02 15:44:53,0,DF:DC:EF:28:D6:3E,36,36,-7707.3788243722665,-84.19951128547143,-20414.562843713244
41405,503,25856,-28154,31495,32006,-30462,10468,12569,22000,36,-1,7296,2020-11-02 15:44:23,2020-11-02 15:44:53,0,DF:DC:EF:28:D6:3E,36,36,-10999.625601515145,-36473.572675813906,-3181.225218153171
41406,2293,8190,8710,264,4354,-21755,-11548,2842,-17681,36,-1,7321,2020-11-02 15:44:23,2020-11-02 15:44:53,0,DF:DC:EF:28:D6:3E,36,36,-1633.356292298639,-4790.174941475689,-11071.784872027943
41407,-6157,-26117,-25850,-759,21505,-2810,-15898,5147,20464,36,-1,7347,2020-11-02 15:44:23,2020-11-02 15:44:53,0,DF:DC:EF:28:D6:3E,36,36,7878.693572227772,11641.492528987883,34505.51662114996
41408,1008,24058,1027,22538,-23551,-29179,4585,28,4593,36,-1,7372,2020-11-02 15:44:23,2020-11-02 15:44:53,0,DF:DC:EF:28:D6:3E,36,36,1008.0,24058.0,1027.0
41409,25581,32243,29446,-20215,-3329,28419,22763,-23780,-7439,36,-1,7398,2020-11-02 15:44:23,2020-11-02 15:44:53,0,DF:DC:EF:28:D6:3E,36,36,-49450.49059158133,10245.014933294504,-3279.3559228145605
41410,-23839,-12,-25345,-19701,5628,-7171,-2323,23836,-6670,36,-1,7424,2020-11-02 15:44:23,2020-11-02 15:44:53,0,DF:DC:EF:28:D6:3E,36,36,18772.631060312346,-29258.85041403916,-1474.8171148574547
41411,733,-32008,1019,-25078,2823,25340,-10771,10268,-2832,36,-1,7449,2020-11-02 15:44:23,2020-11-02 15:44:53,0,DF:DC:EF:28:D6:3E,36,36,23523.342601269498,-16436.53727270817,14233.070973833255
41412,-7961,-4613,5631,17160,1294,26367,27113,11293,-7446,36,-1,7475,2020-11-02 15:44:23,2020-11-02 15:44:53,0,DF:DC:EF:28:D6:3E,36,36,3713.0264804509143,7685.343519546904,6596.543059969268
41413,13293,5631,-25601,13829,-3322,12034,3045,3358,23525,36,-1,7501,2020-11-02 15:44:23,2020-11-02 15:44:53,0,DF:DC:EF:28:D6:3E,36,36,-4427.32980106105,-13740.842799211288,-25601.0
41414,15599,-12288,28672,24578,3842,-20476,17124,-13794,1764,36,-1,7526,2020-11-02 15:44:23,2020-11-02 15:44:53,0,DF:DC:EF:28:D6:3E,36,36,14518.032476021619,-20957.76349445466,23799.29014352498
41415,5875,-4097,22530,26114,1539,15109,1764,-20449,29923,36,-1,7552,2020-11-02 15:44:23,2020-11-02 15:44:53,0,DF:DC:EF:28:D6:3E,36,36,-6480.4355699860025,7463.973299763313,-21475.450901056316
41416,24308,-12546,27393,-25597,8452,-18173,-10783,-32736,-16672,36,-1,7577,2020-11-02 15:44:23,2020-11-02 15:44:53,0,DF:DC:EF:28:D6:3E,36,36,1807.4161935657721,-35151.78244482813,-16116.54015769852
41417,24049,-1281,11012,29956,-18172,-11774,-13860,2337,3803,36,-1,7603,2020-11-02 15:44:23,2020-11-02 15:44:53,0,DF:DC:EF:28:D6:3E,36,36,24049.0,10546.267361821296,-3417.7989602934335
41418,-30990,11008,6403,-32250,-15867,11268,7891,27169,30672,36,1,7629,2020-11-02 15:44:23,2020-11-02 15:44:53,0,DF:DC:EF:28:D6:3E,36,36,3551.4860146663386,-10032.698149988753,-31769.269552805927
41419,15859,14079,23811,16389,19969,1540,-7224,-26335,20165,36,1,7654,2020-11-02 15:44:23,2020-11-02 15:44:53,0,DF:DC:EF:28:D6:3E,36,36,5598.6230092497335,-28720.681828807155,-12667.584564104
41420,-29201,24573,28931,24580,-14084,9219,-14140,10530,31168,36,1,7680,2020-11-02 15:44:23,2020-11-02 15:44:53,0,DF:DC:EF:28:D6:3E,36,36,2737.762126915557,47435.30075147266,5994.196539467436
41421,-10771,-16134,27652,9220,-25603,20223,-1590,-21470,1478,36,1,7705,2020-11-02 15:44:23,2020-11-02 15:44:53,0,DF:DC:EF:28:D6:3E,36,36,6760.958718011949,-16134.0,-28895.276122808344
41422,12782,-32266,-24058,6915,23807,20474,-28456,11042,4819,36,1,7731,2020-11-02 15:44:23,2020-11-02 15:44:53,0,DF:DC:EF:28:D6:3E,36,36,-409.29423525161474,39297.61950290344,-15452.871048255494
41423,26850,22513,7693,31493,-25347,758,10720,-9952,6874,36,1,7757,2020-11-02 15:44:23,2020-11-02 15:44:53,0,DF:DC:EF:28:D6:3E,36,36,-7452.718807956835,-1075.0594669630036,35074.79362037673
41424,30691,11504,-24058,-17396,-17405,-1549,-9762,3103,13015,36,1,7782,2020-11-02 15:44:23,2020-11-02 15:44:53,0,DF:DC:EF:28:D6:3E,36,36,-15.909772549115587,33745.151248916816,-22678.875083805746
41425,29674,-30479,-31744,22027,22017,27890,13278,2589,-29228,36,1,7808,2020-11-02 15:44:23,2020-11-02 15:44:53,0,DF:DC:EF:28:D6:3E,36,36,-31424.45142954676,40240.85070017008,-14504.311092867463
41426,6127,-15883,-12803,-8188,28666,-15631,-1825,-12006,14293,36,1,7833,2020-11-02 15:44:23,2020-11-02 15:44:53,0,DF:DC:EF:28:D6:3E,36,36,10658.762624042925,14876.995399460837,10899.193282474016
41427,-15374,-27139,17148,-12544,-28679,26610,-27423,-30952,-22826,36,1,7859,2020-11-02 15:44:23,2020-11-02 15:44:53,0,DF:DC:EF:28:D6:3E,36,36,35128.16142244718,197.6796659155243,5736.924160922563
41428,29943,-16122,31992,-22530,7931,-30219,14306,-24554,30423,36,1,7885,2020-11-02 15:44:23,2020-11-02 15:44:53,0,DF:DC:EF:28:D6:3E,36,36,-33018.80601990593,32719.943328118457,-4376.523120530766
41429,13050,-2553,8187,18939,32765,31737,-2335,24853,-12585,36,1,7910,2020-11-02 15:44:23,2020-11-02 15:44:53,0,DF:DC:EF:28:D6:3E,36,36,3806.7383560711946,14452.72885329942,4524.892239758073
41430,23549,-14074,-31233,15100,1279,-7428,21729,-17644,-5417,36,1,7936,2020-11-02 15:44:23,2020-11-02 15:44:53,0,DF:DC:EF:28:D6:3E,36,36,-27396.543737226042,18340.755608888503,-25321.517350847782
41431,-26371,19971,14590,7938,-27136,15615,14817,-30700,-9257,36,1,7961,2020-11-02 15:44:23,2020-11-02 15:44:53,0,DF:DC:EF:28:D6:3E,36,36,-15935.662840533027,-15117.684928172735,28716.699570900448
41432,3069,20989,13306,-29946,-18431,-32257,-19231,-31724,32215,36,1,7987,2020-11-02 15:44:23,2020-11-02 15:44:53,0,DF:DC:EF:28:D6:3E,36,36,-22266.722136263088,8640.174176678574,-7519.773500784979
41433,16892,22777,-22282,-32506,-9471,-12290,16354,30228,-6954,36,1,8015,2020-11-02 15:44:23,2020-11-02 15:44:53,0,DF:DC:EF:28:D6:3E,36,36,-3872.807980630916,25987.75567201763,24703.37690431567
41434,-11014,-13317,-30221,5122,-6144,3069,27106,10772,24534,36,1,8038,2020-11-02 15:44:23,2020-11-02 15:44:53,0,DF:DC:EF:28:D6:3E,36,36,-23239.992358534982,-5234.240780466769,25386.315302291005
41435,26103,6399,13814,16124,-10751,-27396,-22047,-17901,-14379,36,1,8064,2020-11-02 15:44:23,2020-11-02 15:44:53,0,DF:DC:EF:28:D6:3E,36,36,5910.058208431877,23452.13289785217,18116.541626768252
41436,-12,-3072,-22534,-14600,24835,-29185,5088,-28653,-2348,36,1,8089,2020-11-02 15:44:23,2020-11-02 15:44:53,0,DF:DC:EF:28:D6:3E,36,36,-21611.80355148472,-3072.0,-6380.536595932383
41437,24049,-22789,-24579,25592,-31232,-15612,-30498,3604,32212,36,-1,8115,2020-11-02 15:44:23,2020-11-02 15:44:53,0,DF:DC:EF:28:D6:3E,36,36,23224.212906761266,-18209.12190103727,-28825.058151798898
41438,-7187,-14096,14589,6904,23291,-9719,-7203,17429,9685,36,-1,8141,2020-11-02 15:44:23,2020-11-02 15:44:53,0,DF:DC:EF:28:D6:3E,36,36,1428.3553454549055,10849.552943553957,-18532.029244854166
41439,12778,-23571,31482,12019,32755,12044,-25378,-5866,-5161,36,-1,8166,2020-11-02 15:44:23,2020-11-02 15:44:53,0,DF:DC:EF:28:D6:3E,36,36,39230.43717418732,-8418.622369908,-10004.261367788522
41440,27624,-32029,-23293,18157,-11539,-15860,-18720,31768,19421,36,-1,8192,2020-11-02 15:44:23,2020-11-02 15:44:53,0,DF:DC:EF:28:D6:3E,36,36,14414.009103157163,-30763.33054166707,34312.678437543116
41441,9956,6891,18438,31725,-4632,30985,10213,11801,28901,36,-1,8217,2020-11-02 15:44:23,2020-11-02 15:44:53,0,DF:DC:EF:28:D6:3E,36,36,-8417.516871278589,-13114.393664492718,-15611.71834022295
41442,30178,20978,16392,29935,-2575,2823,-12824,-5864,31468,36,-1,8243,2020-11-02 15:44:23,2020-11-02 15:44:53,0,DF:DC:EF:28:D6:3E,36,36,16728.180825211093,-34780.04501973965,11401.853652100745
41443,-13589,-20489,23819,11254,-30209,-14329,-21783,28185,-25617,36,-1,8269,2020-11-02 15:44:23,2020-11-02 15:44:53,0,DF:DC:EF:28:D6:3E,36,36,-33935.24423012989,3116.352263532306,3239.189807808898
41444,16372,-31237,11271,7676,20998,4101,-16408,-28390,-27409,36,-1,8294,2020-11-02 15:44:23,2020-11-02 15:44:53,0,DF:DC:EF:28:D6:3E,36,36,-22329.599970999967,-9712.896831007936,-27890.439119621515
41445,-24331,12541,-32254,-5379,-15609,29186,24038,-30181,28909,36,-1,8320,2020-11-02 15:44:23,2020-11-02 15:44:53,0,DF:DC:EF:28:D6:3E,36,36,-30072.63409003234,-13290.01077377288,26619.67412497804
41446,8692,27134,-6912,-5892,16648,-13823,-9502,15132,10218,36,-1,8345,2020-11-02 15:44:23,2020-11-02 15:44:53,0,DF:DC:EF:28:D6:3E,36,36,-22448.85698890547,-18592.82547700925,3152.1777667425367
41447,-29708,-23809,-16383,9212,18952,-29182,28126,-14052,7398,36,1,8371,2020-11-02 15:44:23,2020-11-02 15:44:53,0,DF:DC:EF:28:D6:3E,36,36,-10096.256412325787,-9868.181349094768,-38968.205466995125
41448,4854,-11521,12546,13565,-19193,31747,-28967,16669,-27935,36,1,8397,2020-11-02 15:44:23,2020-11-02 15:44:53,0,DF:DC:EF:28:D6:3E,36,36,17349.566840319032,3317.61902382723,-1297.2306911424532
41449,-31499,15871,-4096,-21251,30213,5635,3541,-31971,18909,36,1,8422,2020-11-02 15:44:23,2020-11-02 15:44:53,0,DF:DC:EF:28:D6:3E,36,36,10494.388555973506,-17527.373446958056,29043.27541595682
41450,28401,28157,-8961,-11012,28159,13058,-11310,-15075,27867,36,1,8473,2020-11-02 15:44:23,2020-11-02 15:44:53,0,DF:DC:EF:28:D6:3E,36,36,-3427.677875868715,-15707.252963732595,37699.68434499942
41451,-5910,29690,-6912,-22021,16379,-19968,-3885,10270,11741,36,1,8475,2020-11-02 15:44:23,2020-11-02 15:44:53,0,DF:DC:EF:28:D6:3E,36,36,-23247.793113199335,-20547.65479834033,1238.5239820540864
41452,27623,-3594,-25853,-16645,23291,257,25558,-32738,24800,36,1,8499,2020-11-02 15:44:23,2020-11-02 15:44:53,0,DF:DC:EF:28:D6:3E,36,36,-30447.95285145194,-8914.134202803933,-20923.31122385175
41453,-14876,-17933,13830,18942,14328,-17152,21978,-10978,-9756,36,1,8525,2020-11-02 15:44:23,2020-11-02 15:44:53,0,DF:DC:EF:28:D6:3E,36,36,16329.543287926705,3814.5475888750934,-21282.66918645157
41454,-17950,-32527,-15608,5122,-32007,-28165,-2848,27166,-31765,36,1,8550,2020-11-02 15:44:23,2020-11-02 15:44:53,0,DF:DC:EF:28:D6:3E,36,36,37869.77769383048,13351.265345876256,-3382.5351563380573
41455,-13333,1266,13321,-1528,32523,10998,-1570,16669,-29720,36,1,8576,2020-11-02 15:44:23,2020-11-02 15:44:53,0,DF:DC:EF:28:D6:3E,36,36,3795.826895367444,17294.905009547205,6580.17058222233
41456,-26120,9459,-11260,12560,-23026,-25869,-5927,22043,-32,36,1,8601,2020-11-02 15:44:23,2020-11-02 15:44:53,0,DF:DC:EF:28:D6:3E,36,36,23876.81650533394,-4364.243777730181,17588.794467477186
41457,-27654,2296,-19713,-14835,17923,26102,-551,27417,-28962,36,1,8627,2020-11-02 15:44:23,2020-11-02 15:44:53,0,DF:DC:EF:28:D6:3E,36,36,7157.660925187753,32290.715084255757,-8043.339507161063
41458,5883,2300,5117,29450,-11526,-27139,-31012,-26600,27871,36,1,8653,2020-11-02 15:44:23,2020-11-02 15:44:53,0,DF:DC:EF:28:D6:3E,36,36,-2515.2772365927412,3596.4925271285724,-6842.660295921953
41459,26622,18684,251,-4345,26872,5379,-1825,-20200,-15391,36,1,8704,2020-11-02 15:44:23,2020-11-02 15:44:53,0,DF:DC:EF:28:D6:3E,36,36,27971.844854799685,16221.982139882952,3508.408737923073
41460,27906,13820,3581,3333,-8968,-8702,17891,-2024,26596,36,1,8706,2020-11-02 15:44:23,2020-11-02 15:44:53,0,DF:DC:EF:28:D6:3E,36,36,-28977.371493734132,-11846.05762970942,-1594.8846189388303
41461,29183,22526,-24578,-4606,9467,22013,-31515,-26088,19686,36,1,8729,2020-11-02 15:44:23,2020-11-02 15:44:53,0,DF:DC:EF:28:D6:3E,36,36,3696.3049175207816,-30787.948289338376,-31647.84067025329
41462,2298,-8449,16384,-9214,11777,-11528,-24603,-17385,-3355,36,1,8755,2020-11-02 15:44:23,2020-11-02 15:44:53,0,DF:DC:EF:28:D6:3E,36,36,138.6463159874786,-6876.817130448439,17256.65159738221
41463,23799,21760,19970,-25852,26629,-22536,-25884,-6634,7396,36,1,8781,2020-11-02 15:44:23,2020-11-02 15:44:53,0,DF:DC:EF:28:D6:3E,36,36,30080.968642930253,-7448.36486841071,21871.170231381584
41464,-28170,-28672,-31743,11272,-11256,23034,28131,24342,31201,36,-1,8806,2020-11-02 15:44:23,2020-11-02 15:44:53,0,DF:DC:EF:28:D6:3E,36,36,-8954.344039419982,11649.864949501092,-49064.76232982373
41465,-27403,-25343,-29953,-12024,21001,-26884,25570,9750,-25122,36,-1,8832,2020-11-02 15:44:23,2020-11-02 15:44:53,0,DF:DC:EF:28:D6:3E,36,36,-7021.173325629382,17466.484773695753,43999.9920657007
41466,-16650,-22526,-5121,-14330,12549,-27137,-6687,14870,-24868,36,-1,8857,2020-11-02 15:44:23,2020-11-02 15:44:53,0,DF:DC:EF:28:D6:3E,36,36,-1678.3672536859522,27155.799604328004,8403.180838904615
41467,-27915,17410,-26112,-3577,-20222,-11772,10978,-16106,-21797,36,-1,8883,2020-11-02 15:44:23,2020-11-02 15:44:53,0,DF:DC:EF:28:D6:3E,36,36,-6584.67851826444,-32634.978039714042,-25608.437792229517
41468,25327,-18948,-28161,23304,3584,23816,-14877,-11753,4572,36,-1,8909,2020-11-02 15:44:23,2020-11-02 15:44:53,0,DF:DC:EF:28:D6:3E,36,36,-36862.52812847462,-17721.57457794277,10982.958092236815
41469,3307,26872,2812,24838,-7682,-22264,14566,2073,-29219,36,-1,8934,2020-11-02 15:44:23,2020-11-02 15:44:53,0,DF:DC:EF:28:D6:3E,36,36,14113.347235831829,-726.2543451223893,23264.435549289155
41470,28652,-6153,-18690,-14334,-21247,-23800,-16153,23066,-28706,36,-1,8960,2020-11-02 15:44:23,2020-11-02 15:44:53,0,DF:DC:EF:28:D6:3E,36,36,5658.040925577518,-31758.144346284455,12942.930640509925
41471,32234,-15889,-1019,-25343,-5122,8200,19945,31259,-3617,36,-1,8985,2020-11-02 15:44:23,2020-11-02 15:44:53,0,DF:DC:EF:28:D6:3E,36,36,10326.355344955578,15873.79206669748,30560.080967055033
41472,24807,16374,-25853,22275,31482,27141,3309,-9189,-32285,36,-1,9011,2020-11-02 15:44:23,2020-11-02 15:44:53,0,DF:DC:EF:28:D6:3E,36,36,-5728.479556118705,38358.379982716564,6905.935206520471
41473,-30747,9722,-22528,32005,4865,-19966,-31761,3612,21733,36,-1,9039,2020-11-02 15:44:23,2020-11-02 15:44:53,0,DF:DC:EF:28:D6:3E,36,36,27001.558061890486,-28455.639830346314,2932.3200841594717
41474,-3351,-17922,32255,3,3845,-25343,28655,-16612,-27932,36,-1,9062,2020-11-02 15:44:23,2020-11-02 15:44:53,0,DF:DC:EF:28:D6:3E,36,36,-4819.468110504669,-33961.814344597806,-14006.434362638436
41475,-21265,31232,5120,2817,20741,-3582,-28178,-26339,27619,36,-1,9088,2020-11-02 15:44:23,2020-11-02 15:44:53,0,DF:DC:EF:28:D6:3E,36,36,-37504.70992880237,-6263.706378285056,2831.106596902314
41476,25077,-22528,1793,17408,-14333,-24317,17902,32542,1507,36,-1,9114,2020-11-02 15:44:23,2020-11-02 15:44:53,0,DF:DC:EF:28:D6:3E,36,36,11864.1070221552,22049.52278896349,22641.622542252295
41477,-2569,-25601,3073,-3842,29697,17665,13294,1567,1507,36,1,9139,2020-11-02 15:44:23,2020-11-02 15:44:53,0,DF:DC:EF:28:D6:3E,36,36,-2569.0,7859.504169808073,-24557.742652873647
41478,22004,9472,-22269,26110,24578,10750,-27156,7967,-24095,36,1,9165,2020-11-02 15:44:23,2020-11-02 15:44:53,0,DF:DC:EF:28:D6:3E,36,36,-27788.929227581735,15863.091536757593,-6777.971693722494
41479,-22286,-2817,19458,-7424,-5630,-22275,30697,6687,31710,36,1,9190,2020-11-02 15:44:23,2020-11-02 15:44:53,0,DF:DC:EF:28:D6:3E,36,36,15672.695299547297,9979.279343096094,23194.733342722517
41480,-9486,-22784,-11010,-18176,27138,31742,-4122,5151,-16933,36,1,9216,2020-11-02 15:44:23,2020-11-02 15:44:53,0,DF:DC:EF:28:D6:3E,36,36,-16769.86368131014,18107.08491475851,-11010.0
41481,18674,-26114,6655,13054,-29953,31487,-10523,1055,-16934,36,1,9242,2020-11-02 15:44:23,2020-11-02 15:44:53,0,DF:DC:EF:28:D6:3E,36,36,-15508.760664341515,-13439.03320328013,25569.88514282588
41482,17649,14587,-27902,-18948,5118,-23040,-28186,-2530,-4389,36,1,9267,2020-11-02 15:44:23,2020-11-02 15:44:53,0,DF:DC:EF:28:D6:3E,36,36,17649.0,11581.603726544306,29277.44230839325
41483,-2063,22007,21765,-7429,8955,-2305,-28952,-16610,-31010,36,1,9293,2020-11-02 15:44:23,2020-11-02 15:44:53,0,DF:DC:EF:28:D6:3E,36,36,7235.452080007388,-27110.354777513894,-13227.09870059366
41484,3051,-6413,-27896,-30725,3577,-27908,3563,-6883,-14623,36,1,9318,2020-11-02 15:44:23,2020-11-02 15:44:53,0,DF:DC:EF:28:D6:3E,36,36,-16285.822207876741,-20174.744801674777,-12504.945149848736
41485,18404,18415,18959,31229,-32002,-31495,30442,-12516,-17439,36,1,9344,2020-11-02 15:44:23,2020-11-02 15:44:53,0,DF:DC:EF:28:D6:3E,36,36,-170.12463473947082,-23664.71719626044,21845.258973737757
41486,28134,-31765,20496,-25087,20479,-20232,745,-16357,12256,36,1,9369,2020-11-02 15:44:23,2020-11-02 15:44:53,0,DF:DC:EF:28:D6:3E,36,36,41511.739920345,-14373.576265186945,17052.828244443503
41487,22507,15594,-17138,7683,24316,19958,-27416,21018,18143,36,1,9395,2020-11-02 15:44:23,2020-11-02 15:44:53,0,DF:DC:EF:28:D6:3E,36,36,18453.064831218333,-5435.656549953363,-25949.70067661286
41488,-22291,-19215,12556,23555,32507,8178,26344,18968,-31522,36,1,9421,2020-11-02 15:44:23,2020-11-02 15:44:53,0,DF:DC:EF:28:D6:3E,36,36,-14642.534233602102,28276.919511477947,-3125.708905062683
41489,-20754,-27138,2823,29956,-24579,1777,-3097,1046,19165,36,1,9446,2020-11-02 15:44:23,2020-11-02 15:44:53,0,DF:DC:EF:28:D6:3E,36,36,24376.01905317432,23937.611725468403,2823.0
41490,-28428,-7414,510,-8954,28673,-14603,-20505,25876,-11813,36,1,9472,2020-11-02 15:44:23,2020-11-02 15:44:53,0,DF:DC:EF:28:D6:3E,36,36,-822.7420387666122,-19608.205748726512,-21868.242792992187
41491,9976,-25339,16380,-29179,6146,-21508,-11801,-12525,-19238,36,1,9497,2020-11-02 15:44:23,2020-11-02 15:44:53,0,DF:DC:EF:28:D6:3E,36,36,22304.880393635096,-22516.707670305907,2319.500660836222
41492,21757,-26366,-13572,-25087,15361,-20223,-1305,-1005,20442,36,1,9523,2020-11-02 15:44:23,2020-11-02 15:44:53,0,DF:DC:EF:28:D6:3E,36,36,-17818.49661602943,29172.490180725872,-13572.0
41493,-32004,16895,1791,10496,-24581,-30974,-24088,12820,2267,36,1,9549,2020-11-02 15:44:23,2020-11-02 15:44:53,0,DF:DC:EF:28:D6:3E,36,36,23880.30983070616,-12398.742243587221,24267.400255622033
41494,-10507,3840,25343,-32511,-3589,-257,-24087,-1773,13020,36,1,9574,2020-11-02 15:44:23,2020-11-02 15:44:53,0,DF:DC:EF:28:D6:3E,36,36,24094.786054245298,-527.9141808653112,-13659.168701564073
41495,30193,18690,-28161,-14843,-2557,24830,1770,-5101,-5413,36,1,9600,2020-11-02 15:44:23,2020-11-02 15:44:53,0,DF:DC:EF:28:D6:3E,36,36,30193.0,18690.0,-28161.0
41496,-31502,13316,-25602,8201,-14840,-19200,-23,-28396,21466,36,1,9625,2020-11-02 15:44:23,2020-11-02 15:44:53,0,DF:DC:EF:28:D6:3E,36,36,-3082.4145284905535,-13011.219459872587,40575.37618854055
41497,-15627,29699,22269,-4855,18951,12549,31722,-15339,5081,36,1,9651,2020-11-02 15:44:23,2020-11-02 15:44:53,0,DF:DC:EF:28:D6:3E,36,36,26655.175165169647,29778.767918545786,-4986.8536340574055
41498,-15628,26114,-3076,-16631,-16123,-20728,-7701,18967,-3112,36,1,9677,2020-11-02 15:44:23,2020-11-02 15:44:53,0,DF:DC:EF:28:D6:3E,36,36,12136.070019377314,11521.089666171512,25605.02789275589
41499,-13841,-8959,7677,8202,12038,-9206,-787,5657,-24103,36,1,9702,2020-11-02 15:44:23,2020-11-02 15:44:53,0,DF:DC:EF:28:D6:3E,36,36,15827.274911836983,-4618.910138239935,7677.0
41500,-1813,18683,14846,26633,29960,6670,2033,20251,19419,36,1,9728,2020-11-02 15:44:23,2020-11-02 15:44:53,0,DF:DC:EF:28:D6:3E,36,36,-6487.540718561682,-17947.083702674463,-14441.578029917673
41501,-15638,-14602,15873,12806,-16122,11536,-24074,-25315,-4129,36,1,9753,2020-11-02 15:44:23,2020-11-02 15:44:53,0,DF:DC:EF:28:D6:3E,36,36,-5993.658528097991,-2468.221856172282,25839.92096190063
41502,1255,-2317,30469,22786,18691,6928,19969,-12770,16618,36,1,9779,2020-11-02 15:44:23,2020-11-02 15:44:53,0,DF:DC:EF:28:D6:3E,36,36,-9496.489164153341,25570.556200996158,13829.924950151222
41503,-22039,-3081,-19965,30206,32253,-4339,28939,8222,-22284,36,1,9805,2020-11-02 15:44:23,2020-11-02 15:44:53,0,DF:DC:EF:28:D6:3E,36,36,11220.114461061898,21820.639100215303,17081.570411962268
41504,27365,257,-24829,-30978,13568,-28923,1551,7453,-24328,36,-1,9830,2020-11-02 15:44:23,2020-11-02 15:44:53,0,DF:DC:EF:28:D6:3E,36,36,3797.637024435613,-4790.165583242142,-36442.01945166813
41505,18147,3842,-12538,-26368,23304,11262,16913,-18915,507,36,-1,9856,2020-11-02 15:44:23,2020-11-02 15:44:53,0,DF:DC:EF:28:D6:3E,36,36,-19194.714181208634,9801.934991526277,-6063.0879033377805
41506,-2072,-20992,-7423,-15103,23817,-30210,-27883,-6882,10495,36,-1,9882,2020-11-02 15:44:23,2020-11-02 15:44:53,0,DF:DC:EF:28:D6:3E,36,36,-11861.147769351037,17320.340882823766,-7705.656513004107
41507,-19985,-16898,-515,-17924,2054,-28928,2587,32031,-10236,36,-1,9907,2020-11-02 15:44:23,2020-11-02 15:44:53,0,DF:DC:EF:28:D6:3E,36,36,-17015.318275829963,-4775.2958771329695,-19310.187654656384
41508,-7948,12030,-3328,-16905,257,25858,18461,27423,8456,36,-1,9933,2020-11-02 15:44:23,2020-11-02 15:44:53,0,DF:DC:EF:28:D6:3E,36,36,10391.962816845153,-4988.738956742866,-9278.296203225238
41509,28153,-20224,-7933,22774,-30466,15875,-6629,-3810,11784,36,-1,9958,2020-11-02 15:44:23,2020-11-02 15:44:53,0,DF:DC:EF:28:D6:3E,36,36,4290.09256455877,32924.65981537955,12731.691004302946
41510,23548,-10495,-30715,-15112,-22785,-17920,10778,-27618,-17145,36,-1,9984,2020-11-02 15:44:23,2020-11-02 15:44:53,0,DF:DC:EF:28:D6:3E,36,36,32758.573559931578,23097.563653228208,-1201.235032632274
41511,-18180,-13057,18947,-27908,-15358,14844,-12007,-4066,9480,36,-1,10010,2020-11-02 15:44:23,2020-11-02 15:44:53,0,DF:DC:EF:28:D6:3E,36,36,-28892.18508356843,-3053.56432267894,3987.9623900042197
41512,15101,-13825,-4866,18429,25347,-5384,5658,-2017,-12024,36,-1,10035,2020-11-02 15:44:23,2020-11-02 15:44:53,0,DF:DC:EF:28:D6:3E,36,36,-18855.270304563448,-7978.070427230376,-4866.0
41513,-15106,3839,-23299,14073,28416,-26890,25366,16929,-9723,36,-1,10063,2020-11-02 15:44:23,2020-11-02 15:44:53,0,DF:DC:EF:28:D6:3E,36,36,-7497.799476782737,-25602.145944626463,8607.3041096503
41514,5626,14846,7425,-8715,-2562,-6156,24830,-3551,14063,36,-1,10086,2020-11-02 15:44:23,2020-11-02 15:44:53,0,DF:DC:EF:28:D6:3E,36,36,1372.9966201726884,6815.556733410684,-16088.793730253821
41515,27127,31230,-7678,4344,-27392,-14092,18665,-5600,29659,36,-1,10112,2020-11-02 15:44:23,2020-11-02 15:44:53,0,DF:DC:EF:28:D6:3E,36,36,-20913.59116013297,-34475.50119218871,12008.340240607873
41516,-16394,12286,-20225,27896,9726,31733,-23581,25375,-7978,36,-1,10138,2020-11-02 15:44:23,2020-11-02 15:44:53,0,DF:DC:EF:28:D6:3E,36,36,2704.385033106424,9254.084889626509,-27125.778725196007
41517,10739,6909,-1536,30195,21242,29173,-11294,-21731,-22057,36,-1,10163,2020-11-02 15:44:23,2020-11-02 15:44:53,0,DF:DC:EF:28:D6:3E,36,36,9941.364338206426,-1048.0117643386739,8092.629018856928
41518,15339,-23300,-15095,3314,-23303,7415,-23070,-2533,-17447,36,-1,10189,2020-11-02 15:44:23,2020-11-02 15:44:53,0,DF:DC:EF:28:D6:3E,36,36,-11424.106196299825,-28551.731541761284,-7766.747683738506
41519,-4634,-11783,-19447,11512,-17927,13818,5091,-21222,-10277,36,-1,10214,2020-11-02 15:44:23,2020-11-02 15:44:53,0,DF:DC:EF:28:D6:3E,36,36,-5953.56365755785,-12536.035571929056,18598.43396403944
41520,-31261,23286,14086,-1800,5625,24827,-12829,-18919,-17955,36,-1,10240,2020-11-02 15:44:23,2020-11-02 15:44:53,0,DF:DC:EF:28:D6:3E,36,36,-33975.53692155936,-7992.582155733287,22353.63134650856
41521,-1317,15346,-9462,22007,-13832,-28933,30948,-21224,-8737,36,-1,10266,2020-11-02 15:44:23,2020-11-02 15:44:53,0,DF:DC:EF:28:D6:3E,36,36,-1940.8259031342814,-5713.677086261176,17039.6812754129
41522,-31781,-18193,4108,7419,27131,12797,-19228,-6633,17121,36,-1,10291,2020-11-02 15:44:23,2020-11-02 15:44:53,0,DF:DC:EF:28:D6:3E,36,36,-10283.717957114264,-22202.971152731756,-27552.968823150204
41523,-13086,6894,14601,-515,10493,-14596,-2076,19223,3554,36,-1,10317,2020-11-02 15:44:23,2020-11-02 15:44:53,0,DF:DC:EF:28:D6:3E,36,36,15015.53504819555,6894.0,-12608.18401739168
41524,11506,3055,12297,20735,23295,19708,-12316,-21226,5602,36,-1,10342,2020-11-02 15:44:23,2020-11-02 15:44:53,0,DF:DC:EF:28:D6:3E,36,36,-10276.674329291263,9910.301872023889,9439.976246529743
41525,1534,-27918,-16375,-32258,24314,26874,3045,-14315,31714,36,-1,10368,2020-11-02 15:44:23,2020-11-02 15:44:53,0,DF:DC:EF:28:D6:3E,36,36,-22728.671404836805,-21585.271399715075,8209.266701210052
41526,509,-25355,-18679,-20485,-28426,-5900,-31771,788,-20765,36,1,10394,2020-11-02 15:44:23,2020-11-02 15:44:53,0,DF:DC:EF:28:D6:3E,36,36,1008.8285904215202,-10684.046547344904,-29612.05094635148
41527,-1545,22016,7943,-2308,-15875,-18705,997,-27375,-14109,36,1,10419,2020-11-02 15:44:23,2020-11-02 15:44:53,0,DF:DC:EF:28:D6:3E,36,36,17097.257954248307,-15546.2129427823,-4022.631425268921
41528,-8971,-15610,774,2818,-24059,-18701,1764,-23025,17122,36,1,10445,2020-11-02 15:44:23,2020-11-02 15:44:53,0,DF:DC:EF:28:D6:3E,36,36,11510.151340932327,12360.658670376206,6283.355022858988
41529,-23560,5889,-14846,-19964,30470,-31747,-23325,5903,-22560,36,1,10470,2020-11-02 15:44:23,2020-11-02 15:44:53,0,DF:DC:EF:28:D6:3E,36,36,1847.8132680166846,-7197.447620328601,27476.170964658955
41530,18939,2305,763,13829,1537,-1790,4836,31503,5600,36,1,10496,2020-11-02 15:44:23,2020-11-02 15:44:53,0,DF:DC:EF:28:D6:3E,36,36,4640.618908920067,2305.0,18377.501085353622
41531,13560,26877,-5901,-1277,8701,3076,7909,-3057,-21536,36,1,10522,2020-11-02 15:44:23,2020-11-02 15:44:53,0,DF:DC:EF:28:D6:3E,36,36,-10674.260854574966,-21205.79419146144,19427.89175175394
41532,28918,-11524,-24337,-6144,23295,7428,-14875,32272,15841,36,1,10547,2020-11-02 15:44:23,2020-11-02 15:44:53,0,DF:DC:EF:28:D6:3E,36,36,20571.133140503243,-3295.4307922641233,33575.45958299136
41533,20470,14591,8177,27900,25859,12804,22757,16145,7905,36,1,10573,2020-11-02 15:44:23,2020-11-02 15:44:53,0,DF:DC:EF:28:D6:3E,36,36,5557.956316305228,-20214.7200376145,-16101.419980452334
41534,2294,6144,4855,6649,4613,5637,-5661,14354,27616,36,1,10598,2020-11-02 15:44:23,2020-11-02 15:44:53,0,DF:DC:EF:28:D6:3E,36,36,2388.1888029430734,-6634.521651013094,-4106.32118857449
41535,-17421,29439,15354,32248,-11518,25351,24290,24083,-5409,36,1,10624,2020-11-02 15:44:23,2020-11-02 15:44:53,0,DF:DC:EF:28:D6:3E,36,36,35843.616526038575,-7622.669041645942,7938.598680864726
41536,-7438,-27396,-6663,31479,-2816,28426,12001,-9196,-1569,36,1,10650,2020-11-02 15:44:23,2020-11-02 15:44:53,0,DF:DC:EF:28:D6:3E,36,36,14609.990374131397,17459.40748898503,-18220.24973487909
41537,-1550,-28169,-19461,-26636,3328,20747,-5153,-27882,23520,36,1,10675,2020-11-02 15:44:23,2020-11-02 15:44:53,0,DF:DC:EF:28:D6:3E,36,36,-12353.65654535854,28792.022593948677,13893.60237335404
41538,23027,26862,13308,-25103,-17666,32522,16862,13336,-14624,36,1,10701,2020-11-02 15:44:23,2020-11-02 15:44:53,0,DF:DC:EF:28:D6:3E,36,36,-24327.225260812113,2784.553542867243,-28798.350815222228
41539,-13072,-2332,-7932,-30482,28152,5384,18397,32281,-31518,36,1,10726,2020-11-02 15:44:23,2020-11-02 15:44:53,0,DF:DC:EF:28:D6:3E,36,36,-6385.52542084219,-9501.474164135383,-10400.917546449737
41540,23018,-8727,-28157,8436,10993,32260,19679,13594,10215,36,-1,10752,2020-11-02 15:44:23,2020-11-02 15:44:53,0,DF:DC:EF:28:D6:3E,36,36,-2699.1975570747472,19140.921750489328,-32017.88483159883
41541,12252,-25114,17915,-1801,-19469,-20993,13027,-5351,-10516,36,-1,10778,2020-11-02 15:44:23,2020-11-02 15:44:53,0,DF:DC:EF:28:D6:3E,36,36,1706.4753734090991,-13464.501599453779,-30291.366154042225
41542,-10019,-29458,-20477,-6671,26111,-6657,-3870,-30695,-30482,36,-1,10803,2020-11-02 15:44:23,2020-11-02 15:44:53,0,DF:DC:EF:28:D6:3E,36,36,21871.859964094405,-29910.728264825273,3798.9117361195003
41543,5614,20982,24590,17142,18433,-11004,-6176,-999,25070,36,-1,10829,2020-11-02 15:44:23,2020-11-02 15:44:53,0,DF:DC:EF:28:D6:3E,36,36,20569.61358937944,-25183.84495887863,-4369.710501941727
41544,12537,-6151,-7414,-15107,-30717,17157,-17441,-8934,-6419,36,-1,10854,2020-11-02 15:44:23,2020-11-02 15:44:53,0,DF:DC:EF:28:D6:3E,36,36,4171.892327582784,2836.6596714172338,14984.233124041117
41545,20989,-3590,-1275,-19710,-11772,-22782,25566,30235,19692,36,-1,10880,2020-11-02 15:44:23,2020-11-02 15:44:53,0,DF:DC:EF:28:D6:3E,36,36,-2718.7682332246095,-1008.0731175480521,21133.952159586377
41546,-29954,-24070,-9985,-31228,-12796,-23808,-4132,-21477,5098,36,-1,10906,2020-11-02 15:44:23,2020-11-02 15:44:53,0,DF:DC:EF:28:D6:3E,36,36,31063.31852364752,-24070.0,5657.966357130185
41547,15866,21499,32765,-1279,-2046,28416,-15397,-20965,20968,36,-1,10931,2020-11-02 15:44:23,2020-11-02 15:44:53,0,DF:DC:EF:28:D6:3E,36,36,7972.121208276222,-22193.51685556274,35090.957168797846
41548,-13065,-13316,-5377,-28417,-7423,18946,-19238,-8421,9447,36,-1,10957,2020-11-02 15:44:23,2020-11-02 15:44:53,0,DF:DC:EF:28:D6:3E,36,36,-17542.940255558435,-4327.091308856627,-7102.3755177211515
41549,-22026,27645,27137,-22530,5377,31491,-13095,21020,23526,36,-1,10982,2020-11-02 15:44:23,2020-11-02 15:44:53,0,DF:DC:EF:28:D6:3E,36,36,-924.629304997954,-21221.02365560201,39174.23497219466
41550,19956,-260,-24318,-31234,3841,-6653,-16680,-8932,32229,36,-1,11008,2020-11-02 15:44:23,2020-11-02 15:44:53,0,DF:DC:EF:28:D6:3E,36,36,-20513.715121436926,-8224.562081705317,22387.9148310133
41551,-15889,-774,-32767,-3074,10495,-26876,8920,-31971,3045,36,-1,11034,2020-11-02 15:44:23,2020-11-02 15:44:53,0,DF:DC:EF:28:D6:3E,36,36,-22108.53194365266,27154.285774458403,10029.619403324137
41552,-10006,-29959,-29183,29694,11261,-6652,-18216,18974,-10011,36,1,11060,2020-11-02 15:44:23,2020-11-02 15:44:53,0,DF:DC:EF:28:D6:3E,36,36,29369.29304065447,1531.4983175592197,-31375.282392282592
41553,16363,8953,-30460,-16898,23038,-30204,-9255,3103,15847,36,1,11086,2020-11-02 15:44:23,2020-11-02 15:44:53,0,DF:DC:EF:28:D6:3E,36,36,12098.410575603117,23532.14103220795,-23991.297963728633
41554,4846,-19208,-11000,-14080,-8449,-22781,12250,-23009,-26905,36,1,11110,2020-11-02 15:44:23,2020-11-02 15:44:53,0,DF:DC:EF:28:D6:3E,36,36,-5173.168277908562,-21541.636789030967,4756.805064106382
41555,2799,-23563,-29688,-26876,30974,15106,-29989,4128,31976,36,1,11136,2020-11-02 15:44:23,2020-11-02 15:44:53,0,DF:DC:EF:28:D6:3E,36,36,21683.763516779316,3495.441545073905,-31016.495645919793
41556,4847,-12301,-9212,20487,27132,6654,10464,-481,10988,36,1,11162,2020-11-02 15:44:23,2020-11-02 15:44:53,0,DF:DC:EF:28:D6:3E,36,36,1688.7067710980918,4675.844929506164,-15328.19942577924
41557,4074,17903,-11263,10760,-21766,21496,2276,-1762,-10002,36,1,11213,2020-11-02 15:44:23,2020-11-02 15:44:53,0,DF:DC:EF:28:D6:3E,36,36,17266.046635122573,6244.879389849935,-11263.0
41558,14310,-12817,-1023,3846,-28419,-19725,24293,7197,7151,36,1,11215,2020-11-02 15:44:23,2020-11-02 15:44:53,0,DF:DC:EF:28:D6:3E,36,36,2493.387441131043,17955.974675911828,-6439.2631959272485
41559,-21525,21486,-23550,29701,-15100,9206,20707,-31717,6636,36,1,11238,2020-11-02 15:44:23,2020-11-02 15:44:53,0,DF:DC:EF:28:D6:3E,36,36,25453.714856961775,6424.107167158372,28114.330297649773
41560,-24851,-22028,-16896,-12538,771,12795,2786,-24806,-19479,36,1,11264,2020-11-02 15:44:23,2020-11-02 15:44:53,0,DF:DC:EF:28:D6:3E,36,36,-6530.760634816619,21319.736340482603,29851.26142900891
41561,3061,9471,30974,30469,26371,-9475,-28959,18970,10472,36,1,11290,2020-11-02 15:44:23,2020-11-02 15:44:53,0,DF:DC:EF:28:D6:3E,36,36,22457.554764419427,-15024.50593442718,-18121.27736748888
41562,2042,-7930,3584,20739,4609,-16644,16865,538,10215,36,1,11315,2020-11-02 15:44:23,2020-11-02 15:44:53,0,DF:DC:EF:28:D6:3E,36,36,1068.6939718005099,1740.5022980122847,-8702.198856912615
41563,-12806,-7420,-12032,18947,29697,-13317,12769,32025,-28186,36,1,11341,2020-11-02 15:44:23,2020-11-02 15:44:53,0,DF:DC:EF:28:D6:3E,36,36,-9332.939646189338,-10656.088320343873,-12773.530415261792
41564,32763,31747,-13057,-14330,-19453,23293,-7200,6169,23525,36,-1,11366,2020-11-02 15:44:23,2020-11-02 15:44:53,0,DF:DC:EF:28:D6:3E,36,36,11669.257741076864,4077.8072882552724,-45814.531957580555
41565,-26888,-17154,-21763,20490,-13822,7423,12001,-488,9700,36,-1,11392,2020-11-02 15:44:23,2020-11-02 15:44:53,0,DF:DC:EF:28:D6:3E,36,36,-37186.461620812304,-8076.41518471316,-6541.484455992284
41566,26613,-27905,-8969,-16117,-2046,19199,-3615,-232,5603,36,-1,11418,2020-11-02 15:44:23,2020-11-02 15:44:53,0,DF:DC:EF:28:D6:3E,36,36,26613.0,-27905.0,-8969.0
41567,22772,-19712,20469,-24822,-20218,-20481,-1567,8985,15073,36,-1,11443,2020-11-02 15:44:23,2020-11-02 15:44:53,0,DF:DC:EF:28:D6:3E,36,36,5636.156294382097,35052.66964267436,-8102.529367230465
41568,16374,4098,-19978,1543,30985,5889,28128,-31975,6622,36,-1,11469,2020-11-02 15:44:23,2020-11-02 15:44:53,0,DF:DC:EF:28:D6:3E,36,36,22644.932357800797,2326.5155614063624,-12876.96889229606
41569,-265,17665,7929,20739,-32248,22531,-35,4634,-21030,36,-1,11494,2020-11-02 15:44:23,2020-11-02 15:44:53,0,DF:DC:EF:28:D6:3E,36,36,2755.232953976672,-17450.820650311005,7929.0
41570,12536,-31232,-27398,-6144,-7674,-15611,20187,-11494,32471,36,-1,11520,2020-11-02 15:44:23,2020-11-02 15:44:53,0,DF:DC:EF:28:D6:3E,36,36,26017.87977858499,34677.428447621634,1945.613550317823
41571,5110,14078,-17414,-4609,6404,32007,-19752,-14565,-20268,36,-1,11546,2020-11-02 15:44:23,2020-11-02 15:44:53,0,DF:DC:EF:28:D6:3E,36,36,13522.37840012324,18487.873796175325,-1700.9952676519224
41572,24048,10488,-5637,10239,-17407,-20728,26582,-6628,24786,36,-1,11571,2020-11-02 15:44:23,2020-11-02 15:44:53,0,DF:DC:EF:28:D6:3E,36,36,-19248.811827482736,-5272.045425197205,17937.920650532993
41573,14828,29173,-2564,8190,-5887,-6391,25043,8734,31695,36,-1,11597,2020-11-02 15:44:23,2020-11-02 15:44:53,0,DF:DC:EF:28:D6:3E,36,36,-22743.516746810248,2820.6909179440427,-23500.71823866219
41574,11243,-22797,14851,-19204,-10495,-1782,-18995,23071,7626,36,-1,11622,2020-11-02 15:44:23,2020-11-02 15:44:53,0,DF:DC:EF:28:D6:3E,36,36,-20028.858514479485,14456.589951786395,16016.001141760426
41575,12531,-2824,-5888,-1030,-10240,14089,-21564,14112,-23871,36,1,11648,2020-11-02 15:44:23,2020-11-02 15:44:53,0,DF:DC:EF:28:D6:3E,36,36,-1779.818479803601,-945.2446509250804,-13986.00156330776
41576,-5393,-13575,764,-8965,17915,31491,9662,-6880,-12357,36,1,11674,2020-11-02 15:44:23,2020-11-02 15:44:53,0,DF:DC:EF:28:D6:3E,36,36,-9896.813717477316,-2455.0459664644472,-10486.87739720931
41577,25324,-27138,32762,-17411,4863,-2562,10686,22561,15292,36,1,11699,2020-11-02 15:44:23,2020-11-02 15:44:53,0,DF:DC:EF:28:D6:3E,36,36,49135.1040722707,-5881.162858544707,1509.3492764773073
41578,-21781,-5890,9470,-12548,26115,-24579,5824,-5344,-26178,36,1,11725,2020-11-02 15:44:23,2020-11-02 15:44:53,0,DF:DC:EF:28:D6:3E,36,36,22676.20019074845,-9195.062705309443,160.39873605277262
41579,-29975,-30980,25341,17405,1791,-31235,31682,-24800,31681,36,1,11751,2020-11-02 15:44:23,2020-11-02 15:44:53,0,DF:DC:EF:28:D6:3E,36,36,28353.49563904055,-41163.786714028975,-1431.5217109215137
41580,-19742,-8968,-2051,8958,25596,30461,29639,-10720,-13370,36,1,11776,2020-11-02 15:44:23,2020-11-02 15:44:53,0,DF:DC:EF:28:D6:3E,36,36,3145.0336646013566,17711.07344278833,-12280.261794957072
41581,19424,5114,-23295,30715,-12034,11004,-15412,-17120,-25652,36,1,11802,2020-11-02 15:44:23,2020-11-02 15:44:53,0,DF:DC:EF:28:D6:3E,36,36,25922.747674793078,5648.121142232459,15563.151273173331
41582,9698,-2566,-13052,-8458,17405,21754,-31791,18208,-30766,36,1,11827,2020-11-02 15:44:23,2020-11-02 15:44:53,0,DF:DC:EF:28:D6:3E,36,36,-14273.933144120612,-6696.763330329803,4732.70086681222
41583,5352,18425,-8695,-17418,28671,-19719,27349,-27873,-2601,36,1,11853,2020-11-02 15:44:23,2020-11-02 15:44:53,0,DF:DC:EF:28:D6:3E,36,36,-9749.984743128749,-18623.781411114483,1349.1172891128203
41584,18167,8175,27918,-16898,19460,3833,-22572,29726,-2601,36,1,11879,2020-11-02 15:44:23,2020-11-02 15:44:53,0,DF:DC:EF:28:D6:3E,36,36,32762.894275179642,-4153.400274693268,9253.500033586142
41585,3834,12269,-30452,17159,-23301,20981,-18985,7197,24026,36,1,11904,2020-11-02 15:44:23,2020-11-02 15:44:53,0,DF:DC:EF:28:D6:3E,36,36,-29427.94280386209,-8915.46392178107,12126.949591387012
41586,-13075,-6932,11784,-2297,-23561,-27154,-32547,-6630,9951,36,1,11930,2020-11-02 15:44:23,2020-11-02 15:44:53,0,DF:DC:EF:28:D6:3E,36,36,8848.701446283438,-10772.458934141188,-12787.709577042448
41587,20967,12282,-2045,23048,-6660,5865,2528,-26601,-29728,36,1,11955,2020-11-02 15:44:23,2020-11-02 15:44:53,0,DF:DC:EF:28:D6:3E,36,36,-16104.095749118414,-11142.156047933448,-14531.176714455245
41588,9196,-29430,17661,21513,18182,-18454,4832,21268,-4898,36,1,11981,2020-11-02 15:44:23,2020-11-02 15:44:53,0,DF:DC:EF:28:D6:3E,36,36,-6611.650536392381,-29430.0,-18781.997076579006
41589,30451,-508,11770,18441,15369,-26379,-25377,18962,28636,36,1,12007,2020-11-02 15:44:23,2020-11-02 15:44:53,0,DF:DC:EF:28:D6:3E,36,36,13960.058603940499,29282.809447744166,3699.756697629111
41590,-10245,10751,9468,-10746,3590,11523,-27169,14866,-18214,36,1,12032,2020-11-02 15:44:23,2020-11-02 15:44:53,0,DF:DC:EF:28:D6:3E,36,36,-7976.938243229732,13199.113174265072,8505.228843284644
41591,-20224,-23553,5627,-15613,7420,-24570,26336,9491,-11558,36,1,12058,2020-11-02 15:44:23,2020-11-02 15:44:53,0,DF:DC:EF:28:D6:3E,36,36,17464.509795890768,-9067.381255211149,24661.520812023755
41592,-29187,30204,-22022,-24831,6647,13572,16354,-18157,-13348,36,-1,12083,2020-11-02 15:44:23,2020-11-02 15:44:53,0,DF:DC:EF:28:D6:3E,36,36,-3094.4003469858035,-24676.335979799427,-40381.11189782459
41593,30969,-20485,-3591,14337,21499,11264,-19229,-19693,31198,36,-1,12111,2020-11-02 15:44:23,2020-11-02 15:44:53,0,DF:DC:EF:28:D6:3E,36,36,10006.181160783115,35880.9346249104,-2011.0534603772026
41594,-24586,29438,-18439,15362,8196,29950,-16669,-27629,14302,36,-1,12135,2020-11-02 15:44:23,2020-11-02 15:44:53,0,DF:DC:EF:28:D6:3E,36,36,25711.124089565717,13548.118973714525,31087.787494851254
41595,-29961,9217,13305,16899,27402,-6912,-23326,-4845,15580,36,-1,12160,2020-11-02 15:44:23,2020-11-02 15:44:53,0,DF:DC:EF:28:D6:3E,36,36,27102.308546836262,-20546.03860513405,-1721.2797763371827
41596,-5642,-32767,-23815,21762,-18932,1028,-9248,-20716,30681,36,-1,12186,2020-11-02 15:44:23,2020-11-02 15:44:53,0,DF:DC:EF:28:D6:3E,36,36,-35197.61517591354,-14072.617929765373,-15354.217288131209
41597,10484,31230,6650,1793,7946,-17913,-9250,-6379,-17450,36,-1,12211,2020-11-02 15:44:23,2020-11-02 15:44:53,0,DF:DC:EF:28:D6:3E,36,36,-21335.63489586019,-25737.879950805705,-3435.385746676283
41598,-32271,-24583,15865,-24578,-28153,9994,-14372,27415,23764,36,-1,12237,2020-11-02 15:44:23,2020-11-02 15:44:53,0,DF:DC:EF:28:D6:3E,36,36,12663.780039205529,-23058.68296521063,-34718.372226078296
41599,17391,24308,-20740,31227,-13307,-25589,5082,3353,-6959,36,-1,12263,2020-11-02 15:44:23,2020-11-02 15:44:53,0,DF:DC:EF:28:D6:3E,36,36,29850.874100063163,-1500.3534457513852,-20740.0
41600,-32275,-31497,2046,15353,30978,18187,2263,-24550,-28721,36,-1,12288,2020-11-02 15:44:23,2020-11-02 15:44:53,0,DF:DC:EF:28:D6:3E,36,36,36626.701626337905,12780.107734202169,23088.44568777643
41601,28650,32244,2308,29432,11519,-244,6100,23580,-23603,36,-1,12314,2020-11-02 15:44:23,2020-11-02 15:44:53,0,DF:DC:EF:28:D6:3E,36,36,14564.569879374147,-40544.86955790631,3132.372385459495
41602,3565,26104,-9728,12541,-24839,-19700,-32046,29726,-12596,36,-1,12339,2020-11-02 15:44:23,2020-11-02 15:44:53,0,DF:DC:EF:28:D6:3E,36,36,23682.39625850282,11537.295310242745,9736.372495930007
41603,8680,-6660,3576,-27645,-32004,4615,-16941,9504,-10035,36,-1,12365,2020-11-02 15:44:23,2020-11-02 15:44:53,0,DF:DC:EF:28:D6:3E,36,36,9678.993786702797,-3926.333241360318,-4835.9862029122505
41604,-6938,-6145,-4874,-11776,20490,15617,-3380,8224,-28730,36,-1,12391,2020-11-02 15:44:23,2020-11-02 15:44:53,0,DF:DC:EF:28:D6:3E,36,36,3665.856552236097,-9270.608841758367,3204.6922537958726
41605,24299,25088,15615,28921,19462,10499,8133,12063,16831,36,1,12416,2020-11-02 15:44:23,2020-11-02 15:44:53,0,DF:DC:EF:28:D6:3E,36,36,-7350.653487598071,15062.941561506888,-34391.176990907
41606,-26644,-19967,-3071,14074,-30213,12041,16062,-20705,-2235,36,1,12442,2020-11-02 15:44:23,2020-11-02 15:44:53,0,DF:DC:EF:28:D6:3E,36,36,28759.177194911998,11101.65628311846,12949.04710174266
41607,5611,1026,15872,1792,-26370,-3577,-29888,17952,-6853,36,1,12468,2020-11-02 15:44:23,2020-11-02 15:44:53,0,DF:DC:EF:28:D6:3E,36,36,-15145.320305335248,-4043.4050880022423,-6223.064288846564
41608,23533,-24318,-12802,30467,8967,23811,16957,28191,13880,36,1,12493,2020-11-02 15:44:23,2020-11-02 15:44:53,0,DF:DC:EF:28:D6:3E,36,36,-18671.898183349047,-11492.038476095955,28781.099473344948
41609,-24592,-21245,-21251,-766,16902,10242,9534,18206,-27848,36,1,12519,2020-11-02 15:44:23,2020-11-02 15:44:53,0,DF:DC:EF:28:D6:3E,36,36,-18051.491310884845,11103.965565415509,32535.6281662905
41610,22770,7940,-8195,-20480,-5886,-29693,-27331,-31203,-16073,36,1,12544,2020-11-02 15:44:23,2020-11-02 15:44:53,0,DF:DC:EF:28:D6:3E,36,36,-6303.107027282977,-16204.532890982953,-18610.70876102433
41611,-29453,-21756,-5378,-27136,-7424,14597,-29637,1309,-27083,36,1,12570,2020-11-02 15:44:23,2020-11-02 15:44:53,0,DF:DC:EF:28:D6:3E,36,36,20019.359880889107,-21627.13947372003,-22387.89175299247
41612,-4109,8962,-8195,23809,-22784,-18684,-31687,-30180,18739,36,1,12596,2020-11-02 15:44:23,2020-11-02 15:44:53,0,DF:DC:EF:28:D6:3E,36,36,-6265.414693726949,-9612.587567670676,5718.574032876866
41613,-6156,4863,-13571,3327,-21507,18178,56,22044,-22223,36,1,12621,2020-11-02 15:44:23,2020-11-02 15:44:53,0,DF:DC:EF:28:D6:3E,36,36,-3451.1636800858805,-5404.109894490319,14303.922940981189
41614,-4629,2303,-4350,-262,28152,5630,-22475,3869,-15569,36,1,12647,2020-11-02 15:44:23,2020-11-02 15:44:53,0,DF:DC:EF:28:D6:3E,36,36,-705.0036967848614,5413.3938059793,3981.467981650063
41615,28646,-24579,-10231,19452,22522,-19206,-25549,22302,27694,36,1,12672,2020-11-02 15:44:23,2020-11-02 15:44:53,0,DF:DC:EF:28:D6:3E,36,36,37654.39090320278,7172.385621919979,7752.267294106601
41616,-20502,12282,-16374,-1023,-8199,14587,-19662,-28129,-30163,36,1,12698,2020-11-02 15:44:23,2020-11-02 15:44:53,0,DF:DC:EF:28:D6:3E,36,36,20784.63409996652,19252.13723610038,6053.230639325258
41617,-1300,-29195,12812,21764,28405,-21767,-3795,6945,12840,36,1,12724,2020-11-02 15:44:23,2020-11-02 15:44:53,0,DF:DC:EF:28:D6:3E,36,36,22352.7886431039,21313.791252243533,8016.265423032872
41618,32494,11251,16139,11527,-4876,-19979,-6390,16674,14340,36,-1,12749,2020-11-02 15:44:23,2020-11-02 15:44:53,0,DF:DC:EF:28:D6:3E,36,36,-11966.191004771914,-21094.993417302827,-29235.661161692005
41619,-24334,-23820,-11005,28168,-6410,3570,31475,21792,30443,36,-1,12775,2020-11-02 15:44:23,2020-11-02 15:44:53,0,DF:DC:EF:28:D6:3E,36,36,-8975.830413589198,-30679.638237080886,-16088.512890516991
41620,15092,23293,-2053,10244,-780,24561,-27665,-18659,-29978,36,-1,12800,2020-11-02 15:44:23,2020-11-02 15:44:53,0,DF:DC:EF:28:D6:3E,36,36,8112.464833595724,-20772.475795462764,-16650.50406596107
41621,-27915,-25849,-9224,17918,13557,-10508,-21778,13851,-31003,36,-1,12826,2020-11-02 15:44:23,2020-11-02 15:44:53,0,DF:DC:EF:28:D6:3E,36,36,-16699.46360915928,29172.390560591437,20064.888391084573
41622,21493,-6139,-31233,3581,-13323,16121,-15890,15129,7910,36,-1,12852,2020-11-02 15:44:23,2020-11-02 15:44:53,0,DF:DC:EF:28:D6:3E,36,36,26043.644362502957,-7274.42764928868,-27275.409248895467
41623,7926,-23038,-18943,17667,12281,-13062,20975,-14057,-19738,36,-1,12877,2020-11-02 15:44:23,2020-11-02 15:44:53,0,DF:DC:EF:28:D6:3E,36,36,20816.34385502807,-22770.961309476308,755.8561712178525
41624,-12810,16386,7675,30475,29182,-3079,16624,-12778,17382,36,-1,12903,2020-11-02 15:44:23,2020-11-02 15:44:53,0,DF:DC:EF:28:D6:3E,36,36,7207.210716022257,12909.954594709005,-16519.440276758953
41625,-29962,25601,-10506,-14324,30469,25081,-30992,-27882,18404,36,-1,12929,2020-11-02 15:44:23,2020-11-02 15:44:53,0,DF:DC:EF:28:D6:3E,36,36,-37995.31937635211,-12095.641435815667,8576.70360600043
41626,-22539,-6655,2042,26376,20999,-28422,-12049,-9962,-26399,36,-1,12954,2020-11-02 15:44:23,2020-11-02 15:44:53,0,DF:DC:EF:28:D6:3E,36,36,7319.834106045441,-15552.681820810949,-16155.47668255538
41627,-21514,28418,3070,-20731,26118,4606,-5906,20759,27615,36,-1,12980,2020-11-02 15:44:23,2020-11-02 15:44:53,0,DF:DC:EF:28:D6:3E,36,36,1706.257999814523,-25466.976205824067,25067.541294870938
41628,-28170,30979,24062,21766,25092,-15871,-18,-2281,30174,36,-1,13005,2020-11-02 15:44:23,2020-11-02 15:44:53,0,DF:DC:EF:28:D6:3E,36,36,21715.751340290284,35800.467660725895,24062.0
41629,-19214,22018,-15106,17926,16901,-29181,-21265,-9448,8670,36,-1,13031,2020-11-02 15:44:23,2020-11-02 15:44:53,0,DF:DC:EF:28:D6:3E,36,36,9140.312758796083,-30053.74116849972,-9766.712878354443
41630,17902,27901,-9219,-7419,15624,10756,4592,7962,-30755,36,-1,13056,2020-11-02 15:44:23,2020-11-02 15:44:53,0,DF:DC:EF:28:D6:3E,36,36,-26211.741365092934,9750.770689803647,-20045.060527829344
41631,-5397,-16137,-22017,-32253,21003,16643,14319,-23013,-8997,36,-1,13082,2020-11-02 15:44:23,2020-11-02 15:44:53,0,DF:DC:EF:28:D6:3E,36,36,22149.593559895082,14986.281853512595,7686.711152276595
41632,15341,25081,-11009,-12035,-10488,-29950,24812,2845,-8744,36,-1,13108,2020-11-02 15:44:23,2020-11-02 15:44:53,0,DF:DC:EF:28:D6:3E,36,36,-12517.159850584201,-26268.345230271945,-11785.400762730646
41633,-16666,28907,7692,26873,-16896,-18173,-30230,-11235,-14633,36,-1,13135,2020-11-02 15:44:23,2020-11-02 15:44:53,0,DF:DC:EF:28:D6:3E,36,36,14967.118028736979,30724.214419449927,2131.922892958772
41634,12525,22775,4101,13047,-30470,-14334,-8725,-5347,28378,36,-1,13184,2020-11-02 15:44:23,2020-11-02 15:44:53,0,DF:DC:EF:28:D6:3E,36,36,3737.48866019957,-19777.92847353041,-16948.721922634602
41635,-14102,-11015,-18688,-15877,7674,2048,5871,11549,-17186,36,-1,13187,2020-11-02 15:44:23,2020-11-02 15:44:53,0,DF:DC:EF:28:D6:3E,36,36,13773.404026059898,6608.583156351342,20882.0004597382
41636,10221,-14596,-6146,-10246,-7676,-8197,-16404,2845,-548,36,-1,13210,2020-11-02 15:44:23,2020-11-02 15:44:53,0,DF:DC:EF:28:D6:3E,36,36,10221.0,485.53724097145096,15829.743699366389
41637,-2322,4095,28160,-16393,20483,31997,28392,1309,-23847,36,1,13236,2020-11-02 15:44:23,2020-11-02 15:44:53,0,DF:DC:EF:28:D6:3E,36,36,-12585.168978418596,-13937.870825785361,-21505.71058180528
41638,30192,-18431,17922,14327,-28674,-1535,999,6429,-27943,36,1,13261,2020-11-02 15:44:23,2020-11-02 15:44:53,0,DF:DC:EF:28:D6:3E,36,36,-6571.632403387894,35806.09839075278,-15722.394047551212
41639,10482,-15104,30722,24826,-1026,-13565,-14105,30749,31451,36,1,13287,2020-11-02 15:44:23,2020-11-02 15:44:53,0,DF:DC:EF:28:D6:3E,36,36,33400.511520403,7728.756934895013,10320.686528363254
41640,29940,-29442,-17920,13821,8707,32002,15335,1310,32731,36,1,13313,2020-11-02 15:44:23,2020-11-02 15:44:53,0,DF:DC:EF:28:D6:3E,36,36,35867.07015961359,-20612.54367484306,-19314.18352967693
41641,19187,22269,-30721,-19459,-15102,21248,14821,25886,-12327,36,1,13338,2020-11-02 15:44:23,2020-11-02 15:44:53,0,DF:DC:EF:28:D6:3E,36,36,32596.89554160387,26367.906537719005,-7071.426791523843
41642,-7184,-31490,7678,25341,-31229,-2050,-27678,29470,32215,36,1,13364,2020-11-02 15:44:23,2020-11-02 15:44:53,0,DF:DC:EF:28:D6:3E,36,36,21435.271112548642,-20384.436270012375,-15072.675617996345
41643,-17168,-23044,-22018,-2309,-28157,8959,12511,27678,-28972,36,1,13389,2020-11-02 15:44:23,2020-11-02 15:44:53,0,DF:DC:EF:28:D6:3E,36,36,-22679.85913833732,27717.23329533188,-5285.589079499373
41644,8942,-2823,8192,9722,17664,-14082,10717,18462,18899,36,1,13415,2020-11-02 15:44:23,2020-11-02 15:44:53,0,DF:DC:EF:28:D6:3E,36,36,9665.458344289442,7125.926895192223,-3292.0567855341924
41645,-6168,-6920,9985,6649,-8450,5630,-16164,798,-6957,36,1,13441,2020-11-02 15:44:23,2020-11-02 15:44:53,0,DF:DC:EF:28:D6:3E,36,36,6730.626558277907,11651.706626121195,2137.1120307105
41646,-17947,15606,6405,-28425,6911,-6403,10972,-20451,32724,36,1,13466,2020-11-02 15:44:23,2020-11-02 15:44:53,0,DF:DC:EF:28:D6:3E,36,36,7293.098277063244,-13929.21950891643,-18959.262416916936
41647,-13338,-6670,1546,30198,-21509,-30210,-31268,26141,20950,36,1,13492,2020-11-02 15:44:23,2020-11-02 15:44:53,0,DF:DC:EF:28:D6:3E,36,36,-12618.355319372671,5207.338568467642,-6200.160809802337
41648,19691,26352,27147,-8713,14327,28671,31711,10781,-15654,36,1,13517,2020-11-02 15:44:23,2020-11-02 15:44:53,0,DF:DC:EF:28:D6:3E,36,36,32192.620279995204,-10175.05370787934,-26061.973746242093
41649,21998,-31250,-6644,-19974,-28684,-9476,996,29980,-32032,36,1,13543,2020-11-02 15:44:23,2020-11-02 15:44:53,0,DF:DC:EF:28:D6:3E,36,36,33543.67396528566,3228.6405225383332,19209.764633822044
41650,-24331,-15119,-9973,-11012,-16393,-12295,31974,6939,-18717,36,1,13569,2020-11-02 15:44:23,2020-11-02 15:44:53,0,DF:DC:EF:28:D6:3E,36,36,1338.864824374434,14182.916573869385,26778.625234330346
41651,10490,32245,12812,-29701,-19469,-13832,15848,25369,14310,36,1,13594,2020-11-02 15:44:23,2020-11-02 15:44:53,0,DF:DC:EF:28:D6:3E,36,36,33203.19208817757,-12310.56757209088,-7741.151736567817
41652,-7177,-19717,5639,4346,21999,-25098,-4887,1559,5097,36,1,13645,2020-11-02 15:44:23,2020-11-02 15:44:53,0,DF:DC:EF:28:D6:3E,36,36,-7177.0,-19717.0,5639.0
41653,3062,-5373,22273,-20227,30455,-25868,24042,-28140,22762,36,1,13647,2020-11-02 15:44:23,2020-11-02 15:44:53,0,DF:DC:EF:28:D6:3E,36,36,6968.190720717609,-21567.47688177824,4540.898703303785
41654,8950,23298,14590,-10493,28418,-1034,-13591,12563,19945,36,1,13671,2020-11-02 15:44:23,2020-11-02 15:44:53,0,DF:DC:EF:28:D6:3E,36,36,27719.405883641466,-7558.66662315289,3204.450083552157
41655,-12809,2816,3323,13575,13062,-3846,21993,-11502,29159,36,1,13697,2020-11-02 15:44:23,2020-11-02 15:44:53,0,DF:DC:EF:28:D6:3E,36,36,-864.913237894538,-8557.271579753478,-10443.547969979274
41656,-18954,18687,22519,-27642,-23805,-22019,25833,-10478,5094,36,-1,13722,2020-11-02 15:44:23,2020-11-02 15:44:53,0,DF:DC:EF:28:D6:3E,36,36,14045.451217756876,4827.797048760916,-31543.321349306054
41657,29683,11263,31735,-29951,12290,6144,28905,-494,27109,36,-1,13748,2020-11-02 15:44:23,2020-11-02 15:44:53,0,DF:DC:EF:28:D6:3E,36,36,6046.40127202994,-44443.81701854523,-1798.344649855444
41658,5108,29184,-15878,-2309,-1791,14083,-4888,32019,10981,36,-1,13773,2020-11-02 15:44:23,2020-11-02 15:44:53,0,DF:DC:EF:28:D6:3E,36,36,-15548.085465763366,29799.497496825654,394.1970141942047
41659,7670,5890,12543,31737,20738,20742,11240,25108,22757,36,-1,13799,2020-11-02 15:44:23,2020-11-02 15:44:53,0,DF:DC:EF:28:D6:3E,36,36,14794.546141163979,5337.801577633277,-1864.7058199045132
41660,32002,-11774,-21509,5369,28161,13832,-30745,-25067,-11803,36,-1,13825,2020-11-02 15:44:23,2020-11-02 15:44:53,0,DF:DC:EF:28:D6:3E,36,36,29900.076248529236,23795.443994615398,-12851.24299168216
41661,-13065,-20990,20482,23546,-17152,1546,21223,-11498,-12570,36,-1,13850,2020-11-02 15:44:23,2020-11-02 15:44:53,0,DF:DC:EF:28:D6:3E,36,36,5210.605942301516,-31603.104404552956,-2209.0782487222477
41662,30962,32511,3333,18939,-10497,-6644,3304,30488,31720,36,-1,13876,2020-11-02 15:44:23,2020-11-02 15:44:53,0,DF:DC:EF:28:D6:3E,36,36,32760.3095706436,3864.963197122523,30635.659456269022
41663,9709,7416,-29945,-19205,21246,31247,8682,15898,-30229,36,-1,13902,2020-11-02 15:44:23,2020-11-02 15:44:53,0,DF:DC:EF:28:D6:3E,36,36,-31714.825114523326,-4256.419045246725,-4692.283758092788
41664,496,-24332,10504,3325,12030,16,27374,-3813,-21520,36,-1,13927,2020-11-02 15:44:23,2020-11-02 15:44:53,0,DF:DC:EF:28:D6:3E,36,36,2875.227692237826,-23685.187432212275,11548.64572228113
41665,9712,11756,3086,5374,-14340,8460,7924,-7396,1783,36,-1,13953,2020-11-02 15:44:23,2020-11-02 15:44:53,0,DF:DC:EF:28:D6:3E,36,36,-4479.741040224757,3755.0144486686822,14418.10191054341
41666,13043,18673,-20215,-31487,21753,28931,22008,-22500,29947,36,-1,13978,2020-11-02 15:44:23,2020-11-02 15:44:53,0,DF:DC:EF:28:D6:3E,36,36,-19560.618208961027,11012.263396333414,-20580.555706127998
41667,10982,28403,2565,-14589,-7429,23287,-1801,29723,-29446,36,-1,14004,2020-11-02 15:44:23,2020-11-02 15:44:53,0,DF:DC:EF:28:D6:3E,36,36,-27050.37501413154,8685.467737564995,11258.499890063762
41668,-30239,-2569,25091,-31487,32265,28913,-28942,8219,25076,36,-1,14030,2020-11-02 15:44:23,2020-11-02 15:44:53,0,DF:DC:EF:28:D6:3E,36,36,-10640.832757305625,25604.301507650933,27959.74938257415
41669,-20761,8444,5892,-13311,-4853,-20743,6380,27675,15597,36,-1,14055,2020-11-02 15:44:23,2020-11-02 15:44:53,0,DF:DC:EF:28:D6:3E,36,36,-2047.108229178234,5423.721674037793,-22437.212663354672
41670,-14861,24319,5889,-2307,1025,7682,-14359,-5861,-13334,36,-1,14081,2020-11-02 15:44:23,2020-11-02 15:44:53,0,DF:DC:EF:28:D6:3E,36,36,-9593.436510631967,-9510.740956146416,-25777.028249616997
41671,32503,-32255,6658,26105,28153,31236,-12309,-1253,-16147,36,-1,14106,2020-11-02 15:44:23,2020-11-02 15:44:53,0,DF:DC:EF:28:D6:3E,36,36,4184.291228641809,-37660.15227551733,26558.68286453149
41672,-7,-3071,-20220,4859,2301,-22269,-2835,-741,-16,36,-1,14132,2020-11-02 15:44:23,2020-11-02 15:44:53,0,DF:DC:EF:28:D6:3E,36,36,-7.0,-3071.0,-20220.0
41673,2810,-2560,-17150,-32000,20228,-25089,-18707,18972,-272,36,-1,14159,2020-11-02 15:44:23,2020-11-02 15:44:53,0,DF:DC:EF:28:D6:3E,36,36,-334.9089853039309,114.17265307041725,-17562.65926836974
41674,18425,29183,16894,-16126,32264,-17923,-19222,-14308,32237,36,-1,14183,2020-11-02 15:44:23,2020-11-02 15:44:53,0,DF:DC:EF:28:D6:3E,36,36,-22216.8968988892,-18340.64649681266,25427.652826462
41675,8951,-21762,28156,30976,-3066,-32002,-23834,10525,233,36,1,14209,2020-11-02 15:44:23,2020-11-02 15:44:53,0,DF:DC:EF:28:D6:3E,36,36,-24508.814067883566,-7083.938580656106,-26374.253130115452
41676,25588,28926,-3588,2045,-1022,7425,-7453,26909,28134,36,1,14234,2020-11-02 15:44:23,2020-11-02 15:44:53,0,DF:DC:EF:28:D6:3E,36,36,7475.769274298227,-10635.620914850804,36542.15928914227
41677,-14351,-23301,-8449,1531,25343,-11262,7395,-13027,20966,36,1,14260,2020-11-02 15:44:23,2020-11-02 15:44:53,0,DF:DC:EF:28:D6:3E,36,36,-26898.713944184998,9369.709809769163,-2990.172107023818
41678,-7186,-3079,-10750,-12038,-16131,-7166,-5149,9246,-2073,36,1,14286,2020-11-02 15:44:23,2020-11-02 15:44:53,0,DF:DC:EF:28:D6:3E,36,36,-12928.42545665334,-3079.0,238.56070874704255
41679,21997,-19209,-765,-16901,12797,23298,-28699,23582,24298,36,1,14337,2020-11-02 15:44:23,2020-11-02 15:44:53,0,DF:DC:EF:28:D6:3E,36,36,-3389.64916711481,3289.2463628945848,28829.326247556713
41680,-14356,-4107,5893,-25349,8957,-4353,10983,18462,-20756,36,1,14339,2020-11-02 15:44:23,2020-11-02 15:44:53,0,DF:DC:EF:28:D6:3E,36,36,-15045.045624798902,5105.748923550395,2295.117443048034
41681,-5398,-16,-10233,-17413,17149,-29700,23271,-15331,-28947,36,1,14362,2020-11-02 15:44:23,2020-11-02 15:44:53,0,DF:DC:EF:28:D6:3E,36,36,6325.062803437735,-5882.509058590065,-7696.922547887189
41682,32486,-2325,-4343,25597,-6150,7673,-26649,-25060,22766,36,1,14388,2020-11-02 15:44:23,2020-11-02 15:44:53,0,DF:DC:EF:28:D6:3E,36,36,19534.895246148226,-7639.733893122444,-25290.90357745827
41683,-21016,28136,-2297,18432,10752,-12298,-16922,13595,-26387,36,1,14414,2020-11-02 15:44:23,2020-11-02 15:44:53,0,DF:DC:EF:28:D6:3E,36,36,19363.153021604892,-1310.6820198733426,29358.701924722325
41684,-24594,1770,-31997,31489,-30458,-11531,9956,-4583,-27414,36,1,14439,2020-11-02 15:44:23,2020-11-02 15:44:53,0,DF:DC:EF:28:D6:3E,36,36,-5024.609995419874,-36836.96135210363,-15798.649237752892
41685,-20237,-12562,-29947,-9218,-18167,-9994,25824,-15592,28902,36,-1,14465,2020-11-02 15:44:23,2020-11-02 15:44:53,0,DF:DC:EF:28:D6:3E,36,36,-18971.46865850361,13182.259929520871,-30503.6755504966
41686,-3853,8695,2056,10238,-3581,-16137,1502,-31721,4580,36,-1,14490,2020-11-02 15:44:23,2020-11-02 15:44:53,0,DF:DC:EF:28:D6:3E,36,36,878.597908117602,8695.0,4277.944683589465
41687,-19468,-14848,-16635,-9472,32252,12025,9694,24854,16868,36,-1,14516,2020-11-02 15:44:23,2020-11-02 15:44:53,0,DF:DC:EF:28:D6:3E,36,36,-17494.585904622745,23867.346521520223,-691.7998608353291
41688,28146,17159,16387,-19964,-9219,17403,29407,-29675,15845,36,-1,14567,2020-11-02 15:44:23,2020-11-02 15:44:53,0,DF:DC:EF:28:D6:3E,36,36,-17325.82979713822,-11599.076703696232,-30338.744329031957
41689,26098,5888,-2305,14603,-28666,1533,224,8981,21476,36,-1,14569,2020-11-02 15:44:23,2020-11-02 15:44:53,0,DF:DC:EF:28:D6:3E,36,36,-12870.430125950446,-4112.884502532988,-23206.106576542545
41690,17399,13823,-5641,-32242,29452,2559,-11297,7957,-31519,36,-1,14593,2020-11-02 15:44:23,2020-11-02 15:44:53,0,DF:DC:EF:28:D6:3E,36,36,-3447.330715953529,-2058.3221434759557,-22572.120677697076
41691,-26888,-4606,-10251,15113,-21496,8705,15839,27157,-26146,36,-1,14619,2020-11-02 15:44:23,2020-11-02 15:44:53,0,DF:DC:EF:28:D6:3E,36,36,-19954.39382292165,5910.797050101059,-20399.691821011977
41692,11253,-15873,-10244,17663,29952,-13309,-8226,-4587,-27683,36,-1,14644,2020-11-02 15:44:23,2020-11-02 15:44:53,0,DF:DC:EF:28:D6:3E,36,36,5658.711177848762,19756.515810147892,7821.812120542518
41693,-14859,19457,-15617,24825,-25604,32006,-12578,-15594,25822,36,-1,14670,2020-11-02 15:44:23,2020-11-02 15:44:53,0,DF:DC:EF:28:D6:3E,36,36,-27569.3723134138,2192.1688009076915,-8853.22117608611
41694,-12297,-20479,12801,19197,27900,13064,11743,-5609,-18209,36,-1,14695,2020-11-02 15:44:23,2020-11-02 15:44:53,0,DF:DC:EF:28:D6:3E,36,36,11733.975601516779,4821.798188369024,-23948.597658603103
41695,3063,-256,-18946,11780,-2560,12808,6624,12057,29152,36,-1,14721,2020-11-02 15:44:23,2020-11-02 15:44:53,0,DF:DC:EF:28:D6:3E,36,36,12097.536345602506,14818.931947470564,1564.3820834638182
41696,27636,-11266,-21253,-2556,-24060,-10489,4064,32538,-28449,36,-1,14747,2020-11-02 15:44:23,2020-11-02 15:44:53,0,DF:DC:EF:28:D6:3E,36,36,-9919.23228758003,28720.39005287968,20472.158826940547
41697,25327,-2820,-30727,-24319,1794,-16888,26591,-10981,23262,36,-1,14772,2020-11-02 15:44:23,2020-11-02 15:44:53,0,DF:DC:EF:28:D6:3E,36,36,-12927.73676843119,17788.365779652682,33316.745383296875
41698,-18966,3064,23549,-7172,-24579,30476,9952,30237,22239,36,-1,14798,2020-11-02 15:44:23,2020-11-02 15:44:53,0,DF:DC:EF:28:D6:3E,36,36,22415.34937786174,15148.659937010916,-13846.402687383958
41699,25836,-12041,-28416,1274,30460,16656,13796,-29153,18148,36,-1,14823,2020-11-02 15:44:23,2020-11-02 15:44:53,0,DF:DC:EF:28:D6:3E,36,36,-12440.79484567658,-29387.873918797726,-24526.172207269425
41700,4594,9206,28677,-18182,-25348,19983,-2318,15905,1268,36,-1,14849,2020-11-02 15:44:23,2020-11-02 15:44:53,0,DF:DC:EF:28:D6:3E,36,36,24164.1437419825,9206.0,-16111.155210499586
41701,13043,-26125,11780,16126,28920,-16887,20486,-27616,-2553,36,-1,14875,2020-11-02 15:44:23,2020-11-02 15:44:53,0,DF:DC:EF:28:D6:3E,36,36,-20141.538240853108,24201.1602787414,161.71720663306587
41702,-19481,26101,-15619,1792,-5639,31742,-24058,21023,21000,36,1,14900,2020-11-02 15:44:23,2020-11-02 15:44:53,0,DF:DC:EF:28:D6:3E,36,36,-22539.536038657985,8506.158895451064,-26913.552329772006
41703,-30245,17911,22782,26621,-14079,-12553,28160,25375,16642,36,1,14926,2020-11-02 15:44:23,2020-11-02 15:44:53,0,DF:DC:EF:28:D6:3E,36,36,-22218.040537957862,35248.960816730796,-4295.684578066506
41704,14305,16890,26626,6651,-25340,-20743,-21769,-14561,2042,36,1,14951,2020-11-02 15:44:23,2020-11-02 15:44:53,0,DF:DC:EF:28:D6:3E,36,36,20183.00740935051,-12963.5119329795,24968.83199666337
41705,15856,-3331,-17403,-5638,-23037,-13572,4849,-737,9972,36,1,14977,2020-11-02 15:44:23,2020-11-02 15:44:53,0,DF:DC:EF:28:D6:3E,36,36,11369.973212240327,11542.616954267232,-17403.0
41706,-26887,-14336,-16633,-24836,-32765,5884,25579,-3041,4591,36,1,15003,2020-11-02 15:44:23,2020-11-02 15:44:53,0,DF:DC:EF:28:D6:3E,36,36,-26887.0,-3217.260955756028,21721.574918558916
41707,28412,9218,23558,26624,2821,23035,23013,-20705,8937,36,1,15028,2020-11-02 15:44:23,2020-11-02 15:44:53,0,DF:DC:EF:28:D6:3E,36,36,-23423.700277994103,-14634.210825217117,26160.32818620204
41708,17659,-16383,-5630,-1790,-16380,-1541,30176,16159,-10525,36,1,15054,2020-11-02 15:44:23,2020-11-02 15:44:53,0,DF:DC:EF:28:D6:3E,36,36,-5490.269123820612,-10042.672454631384,-21930.379497788224
41709,4860,-6911,-15360,-27645,-32508,-14339,-1828,-8674,-15905,36,1,15079,2020-11-02 15:44:23,2020-11-02 15:44:53,0,DF:DC:EF:28:D6:3E,36,36,-12755.597181696654,-11264.369408250099,-4209.494431968249
41710,-4101,26369,10751,9219,259,15871,-16934,-21986,-2852,36,1,15105,2020-11-02 15:44:23,2020-11-02 15:44:53,0,DF:DC:EF:28:D6:3E,36,36,8075.001055653861,-1197.5192971086944,27587.799268594103
41711,-28167,29952,-515,-12543,-15871,-3841,30425,-27362,18395,36,1,15131,2020-11-02 15:44:23,2020-11-02 15:44:53,0,DF:DC:EF:28:D6:3E,36,36,2272.347141584542,-8407.21263348868,40186.09998747627
41712,-1034,25343,-14083,-24320,15872,-21504,-8488,-24034,-32038,36,1,15156,2020-11-02 15:44:23,2020-11-02 15:44:53,0,DF:DC:EF:28:D6:3E,36,36,-7786.592535073223,-19827.482930236984,19695.369794545695
41713,-6415,10495,-11780,-23041,8191,30465,4569,-11746,-19494,36,1,15183,2020-11-02 15:44:23,2020-11-02 15:44:53,0,DF:DC:EF:28:D6:3E,36,36,-11766.139699641446,-12278.312988217303,-930.9332585614102
41714,14572,18687,-14083,26622,-21250,22018,32729,10527,20699,36,-1,15208,2020-11-02 15:44:23,2020-11-02 15:44:53,0,DF:DC:EF:28:D6:3E,36,36,11618.868432039355,6630.434590256253,-24102.22553008939
41715,-31000,25342,-23041,18173,-9987,-2814,9690,-23521,21724,36,-1,15233,2020-11-02 15:44:23,2020-11-02 15:44:53,0,DF:DC:EF:28:D6:3E,36,36,-31378.26004298441,-28942.212980895518,17659.494597618905
41716,1506,-25859,-20991,-27652,13052,3074,-292,3360,-19745,36,-1,15259,2020-11-02 15:44:23,2020-11-02 15:44:53,0,DF:DC:EF:28:D6:3E,36,36,-5140.150988300377,25387.689237452756,-20991.0
41717,4835,-4357,-24572,-14341,-7941,14593,3297,17184,24804,36,-1,15284,2020-11-02 15:44:23,2020-11-02 15:44:53,0,DF:DC:EF:28:D6:3E,36,36,12622.315215420229,21280.09699416253,5829.107008934212
41718,28639,-18695,14089,-10245,30714,4096,16614,4640,19434,36,-1,15310,2020-11-02 15:44:23,2020-11-02 15:44:53,0,DF:DC:EF:28:D6:3E,36,36,-27642.388408869618,9022.412233450297,-22862.40817461881
41719,8420,-8455,3595,-29699,-21508,-10752,23786,-14817,-3346,36,-1,15336,2020-11-02 15:44:23,2020-11-02 15:44:53,0,DF:DC:EF:28:D6:3E,36,36,-7185.625519312673,8247.261785033841,5971.340632163174
41720,-24597,-26637,19465,-13054,10238,-1795,2028,32543,-29712,36,-1,15361,2020-11-02 15:44:23,2020-11-02 15:44:53,0,DF:DC:EF:28:D6:3E,36,36,18269.00164281798,-32145.316923193444,-18065.175943847516
41721,-3852,9202,3,-12285,-16896,3576,-27415,-19938,29677,36,-1,15387,2020-11-02 15:44:23,2020-11-02 15:44:53,0,DF:DC:EF:28:D6:3E,36,36,-4966.907571323654,-4421.494407068545,-7436.0563060125705
41722,-8974,-23054,-1276,-25856,17143,7670,-22808,5149,11244,36,-1,15412,2020-11-02 15:44:23,2020-11-02 15:44:53,0,DF:DC:EF:28:D6:3E,36,36,-23902.2837469009,4682.822218599376,4516.611091474348
41723,-22295,16891,14342,13820,24556,-13572,-24084,-17126,-17168,36,-1,15438,2020-11-02 15:44:23,2020-11-02 15:44:53,0,DF:DC:EF:28:D6:3E,36,36,-22480.036560670356,3493.2775176439286,-21691.26179860562
41724,-20753,-25082,3074,1787,-15628,3335,-19216,26393,-2315,36,-1,15464,2020-11-02 15:44:23,2020-11-02 15:44:53,0,DF:DC:EF:28:D6:3E,36,36,13189.43841583601,25264.794704508404,-16030.34846202394
41725,15354,-9209,17921,1276,6143,12809,26867,-18919,-20487,36,-1,15489,2020-11-02 15:44:23,2020-11-02 15:44:53,0,DF:DC:EF:28:D6:3E,36,36,17148.79714357581,-17335.508390983712,6863.828622177225
41726,-23298,26369,-3070,2047,-15103,-1018,27381,31258,15612,36,1,15515,2020-11-02 15:44:23,2020-11-02 15:44:53,0,DF:DC:EF:28:D6:3E,36,36,13372.664616202233,17781.182323115274,-27432.59486914619
41727,-25600,-15104,1,19458,3584,30468,22519,-2790,8446,36,1,15540,2020-11-02 15:44:23,2020-11-02 15:44:53,0,DF:DC:EF:28:D6:3E,36,36,-26414.006893785245,-13462.675924181893,-2132.4665942328347
41728,6912,1023,-7682,-4349,-27139,-12799,13305,-8422,-28673,36,1,15566,2020-11-02 15:44:23,2020-11-02 15:44:53,0,DF:DC:EF:28:D6:3E,36,36,-6215.812357443441,2111.706436320854,8046.102762446828
41729,-17669,25855,23292,25604,14846,4862,-5127,-29670,-24065,36,1,15592,2020-11-02 15:44:23,2020-11-02 15:44:53,0,DF:DC:EF:28:D6:3E,36,36,-30890.351906956643,-3789.686790796448,23550.292632832457
41730,8950,-13312,19451,-11773,-17662,5628,14585,-29926,13566,36,1,15617,2020-11-02 15:44:23,2020-11-02 15:44:53,0,DF:DC:EF:28:D6:3E,36,36,18049.22321507256,-10249.061845538972,-14312.075936732695
41731,28148,24065,-3077,-15102,18694,1022,-5897,13083,17404,36,1,15643,2020-11-02 15:44:23,2020-11-02 15:44:53,0,DF:DC:EF:28:D6:3E,36,36,29852.558853729683,-14773.811081127644,-16476.08248412697
41732,19190,-24832,16638,1,-13051,13826,23031,10780,26107,36,1,15668,2020-11-02 15:44:23,2020-11-02 15:44:53,0,DF:DC:EF:28:D6:3E,36,36,10681.193779834011,-31728.917016540527,-11869.932282667847
41733,24568,-26625,1792,-769,-13055,-18427,-5896,-4836,-2052,36,1,15694,2020-11-02 15:44:23,2020-11-02 15:44:53,0,DF:DC:EF:28:D6:3E,36,36,24568.0,-12877.632888963471,23372.38670262595
41734,-22537,-22531,1,-31233,26110,15879,32508,6685,-17664,36,1,15720,2020-11-02 15:44:23,2020-11-02 15:44:53,0,DF:DC:EF:28:D6:3E,36,36,-6845.572331857177,5479.017843445701,30637.898653799926
41735,17650,-17671,27395,-1794,23293,3847,16640,-9700,-14076,36,1,15745,2020-11-02 15:44:23,2020-11-02 15:44:53,0,DF:DC:EF:28:D6:3E,36,36,-29551.379487492486,-22382.775140490525,10.64877682048791
41736,-6933,-29188,-4348,7166,3582,-31739,-3326,26140,-10745,36,1,15771,2020-11-02 15:44:23,2020-11-02 15:44:53,0,DF:DC:EF:28:D6:3E,36,36,-20334.4546054202,-22352.572488544985,-2404.8692364548815
41737,-28695,14579,-32755,-17668,-20482,773,-22012,7708,9226,36,1,15797,2020-11-02 15:44:23,2020-11-02 15:44:53,0,DF:DC:EF:28:D6:3E,36,36,21465.403307043685,-1837.8089470979503,40554.89132200856
41738,30443,-8456,-10232,18946,-28675,-26111,-14331,-24805,23051,36,-1,15822,2020-11-02 15:44:23,2020-11-02 15:44:53,0,DF:DC:EF:28:D6:3E,36,36,2718.7255828433063,11998.177104871436,-30848.440582391395
41739,6117,24059,-2816,17155,-17404,15096,32516,-7141,28681,36,-1,15848,2020-11-02 15:44:23,2020-11-02 15:44:53,0,DF:DC:EF:28:D6:3E,36,36,10589.907885044931,-21259.872777753822,-7749.495884248549
41740,-800,-20485,-1536,-18179,3592,-19724,-32257,21277,12804,36,-1,15873,2020-11-02 15:44:23,2020-11-02 15:44:53,0,DF:DC:EF:28:D6:3E,36,36,4794.054683685143,-51.20645583109183,19991.221538183145
41741,-19484,5374,-22265,-3339,6146,2806,-30985,-17891,5885,36,-1,15899,2020-11-02 15:44:23,2020-11-02 15:44:53,0,DF:DC:EF:28:D6:3E,36,36,-8737.987434107501,28728.521977518347,-1598.7362473606345
41742,1256,-12032,-2546,5879,15102,27389,7411,12829,10746,36,-1,15925,2020-11-02 15:44:23,2020-11-02 15:44:53,0,DF:DC:EF:28:D6:3E,36,36,-2264.817890564441,-11594.084810730299,3643.689520825313
41743,-6671,-16128,6155,12286,23551,29954,32499,5149,19195,36,-1,15950,2020-11-02 15:44:23,2020-11-02 15:44:53,0,DF:DC:EF:28:D6:3E,36,36,6416.934860242402,-2255.404046258052,17211.471453293256
41744,-11272,18431,27652,1796,-16381,-4864,18164,28701,-14085,36,-1,15976,2020-11-02 15:44:23,2020-11-02 15:44:53,0,DF:DC:EF:28:D6:3E,36,36,-28695.506335949016,-9477.298776912467,-17836.52356869587
41745,18681,-20482,29439,774,-5625,28158,-24590,13342,14329,36,-1,16001,2020-11-02 15:44:23,2020-11-02 15:44:53,0,DF:DC:EF:28:D6:3E,36,36,24467.194867755592,-32095.347471271798,-2528.21122566955
41746,13306,12799,16381,25860,-9463,12286,-18195,7711,25843,36,-1,16027,2020-11-02 15:44:23,2020-11-02 15:44:53,0,DF:DC:EF:28:D6:3E,36,36,-2625.9112897445775,12808.096993837764,-20934.622979524516
41747,-29956,-9217,-1794,26113,27144,12800,-24858,-10977,-12821,36,-1,16053,2020-11-02 15:44:23,2020-11-02 15:44:53,0,DF:DC:EF:28:D6:3E,36,36,11416.197145041531,7205.105253032384,-28342.37749445644
41748,-19971,-14080,31233,-20737,-21755,5890,-7969,23072,-2588,36,-1,16078,2020-11-02 15:44:23,2020-11-02 15:44:53,0,DF:DC:EF:28:D6:3E,36,36,-8683.852538871039,18674.206801881624,-33888.82168803898
41749,-13061,-5888,23810,-19713,14851,17922,-22310,-17632,-15137,36,-1,16104,2020-11-02 15:44:23,2020-11-02 15:44:53,0,DF:DC:EF:28:D6:3E,36,36,1639.272884075771,-18499.61580967475,20670.059610605043
41750,-30734,9986,-30975,-1,-12544,-11775,-23849,289,-17444,36,-1,16129,2020-11-02 15:44:23,2020-11-02 15:44:53,0,DF:DC:EF:28:D6:3E,36,36,32813.42805278429,-12408.216128021839,27804.040874395352
41751,-12565,-16381,11009,-3586,31232,-6142,-12587,22817,-550,36,-1,16155,2020-11-02 15:44:23,2020-11-02 15:44:53,0,DF:DC:EF:28:D6:3E,36,36,13894.74499195286,16827.35670140267,-8437.451928891776
41752,-17939,7426,18947,26622,11263,23812,-12847,-3295,12503,36,-1,16181,2020-11-02 15:44:23,2020-11-02 15:44:53,0,DF:DC:EF:28:D6:3E,36,36,-5390.527076353903,-22195.433743392154,-14637.17680366622
41753,13545,-25600,-25342,3326,11515,-32766,25307,-24542,3041,36,-1,16207,2020-11-02 15:44:23,2020-11-02 15:44:53,0,DF:DC:EF:28:D6:3E,36,36,18344.955931117496,-2445.6121419850497,-33742.04442733623
41754,483,13567,22531,-18436,-32263,-4096,24568,16674,30206,36,-1,16232,2020-11-02 15:44:23,2020-11-02 15:44:53,0,DF:DC:EF:28:D6:3E,36,36,1343.386657371706,24308.238090508232,9962.30958282066
41755,29151,-16900,-17660,13308,8183,-3074,508,5153,-22014,36,-1,16258,2020-11-02 15:44:23,2020-11-02 15:44:53,0,DF:DC:EF:28:D6:3E,36,36,-31244.19940461134,12617.083837594337,-17660.0
41756,31453,30457,15364,-3332,16886,-7941,30202,-32481,-24319,36,-1,16283,2020-11-02 15:44:23,2020-11-02 15:44:53,0,DF:DC:EF:28:D6:3E,36,36,-7945.673450868035,-26557.447651862232,-37209.41818452376
41757,23008,32503,32261,10751,6652,7674,-30985,17182,-2562,36,1,16309,2020-11-02 15:44:23,2020-11-02 15:44:53,0,DF:DC:EF:28:D6:3E,36,36,27087.38517030944,-21715.984010796266,-37699.79836919743
41758,5864,10998,-18941,17412,-12289,-3077,-268,-13283,1532,36,1,16334,2020-11-02 15:44:23,2020-11-02 15:44:53,0,DF:DC:EF:28:D6:3E,36,36,14782.717511992792,10998.0,13214.357341945222
41759,-2825,26872,20226,15878,-15355,11264,-11789,3614,-5127,36,1,16360,2020-11-02 15:44:23,2020-11-02 15:44:53,0,DF:DC:EF:28:D6:3E,36,36,-2825.0,7208.751963281427,-32851.62636966222
41760,-19962,-28421,20737,-5372,3581,-6400,-26892,30238,-13319,36,1,16385,2020-11-02 15:44:23,2020-11-02 15:44:53,0,DF:DC:EF:28:D6:3E,36,36,-9014.004278954311,-26624.74378405587,-29088.28972786767
41761,-25339,-31490,26620,-25857,-5385,32252,-7179,16413,-6662,36,1,16411,2020-11-02 15:44:23,2020-11-02 15:44:53,0,DF:DC:EF:28:D6:3E,36,36,30313.913830579404,-37242.92993395394,6028.284930791238
41762,-13309,10240,-4610,31484,-7174,24058,-18700,2076,5114,36,1,16437,2020-11-02 15:44:23,2020-11-02 15:44:53,0,DF:DC:EF:28:D6:3E,36,36,-13309.0,-10788.086402344548,3118.7965267950126
41763,12032,-29183,-5374,19452,-21509,3321,-17934,-6630,-25352,36,1,16462,2020-11-02 15:44:23,2020-11-02 15:44:53,0,DF:DC:EF:28:D6:3E,36,36,-20348.686258919086,-19479.476524480186,15224.235641512609
41764,-20999,12547,17156,11775,-28676,-3592,17137,-13543,23031,36,1,16488,2020-11-02 15:44:23,2020-11-02 15:44:53,0,DF:DC:EF:28:D6:3E,36,36,-18931.95827171596,9934.385564872071,-20871.092099994843
41765,-15628,4611,6405,5892,-32257,-20486,28656,1049,6134,36,1,16514,2020-11-02 15:44:23,2020-11-02 15:44:53,0,DF:DC:EF:28:D6:3E,36,36,-14712.69919675561,-9125.323198400743,-2604.7435325797674
41766,-27662,-30206,30722,13064,-30205,5628,10224,-11752,-25356,36,1,16539,2020-11-02 15:44:23,2020-11-02 15:44:53,0,DF:DC:EF:28:D6:3E,36,36,19150.302431133583,42345.776042253005,-21483.27563886547
41767,-24589,-4351,8959,-28919,-15865,-3076,-30993,14105,22002,36,1,16565,2020-11-02 15:44:23,2020-11-02 15:44:53,0,DF:DC:EF:28:D6:3E,36,36,-7275.519448574455,10961.636725676999,23037.429111072794
41768,22006,-17920,-16130,21512,-30967,-25858,16366,3610,28399,36,1,16590,2020-11-02 15:44:23,2020-11-02 15:44:53,0,DF:DC:EF:28:D6:3E,36,36,2359.6581583589923,-31115.615564994616,-9582.16141521081
41769,21236,-23042,4096,-1786,18183,-18175,8429,1819,-1044,36,1,16616,2020-11-02 15:44:23,2020-11-02 15:44:53,0,DF:DC:EF:28:D6:3E,36,36,21236.0,-15896.31088558682,-17176.09618710765
41770,20977,30204,-7426,10501,13315,-9213,30445,-5093,24044,36,-1,16642,2020-11-02 15:44:23,2020-11-02 15:44:53,0,DF:DC:EF:28:D6:3E,36,36,-12616.56991047435,-16821.112033541795,-31069.82418117535
41771,5099,14845,5630,-17918,-14077,-5116,29166,-14564,-13332,36,-1,16667,2020-11-02 15:44:23,2020-11-02 15:44:53,0,DF:DC:EF:28:D6:3E,36,36,4838.803607747426,-12519.131908684643,9895.859836244876
41772,-8727,-1543,-766,-2050,-14075,21254,-26386,-995,-8212,36,-1,16693,2020-11-02 15:44:23,2020-11-02 15:44:53,0,DF:DC:EF:28:D6:3E,36,36,-3378.7243159600703,8201.67015356993,-667.0552366786064
41773,27118,17650,25608,5885,-29184,25352,-9488,3103,-27409,36,-1,16718,2020-11-02 15:44:23,2020-11-02 15:44:53,0,DF:DC:EF:28:D6:3E,36,36,-41250.50491249655,204.6380759890726,-1015.9014331880499
41774,-19991,30703,14598,1536,19958,22532,22007,-17890,26870,36,-1,16744,2020-11-02 15:44:23,2020-11-02 15:44:53,0,DF:DC:EF:28:D6:3E,36,36,-38432.267538280765,5155.980139477035,7196.705820535404
41775,-30501,7668,24322,25089,-23560,-32263,18680,15901,11767,36,-1,16770,2020-11-02 15:44:23,2020-11-02 15:44:53,0,DF:DC:EF:28:D6:3E,36,36,13443.508204443733,-2884.953128101737,37304.39708138586
41776,-26145,27129,11265,30461,20747,-14606,13809,1309,-1553,36,-1,16795,2020-11-02 15:44:23,2020-11-02 15:44:53,0,DF:DC:EF:28:D6:3E,36,36,-26145.0,-21532.883041878733,19980.43577865036
41777,-21,14075,13318,-31239,-13813,-18955,999,-12260,10982,36,-1,16821,2020-11-02 15:44:23,2020-11-02 15:44:53,0,DF:DC:EF:28:D6:3E,36,36,-18382.055785674893,-2578.124449288386,-5561.338815098182
41778,27635,-3585,2569,16374,30465,-9217,8162,32540,26338,36,-1,16846,2020-11-02 15:44:23,2020-11-02 15:44:53,0,DF:DC:EF:28:D6:3E,36,36,-9246.659876340867,-4435.40248635676,26037.88964020103
41779,-3591,17922,-16376,19957,-20744,-2555,-21277,-4068,-20507,36,-1,16872,2020-11-02 15:44:23,2020-11-02 15:44:53,0,DF:DC:EF:28:D6:3E,36,36,725.0950830248217,20359.701986869717,13682.964339879953
41780,-7172,-31228,-17911,22264,-774,13573,7655,26397,-19478,36,-1,16898,2020-11-02 15:44:23,2020-11-02 15:44:53,0,DF:DC:EF:28:D6:3E,36,36,-31833.550201163394,-2718.5834957823463,18073.84503547792
41781,-2563,-4861,20234,-22785,12033,13825,25832,-17891,-29460,36,-1,16923,2020-11-02 15:44:23,2020-11-02 15:44:53,0,DF:DC:EF:28:D6:3E,36,36,-16629.071383205042,8970.117439030499,9089.775798240133
41782,-8968,-1790,-13308,23558,1286,5886,26342,-5859,-9239,36,-1,16949,2020-11-02 15:44:23,2020-11-02 15:44:53,0,DF:DC:EF:28:D6:3E,36,36,-14679.10602052495,6386.30676845697,-2114.4550828402307
41783,-29968,-17407,-6660,-12537,7428,-10497,2532,4126,14822,36,-1,16974,2020-11-02 15:44:23,2020-11-02 15:44:53,0,DF:DC:EF:28:D6:3E,36,36,28299.228706399408,-20005.957303335923,-6660.0
41784,-13076,12031,-30217,-32765,27903,-17148,-21788,-29922,-539,36,-1,17000,2020-11-02 15:44:23,2020-11-02 15:44:53,0,DF:DC:EF:28:D6:3E,36,36,23348.596663314405,-16174.823010144966,20542.929694772072
41785,20719,-19459,-6919,-25604,17147,-21497,-13848,22303,19946,36,1,17026,2020-11-02 15:44:23,2020-11-02 15:44:53,0,DF:DC:EF:28:D6:3E,36,36,17177.21397148498,-4273.184882504566,-23291.316281776682
41786,-29201,19196,-27393,12538,-25863,-32250,32240,-28129,-3342,36,1,17077,2020-11-02 15:44:23,2020-11-02 15:44:53,0,DF:DC:EF:28:D6:3E,36,36,-724.4289227608351,-20822.633343695263,39210.38649860388
41787,-23060,10746,-19197,19453,12541,516,-9227,28191,3065,36,1,17079,2020-11-02 15:44:23,2020-11-02 15:44:53,0,DF:DC:EF:28:D6:3E,36,36,29766.062756834497,-10347.629916498157,-4761.616119279513
41788,15593,25336,15109,-10240,-18688,-3841,16887,27167,-30726,36,1,17102,2020-11-02 15:44:23,2020-11-02 15:44:53,0,DF:DC:EF:28:D6:3E,36,36,16797.594809950202,-28817.551553802572,852.0311289295996
41789,-18460,23542,31751,19202,3073,-21509,-12556,22815,-15113,36,1,17128,2020-11-02 15:44:23,2020-11-02 15:44:53,0,DF:DC:EF:28:D6:3E,36,36,11772.007124788333,-20112.895860155364,36878.376230149806
