id,accelerationx,accelerationy,accelerationz,angularvelocityx,angularvelocityy,angularvelocityz,pitch,roll,yaw,mdlcircle_id,hallsensor,timestamp,starttime,endtime,train_mode,blemac,training_id,training_handle_id,accelerationWorldx,accelerationWorldy,accelerationWorldz
54168,-26359,29957,-18191,-9216,20225,18946,-25539,-18446,6686,47,1,43921,2020-11-02 15:58:57,2020-11-02 15:59:26,2,DF:DC:EF:28:D6:3E,47,47,16356.528336096499,14712.756474684955,-37935.86678470769
54169,16138,-17658,6130,-32000,-5120,24066,-6851,29170,-15331,47,1,43947,2020-11-02 15:58:57,2020-11-02 15:59:26,2,DF:DC:EF:28:D6:3E,47,47,1361.1424573065133,13505.147271454844,20629.47397262551
54170,-17908,19974,25074,-23552,-5376,-10239,10046,14578,30237,47,1,43972,2020-11-02 15:58:57,2020-11-02 15:59:26,2,DF:DC:EF:28:D6:3E,47,47,59.86236482793902,-36537.99914680155,3651.527193600822
54171,18185,30982,12274,-22272,1537,25345,24638,-527,16413,47,1,43998,2020-11-02 15:58:57,2020-11-02 15:59:26,2,DF:DC:EF:28:D6:3E,47,47,2400.263513883303,21097.45557639166,-31470.076712110204
54172,-32248,2055,32498,20224,6656,30977,-27074,-9999,2077,47,1,44023,2020-11-02 15:58:57,2020-11-02 15:59:26,2,DF:DC:EF:28:D6:3E,47,47,-857.7293954900742,-25937.805133391772,-37772.62365981886
54173,-15606,-30713,9203,3840,19967,16386,-11970,-12047,-21988,47,1,44049,2020-11-02 15:58:57,2020-11-02 15:59:26,2,DF:DC:EF:28:D6:3E,47,47,18247.675687035826,-18762.030958520736,-24218.574283641698
54174,18951,-27390,19443,13824,3325,-12797,14655,-2831,-485,47,1,44075,2020-11-02 15:58:57,2020-11-02 15:59:26,2,DF:DC:EF:28:D6:3E,47,47,18951.0,-6281.208016745499,-32996.79946374151
54175,-17914,-22267,14837,-6400,-2054,14597,-4545,24306,-5606,47,1,44100,2020-11-02 15:58:57,2020-11-02 15:59:26,2,DF:DC:EF:28:D6:3E,47,47,480.69320126701496,-22267.0,-23255.470303699636
54176,6155,-5887,-12304,12034,25341,-31483,-9664,-16142,-17639,47,1,44126,2020-11-02 15:58:57,2020-11-02 15:59:26,2,DF:DC:EF:28:D6:3E,47,47,-899.259033836076,13542.84529999862,6301.736615439391
54177,-21492,13316,27890,9475,1793,-32252,-13503,-26382,-11496,47,1,44151,2020-11-02 15:58:57,2020-11-02 15:59:26,2,DF:DC:EF:28:D6:3E,47,47,19643.87331941005,-4702.115514593437,31766.056895661284
54178,-12277,-4353,3309,-12030,14593,7427,-24510,19698,13080,47,1,44177,2020-11-02 15:58:57,2020-11-02 15:59:26,2,DF:DC:EF:28:D6:3E,47,47,-5047.535990706188,10209.521953274507,7135.184714366655
54179,5901,8454,-21779,-17920,-26368,19970,9283,8946,-17129,47,1,44203,2020-11-02 15:58:57,2020-11-02 15:59:26,2,DF:DC:EF:28:D6:3E,47,47,21120.269971516344,-8865.87331430777,-7479.789081579134
54180,-18423,14594,-29457,3071,-7169,12033,16451,5874,29207,47,1,44228,2020-11-02 15:58:57,2020-11-02 15:59:26,2,DF:DC:EF:28:D6:3E,47,47,23131.139995597186,-5178.992295273305,29295.648402272716
54181,-11253,-24064,-30482,30974,6656,17920,6723,4594,22039,47,-1,44254,2020-11-02 15:58:57,2020-11-02 15:59:26,2,DF:DC:EF:28:D6:3E,47,47,9355.51609049911,-14109.333580369836,-36718.65266588986
54182,-27123,-24571,18931,-27138,-27392,-29441,-10686,1266,25367,47,-1,44279,2020-11-02 15:58:57,2020-11-02 15:59:26,2,DF:DC:EF:28:D6:3E,47,47,19737.420004402942,18791.905959598633,30904.246520104578
54183,11272,25090,-18189,-2306,16896,1279,-28862,-2319,-29929,47,-1,44305,2020-11-02 15:58:57,2020-11-02 15:59:26,2,DF:DC:EF:28:D6:3E,47,47,-20352.740702751453,17775.442084722174,18899.87855990752
54184,-19959,3073,-22033,5887,10496,-7682,19266,-2063,-16105,47,-1,44331,2020-11-02 15:58:57,2020-11-02 15:59:26,2,DF:DC:EF:28:D6:3E,47,47,8366.8432809079,18120.76461525415,22246.16646236559
54185,-20725,3589,-8972,7935,-6913,4351,2882,-271,-4329,47,-1,44356,2020-11-02 15:58:57,2020-11-02 15:59:26,2,DF:DC:EF:28:D6:3E,47,47,-20725.0,3589.0,-8972.0
54186,-7672,-11777,29679,-22529,-16385,-7938,-9919,4082,7704,47,-1,44382,2020-11-02 15:58:57,2020-11-02 15:59:26,2,DF:DC:EF:28:D6:3E,47,47,-19805.71237369866,3599.73441694137,25945.63592394312
54187,-23286,-9211,15604,10240,3584,2559,-17599,6642,20248,47,-1,44407,2020-11-02 15:58:57,2020-11-02 15:59:26,2,DF:DC:EF:28:D6:3E,47,47,22643.95041704492,-14663.113111626135,11950.303610622983
54188,12553,14598,18418,-28672,19200,-22017,-17855,6898,28184,47,-1,44433,2020-11-02 15:58:57,2020-11-02 15:59:26,2,DF:DC:EF:28:D6:3E,47,47,-2241.469419189323,15538.149816116684,-21527.746099737244
54189,2056,5122,24306,-18688,5632,-2561,-12479,5362,29976,47,-1,44459,2020-11-02 15:58:57,2020-11-02 15:59:26,2,DF:DC:EF:28:D6:3E,47,47,19732.81134157165,3693.1512571499266,-14772.286429315984
54190,-27639,7941,25585,-25856,-6401,-7681,-6079,4850,30744,47,-1,44484,2020-11-02 15:58:57,2020-11-02 15:59:26,2,DF:DC:EF:28:D6:3E,47,47,16918.878811073417,33827.7453144377,7141.513405276849
54191,16905,-9980,6642,16384,-2,-24065,-3519,12274,32024,47,1,44510,2020-11-02 15:58:57,2020-11-02 15:59:26,2,DF:DC:EF:28:D6:3E,47,47,-9852.424086238325,-1876.4269850105998,-18135.72028883427
54192,16648,-32509,11251,8704,-7939,-25857,-3007,29426,-32232,47,1,44535,2020-11-02 15:58:57,2020-11-02 15:59:26,2,DF:DC:EF:28:D6:3E,47,47,29452.84707768343,-15038.83914700049,19155.654573238688
54193,26887,6917,14325,14336,17661,-11777,-703,-11022,30744,47,1,44561,2020-11-02 15:58:57,2020-11-02 15:59:26,2,DF:DC:EF:28:D6:3E,47,47,7334.386072555929,-409.3631462913927,30364.460900091017
54194,20742,5,26360,-12032,6908,10495,4162,23539,29976,47,1,44587,2020-11-02 15:58:57,2020-11-02 15:59:26,2,DF:DC:EF:28:D6:3E,47,47,-9499.928054755916,32132.27594779439,-1532.4484882877641
54195,22531,20484,-16390,15361,5371,10751,12866,4340,-32744,47,1,44612,2020-11-02 15:58:57,2020-11-02 15:59:26,2,DF:DC:EF:28:D6:3E,47,47,274.1830833149161,23415.013281687403,25446.695142104927
54196,-19456,-28158,8445,2306,-2055,-12801,29762,-4876,28184,47,1,44638,2020-11-02 15:58:57,2020-11-02 15:59:26,2,DF:DC:EF:28:D6:3E,47,47,12801.11046346702,14651.954604183222,29396.916882201596
54197,15870,-29952,1791,11270,-2822,-24060,23363,-15883,-5865,47,1,44664,2020-11-02 15:58:57,2020-11-02 15:59:26,2,DF:DC:EF:28:D6:3E,47,47,3485.1143203727206,33316.06070595659,5484.61140017671
54198,18943,-18181,18423,-12790,-12296,25609,21061,-26122,-30186,47,1,44689,2020-11-02 15:58:57,2020-11-02 15:59:26,2,DF:DC:EF:28:D6:3E,47,47,-22745.15989937577,-22603.246449398357,-737.4890504873365
54199,-9468,27895,-14101,11789,11511,-24310,21179,-6665,-12268,47,1,44715,2020-11-02 15:58:57,2020-11-02 15:59:26,2,DF:DC:EF:28:D6:3E,47,47,-14905.848347999963,29009.130555193995,1702.4333931572255
54200,23559,10744,-7194,12555,-9225,26888,-21315,26361,29459,47,1,44740,2020-11-02 15:58:57,2020-11-02 15:59:26,2,DF:DC:EF:28:D6:3E,47,47,-16744.697572651778,15529.740933417212,14165.306305949602
54201,-11518,-20231,-16919,18182,16117,16388,7615,251,-9198,47,1,44766,2020-11-02 15:58:57,2020-11-02 15:59:26,2,DF:DC:EF:28:D6:3E,47,47,-3441.305916273868,11478.297710341823,-26165.174206631615
54202,28157,24058,-788,23553,-14097,-16384,-28737,11261,5907,47,1,44791,2020-11-02 15:58:57,2020-11-02 15:59:26,2,DF:DC:EF:28:D6:3E,47,47,12228.47515507774,33073.86258335188,-11349.403781661973
54203,-18952,23801,20465,-11521,-9747,15870,-30529,-14337,-6381,47,-1,44817,2020-11-02 15:58:57,2020-11-02 15:59:26,2,DF:DC:EF:28:D6:3E,47,47,-20635.997336590663,8313.21900306562,-29146.665911065913
54204,-11024,15095,-32267,-17916,-17166,-17154,-6209,9474,-10220,47,-1,44843,2020-11-02 15:58:57,2020-11-02 15:59:26,2,DF:DC:EF:28:D6:3E,47,47,-32903.9471979505,16086.986486285401,-7006.141205011263
54205,-8984,-19725,12537,19471,-4609,-14842,-30783,17667,-20460,47,-1,44870,2020-11-02 15:58:57,2020-11-02 15:59:26,2,DF:DC:EF:28:D6:3E,47,47,-9145.531593993432,16491.693425477657,16472.630324976177
54206,25324,-22547,25583,-18666,-5112,7441,27332,22787,29202,47,-1,44894,2020-11-02 15:58:57,2020-11-02 15:59:26,2,DF:DC:EF:28:D6:3E,47,47,25600.436736734293,33667.1619188387,-3911.7670200514767
54207,-6416,29674,7401,17939,-32503,23,9415,-10237,-6386,47,-1,44920,2020-11-02 15:58:57,2020-11-02 15:59:26,2,DF:DC:EF:28:D6:3E,47,47,-6792.737371853608,28726.687084305915,10252.916714642477
54208,-23054,-4122,21738,1549,-15352,-15079,-16184,4357,-502,47,-1,44945,2020-11-02 15:58:57,2020-11-02 15:59:26,2,DF:DC:EF:28:D6:3E,47,47,-23054.0,21481.66472458399,-5298.075939486322
54209,-26636,-15901,29934,24074,23306,28,25801,-25850,-16890,47,-1,44971,2020-11-02 15:58:57,2020-11-02 15:59:26,2,DF:DC:EF:28:D6:3E,47,47,25177.11078892902,-24400.596527113677,25081.59951922926
54210,4092,25825,-28430,28939,-2547,-30435,-29239,3848,-5887,47,-1,44996,2020-11-02 15:58:57,2020-11-02 15:59:26,2,DF:DC:EF:28:D6:3E,47,47,31315.541331093616,15244.565079837485,16699.70346045603
54211,-26113,28898,-10512,10765,5139,-9445,-26935,-8184,-28932,47,-1,45022,2020-11-02 15:58:57,2020-11-02 15:59:26,2,DF:DC:EF:28:D6:3E,47,47,-378.1136021240691,-39822.25483544834,-6444.4058628007115
54212,19457,-21018,23529,-22008,-10731,-29926,7881,9,-8202,47,-1,45048,2020-11-02 15:58:57,2020-11-02 15:59:26,2,DF:DC:EF:28:D6:3E,47,47,-15703.404151793551,-33205.643424024056,-4973.264203920908
54213,25350,27369,-24087,-19457,-6640,24852,-17721,-16376,-7695,47,-1,45073,2020-11-02 15:58:57,2020-11-02 15:59:26,2,DF:DC:EF:28:D6:3E,47,47,-41177.730327616315,7691.255380930839,14734.562963705785
54214,26627,25579,8428,-9480,12553,28684,-9531,26120,-20498,47,-1,45099,2020-11-02 15:58:57,2020-11-02 15:59:26,2,DF:DC:EF:28:D6:3E,47,47,7466.886572618116,-20059.326829895064,31243.920465317846
54215,2815,2539,-5910,-8459,31493,-29686,-15421,13832,-24340,47,-1,45124,2020-11-02 15:58:57,2020-11-02 15:59:26,2,DF:DC:EF:28:D6:3E,47,47,5542.782834300882,3420.446033926219,-2622.394589068906
54216,23042,-3095,24040,-13837,2819,-13557,26305,18184,-19990,47,-1,45150,2020-11-02 15:58:57,2020-11-02 15:59:26,2,DF:DC:EF:28:D6:3E,47,47,27304.15551857592,-16528.80845371733,9985.788477518554
54217,8456,-6422,2278,25332,23557,6154,-2370,6920,-12568,47,-1,45176,2020-11-02 15:58:57,2020-11-02 15:59:26,2,DF:DC:EF:28:D6:3E,47,47,-8538.497964006723,-3224.905513550875,-5884.669994767951
54218,3850,14831,17637,22516,-29174,-8701,-7236,-7418,-30489,47,-1,45201,2020-11-02 15:58:57,2020-11-02 15:59:26,2,DF:DC:EF:28:D6:3E,47,47,-20621.152875453976,10858.420161097443,1645.4773447935845
54219,-20222,12274,-24600,-30991,-9461,2302,-6726,1285,24039,47,-1,45252,2020-11-02 15:58:57,2020-11-02 15:59:26,2,DF:DC:EF:28:D6:3E,47,47,2570.8934958650734,24499.85561816078,-23619.65159188836
54220,5373,13556,15853,-7697,32521,-8707,19013,25347,-15641,47,-1,45254,2020-11-02 15:58:57,2020-11-02 15:59:26,2,DF:DC:EF:28:D6:3E,47,47,-17116.12278330232,225.56309301382316,13074.377084893542
54221,18943,-25868,12270,497,-27896,15104,1603,3842,488,47,-1,45278,2020-11-02 15:58:57,2020-11-02 15:59:26,2,DF:DC:EF:28:D6:3E,47,47,18943.0,-25868.0,12270.0
54222,-28413,-30475,28138,25073,-6648,31488,-4800,-18432,11752,47,-1,45304,2020-11-02 15:58:57,2020-11-02 15:59:26,2,DF:DC:EF:28:D6:3E,47,47,17657.637871387,34648.72024347269,-31866.05165834834
54223,-20988,14581,-1554,30704,25353,-6658,-20162,25855,-23832,47,-1,45329,2020-11-02 15:58:57,2020-11-02 15:59:26,2,DF:DC:EF:28:D6:3E,47,47,1866.5009974367877,20258.45284867278,-15544.384298024452
54224,-12029,1014,30198,27122,4365,24573,-32452,-8707,-26903,47,-1,45355,2020-11-02 15:58:57,2020-11-02 15:59:26,2,DF:DC:EF:28:D6:3E,47,47,31192.042412391682,7746.9527692760585,-4968.44582683201
54225,-4858,-10249,7159,10230,-21233,-29189,-22214,5884,8171,47,-1,45380,2020-11-02 15:58:57,2020-11-02 15:59:26,2,DF:DC:EF:28:D6:3E,47,47,-13370.909391592273,-174.94106009759435,1040.0113784576938
54226,-30966,-2314,17142,-12045,20492,26101,-25544,-9990,21485,47,1,45406,2020-11-02 15:58:57,2020-11-02 15:59:26,2,DF:DC:EF:28:D6:3E,47,47,7387.887144340752,10523.310407210072,-33057.147148778415
54227,-20984,22261,6652,31218,-15864,-30482,1334,251,5616,47,1,45432,2020-11-02 15:58:57,2020-11-02 15:59:26,2,DF:DC:EF:28:D6:3E,47,47,-20984.0,22261.0,6652.0
54228,-29178,29172,-14338,30453,29448,28648,-24525,20220,20723,47,1,45457,2020-11-02 15:58:57,2020-11-02 15:59:26,2,DF:DC:EF:28:D6:3E,47,47,-31831.055824154893,12837.527989564478,-27017.05521030527
54229,4865,29938,-11009,-20743,-12025,4578,1586,-21762,-1546,47,1,45483,2020-11-02 15:58:57,2020-11-02 15:59:26,2,DF:DC:EF:28:D6:3E,47,47,-3262.723327230089,29938.0,11585.376234285559
54230,13556,19187,-27905,-14849,-13048,6366,-20431,-3839,-1798,47,1,45508,2020-11-02 15:58:57,2020-11-02 15:59:26,2,DF:DC:EF:28:D6:3E,47,47,13556.0,-22932.93985718334,24918.07102299076
54231,29414,16376,7421,22793,-28912,21731,16947,-28924,-25857,47,1,45534,2020-11-02 15:58:57,2020-11-02 15:59:26,2,DF:DC:EF:28:D6:3E,47,47,-2587.169181897837,23744.88543452329,-24857.895814521427
54232,-16921,-8197,17658,-752,11279,-13588,-32714,20997,1540,47,1,45560,2020-11-02 15:58:57,2020-11-02 15:59:26,2,DF:DC:EF:28:D6:3E,47,47,16349.27409194617,-19257.863776243765,5210.7517156410295
54233,-26131,-29956,3318,-1519,-31480,9458,-1223,-27643,-1018,47,1,45585,2020-11-02 15:58:57,2020-11-02 15:59:26,2,DF:DC:EF:28:D6:3E,47,47,19591.432136218747,-29956.0,17607.216470866006
54234,-27154,-21764,25844,13334,-10996,-6156,-20419,6405,26889,47,1,45611,2020-11-02 15:58:57,2020-11-02 15:59:26,2,DF:DC:EF:28:D6:3E,47,47,41039.41570842546,8973.437271605142,10684.920675588048
54235,25328,-30730,-13324,13854,26130,-18953,14402,12035,-31221,47,1,45636,2020-11-02 15:58:57,2020-11-02 15:59:26,2,DF:DC:EF:28:D6:3E,47,47,-32647.763747570454,-22572.84296966515,-13709.841084041167
54236,-23821,-3856,13039,31525,-13032,12285,4539,-4609,-31988,47,1,45662,2020-11-02 15:58:57,2020-11-02 15:59:26,2,DF:DC:EF:28:D6:3E,47,47,-3059.504916818451,-23936.33653389682,13039.0
54237,7667,29934,11491,-1754,25629,11526,18369,1276,22283,47,1,45688,2020-11-02 15:58:57,2020-11-02 15:59:26,2,DF:DC:EF:28:D6:3E,47,47,-3179.41909184197,32025.217526992958,-7151.717457171654
54238,11512,24300,-18466,22560,285,-18416,-19513,3065,28423,47,1,45713,2020-11-02 15:58:57,2020-11-02 15:59:26,2,DF:DC:EF:28:D6:3E,47,47,-27703.173327502325,8715.619417344906,14851.985246369051
54239,27644,17388,-12067,3859,5652,12054,3533,-27400,26114,47,1,45739,2020-11-02 15:58:57,2020-11-02 15:59:26,2,DF:DC:EF:28:D6:3E,47,47,30939.473302113773,9220.728859236166,-13033.530607331162
54240,-19454,4333,-24609,10244,-16380,533,-31537,22266,-3586,47,1,45764,2020-11-02 15:58:57,2020-11-02 15:59:26,2,DF:DC:EF:28:D6:3E,47,47,18860.561969797287,24827.275724797335,5542.695036561659
54241,28672,-5653,-26137,-16133,-23810,-17135,31183,-14852,24829,47,1,45790,2020-11-02 15:58:57,2020-11-02 15:59:26,2,DF:DC:EF:28:D6:3E,47,47,-13567.20979284977,25088.97410186925,26900.872828823518
54242,-16642,12522,-16913,4605,30982,-27630,-50,-12034,30715,47,1,45816,2020-11-02 15:58:57,2020-11-02 15:59:26,2,DF:DC:EF:28:D6:3E,47,47,18334.58249706066,-17836.273149990502,-8094.236330711176
54243,15359,-2585,8434,3585,7952,3349,463,12800,7416,47,1,45841,2020-11-02 15:58:57,2020-11-02 15:59:26,2,DF:DC:EF:28:D6:3E,47,47,2865.3928929230306,-321.77360459560805,-17475.681598054245
54244,-22783,-26137,17648,9474,8723,-27371,12495,16641,-5389,47,1,45867,2020-11-02 15:58:57,2020-11-02 15:59:26,2,DF:DC:EF:28:D6:3E,47,47,-18807.59350079973,-5170.451121786969,33663.045374800655
54245,-17664,29926,24299,11519,7700,31509,-2866,12546,-28433,47,1,45894,2020-11-02 15:58:57,2020-11-02 15:59:26,2,DF:DC:EF:28:D6:3E,47,47,-41895.1542684832,2723.7430839551853,5949.8777661898275
54246,28158,17379,31979,13562,-12779,791,-11571,-3838,-6166,47,1,45918,2020-11-02 15:58:57,2020-11-02 15:59:26,2,DF:DC:EF:28:D6:3E,47,47,33596.781260254524,-11890.584222130012,-29110.639666744588
54247,-4607,19938,-21781,24056,21272,-8938,1484,20739,-8219,47,1,45944,2020-11-02 15:58:57,2020-11-02 15:59:26,2,DF:DC:EF:28:D6:3E,47,47,17580.764762051418,9521.144933362712,22213.16644558611
54248,3332,10211,-10519,-22282,-15586,-21742,4554,26882,-25888,47,1,45969,2020-11-02 15:58:57,2020-11-02 15:59:26,2,DF:DC:EF:28:D6:3E,47,47,-11507.643034030081,-2297.8684236964937,9397.34316223035
54249,-12044,3301,-6675,-24846,14370,22286,1736,-1537,32219,47,1,45995,2020-11-02 15:58:57,2020-11-02 15:59:26,2,DF:DC:EF:28:D6:3E,47,47,-251.01833105607693,12485.652838256949,-6675.0
54250,28140,-8472,25902,-8190,-21209,-9186,19655,-30211,31701,47,-1,46021,2020-11-02 15:58:57,2020-11-02 15:59:26,2,DF:DC:EF:28:D6:3E,47,47,-498.49339902896645,18366.718126395885,-34597.15533966117
54251,-25567,27105,4093,11791,-14056,18698,-21302,24059,28623,47,-1,46046,2020-11-02 15:58:57,2020-11-02 15:59:26,2,DF:DC:EF:28:D6:3E,47,47,-34690.849915154286,3.091359205446679,-14200.355122592451
54252,-12020,-8477,-526,-6395,-22012,25842,19660,-19463,-2610,47,-1,46072,2020-11-02 15:58:57,2020-11-02 15:59:26,2,DF:DC:EF:28:D6:3E,47,47,11995.04177314346,8466.395517921464,-1027.484693152503
54253,-25854,-31261,31218,511,-29174,-11798,18380,-18954,-49,47,-1,46097,2020-11-02 15:58:57,2020-11-02 15:59:26,2,DF:DC:EF:28:D6:3E,47,47,30579.2208530064,26542.671024613588,31315.18526054406
54254,-7682,-17691,8953,3323,30724,-21275,-9526,18931,-3887,47,-1,46123,2020-11-02 15:58:57,2020-11-02 15:59:26,2,DF:DC:EF:28:D6:3E,47,47,10388.543725495176,-2024.7983661281642,-18442.31994191619
54255,-22285,9966,-31232,15868,4099,8170,20936,-26384,7125,47,-1,46149,2020-11-02 15:58:57,2020-11-02 15:59:26,2,DF:DC:EF:28:D6:3E,47,47,25681.819686517767,29893.82202973693,-4264.240500206757
54256,25607,-3348,2,-19200,21248,16361,1222,32750,25560,47,-1,46174,2020-11-02 15:58:57,2020-11-02 15:59:26,2,DF:DC:EF:28:D6:3E,47,47,-7280.416899678629,-3307.3644529759463,24555.741225669914
54257,9987,4847,-10500,13571,-28419,26086,-9790,493,22237,47,-1,46200,2020-11-02 15:58:57,2020-11-02 15:59:26,2,DF:DC:EF:28:D6:3E,47,47,-9009.76841242046,7563.752938160383,-9751.784074979341
54258,24571,3059,-13323,3587,-1798,-7961,703,26348,8675,47,-1,46225,2020-11-02 15:58:57,2020-11-02 15:59:26,2,DF:DC:EF:28:D6:3E,47,47,-5803.877658025973,-3377.358617175698,27303.888072977003
54259,24836,29940,6387,-18944,-29194,18663,187,3821,-13848,47,-1,46251,2020-11-02 15:58:57,2020-11-02 15:59:26,2,DF:DC:EF:28:D6:3E,47,47,16888.942126676084,-35042.747178864076,6387.0
54260,-20745,-2824,-7691,2560,-30986,-5145,-20413,-10514,15342,47,-1,46277,2020-11-02 15:58:57,2020-11-02 15:59:26,2,DF:DC:EF:28:D6:3E,47,47,5914.963408237835,-17034.48209316593,-13127.113532563691
54261,-15862,-2572,4072,-7683,27640,21217,21824,-13840,19955,47,-1,46302,2020-11-02 15:58:57,2020-11-02 15:59:26,2,DF:DC:EF:28:D6:3E,47,47,-10768.754937832553,-456.50168699945084,-12594.63914920446
54262,16385,26869,15596,-2570,-15111,-30757,16700,-19469,-12296,47,-1,46328,2020-11-02 15:58:57,2020-11-02 15:59:26,2,DF:DC:EF:28:D6:3E,47,47,-15258.391931071208,27606.687088768158,-15449.8836779007
54263,-21251,-2315,21239,7925,-16132,-30758,28216,13815,-9731,47,-1,46353,2020-11-02 15:58:57,2020-11-02 15:59:26,2,DF:DC:EF:28:D6:3E,47,47,13617.282793252387,11342.473928279436,24371.64831345828
54264,-12039,22774,-14082,31736,18429,-17960,-16843,18427,19970,47,-1,46379,2020-11-02 15:58:57,2020-11-02 15:59:26,2,DF:DC:EF:28:D6:3E,47,47,-6580.398350747664,23445.309300910994,16398.510613165272
54265,-4622,29433,-26113,-20481,-2559,3291,-14028,31743,-30714,47,-1,46405,2020-11-02 15:58:57,2020-11-02 15:59:26,2,DF:DC:EF:28:D6:3E,47,47,38466.61019208369,3150.3414138305125,-8941.38643089469
54266,7145,7934,-19713,26375,-22777,-13853,-21195,30722,-23542,47,-1,46430,2020-11-02 15:58:57,2020-11-02 15:59:26,2,DF:DC:EF:28:D6:3E,47,47,18255.509798399387,-4863.9902236547405,12069.785047992156
54267,-17685,21248,-22276,-10483,19209,21485,-3529,-16125,11022,47,-1,46456,2020-11-02 15:58:57,2020-11-02 15:59:26,2,DF:DC:EF:28:D6:3E,47,47,-2959.0914950866154,34717.62041687578,-6810.838062488037
54268,-7183,28415,24828,-12785,774,-25101,-17606,5636,-19696,47,1,46481,2020-11-02 15:58:57,2020-11-02 15:59:26,2,DF:DC:EF:28:D6:3E,47,47,3635.766473942116,25394.120370837634,-28589.458734616986
54269,-12815,20989,18937,-6385,11518,-25868,-30403,-17404,28946,47,1,46507,2020-11-02 15:58:57,2020-11-02 15:59:26,2,DF:DC:EF:28:D6:3E,47,47,-9125.985208315979,-12177.28272979505,-27051.848260261868
54270,4590,17403,12789,-5869,5375,16374,-24512,-19195,-6381,47,1,46533,2020-11-02 15:58:57,2020-11-02 15:59:26,2,DF:DC:EF:28:D6:3E,47,47,-20538.429996468476,-6980.562714397556,-4115.296765790583
54271,17386,13306,31214,-13542,32526,7422,-25276,-7932,-3052,47,1,46558,2020-11-02 15:58:57,2020-11-02 15:59:26,2,DF:DC:EF:28:D6:3E,47,47,18088.46241051182,-32320.21510775289,9046.969161663068
54272,-6928,502,9968,9504,-6372,-16887,-30532,22785,2836,47,1,46584,2020-11-02 15:58:57,2020-11-02 15:59:26,2,DF:DC:EF:28:D6:3E,47,47,7325.623489806994,-9416.158752739624,-2298.131160050042
54273,11253,26864,-5139,2850,-2529,16659,-9279,26877,-26864,47,1,46609,2020-11-02 15:58:57,2020-11-02 15:59:26,2,DF:DC:EF:28:D6:3E,47,47,-15460.138279282131,2309.988846303553,25107.00901970261
54274,-2823,-25622,-32027,-9954,8735,-12261,-6969,5115,-3830,47,1,46635,2020-11-02 15:58:57,2020-11-02 15:59:26,2,DF:DC:EF:28:D6:3E,47,47,-2823.0,-40793.41691139598,4255.907622709012
54275,-23805,-5914,-24350,-7916,32285,15649,18381,9979,9220,47,1,46661,2020-11-02 15:58:57,2020-11-02 15:59:26,2,DF:DC:EF:28:D6:3E,47,47,-4187.029372788478,10675.179485205681,32604.988099829912
54276,4876,-28183,5858,-3834,-5867,-19429,17104,-18692,9470,47,1,46686,2020-11-02 15:58:57,2020-11-02 15:59:26,2,DF:DC:EF:28:D6:3E,47,47,-5855.063106746261,2729.465030040089,28471.762953245572
54277,22277,-16662,-17435,27898,-5877,4880,30928,7166,30458,47,1,46712,2020-11-02 15:58:57,2020-11-02 15:59:26,2,DF:DC:EF:28:D6:3E,47,47,-14516.844861540158,-26526.867236119077,-12784.863233655937
54278,22523,-15641,27119,29430,-27893,-22003,15823,-1794,-4105,47,1,46737,2020-11-02 15:58:57,2020-11-02 15:59:26,2,DF:DC:EF:28:D6:3E,47,47,22523.0,-18150.28424765181,-25507.807113302442
54279,-28932,12775,-31239,9979,8465,10256,16846,-30977,-17420,47,1,46763,2020-11-02 15:58:57,2020-11-02 15:59:26,2,DF:DC:EF:28:D6:3E,47,47,-11985.784110388544,-25031.200251592327,34726.3065013232
54280,-14336,-5658,9461,-18174,-21740,2576,24270,-18689,-10256,47,1,46789,2020-11-02 15:58:57,2020-11-02 15:59:26,2,DF:DC:EF:28:D6:3E,47,47,16950.339628193775,-6301.648036351047,-139.99826726301217
54281,-1540,-31510,2280,-28930,-25577,24851,-25138,-11009,30956,47,1,46814,2020-11-02 15:58:57,2020-11-02 15:59:26,2,DF:DC:EF:28:D6:3E,47,47,23907.457392157616,-14293.90536522512,-14985.588091635129
54282,30723,19688,4344,16121,6420,18449,-11315,5632,5352,47,1,46840,2020-11-02 15:58:57,2020-11-02 15:59:26,2,DF:DC:EF:28:D6:3E,47,47,30723.0,14292.821755937439,-14219.807532206669
54283,22011,17386,-29198,12539,-13291,10256,4813,-1,9188,47,-1,46865,2020-11-02 15:58:57,2020-11-02 15:59:26,2,DF:DC:EF:28:D6:3E,47,47,-2737.220487406463,27915.313736430086,-29198.0
54284,-16130,17130,1266,27383,-32493,8206,4044,-24065,10464,47,-1,46891,2020-11-02 15:58:57,2020-11-02 15:59:26,2,DF:DC:EF:28:D6:3E,47,47,-8200.173909677724,18933.459053428578,11379.711425303549
54285,-9730,-24598,15855,10484,-13808,-8950,-25910,5631,-3620,47,-1,46918,2020-11-02 15:58:57,2020-11-02 15:59:26,2,DF:DC:EF:28:D6:3E,47,47,-9730.0,4079.2222228959254,-28979.347388376984
54286,18946,-30743,-3346,-21008,23822,-29178,-21304,12286,27610,47,-1,46942,2020-11-02 15:58:57,2020-11-02 15:59:26,2,DF:DC:EF:28:D6:3E,47,47,23282.320314146218,-18883.430162459008,-20411.474887646593
54287,-12289,-23576,18678,24815,11276,28929,24518,-5380,-9000,47,-1,46968,2020-11-02 15:58:57,2020-11-02 15:59:26,2,DF:DC:EF:28:D6:3E,47,47,18222.208043717852,26304.53268579773,5633.620078889173
54288,-3834,2536,11251,4338,25612,-7940,25284,13563,-809,47,-1,46993,2020-11-02 15:58:57,2020-11-02 15:59:26,2,DF:DC:EF:28:D6:3E,47,47,-6836.767700618627,6857.144652199379,7345.340538504075
54289,-30461,23017,-26126,18675,-30454,-3338,25282,15865,15832,47,-1,47019,2020-11-02 15:58:57,2020-11-02 15:59:26,2,DF:DC:EF:28:D6:3E,47,47,26513.452627260587,25732.55885458818,27840.5267654397
54290,-14587,27114,-24596,-11278,-31734,-781,13760,12023,17881,47,-1,47045,2020-11-02 15:58:57,2020-11-02 15:59:26,2,DF:DC:EF:28:D6:3E,47,47,-38981.54053660853,-5637.011278889828,-1255.5406144026674
54291,-22010,26603,14319,18927,17928,-6162,4541,23285,23771,47,-1,47070,2020-11-02 15:58:57,2020-11-02 15:59:26,2,DF:DC:EF:28:D6:3E,47,47,17812.755021440706,-20075.56125787222,-26016.745928873555
54292,20993,6639,-11529,3569,26122,-30227,-10683,-13069,25822,47,-1,47096,2020-11-02 15:58:57,2020-11-02 15:59:26,2,DF:DC:EF:28:D6:3E,47,47,-5939.659516162647,2477.0421991437515,24005.935053142992
54293,-23295,-31501,17917,-19466,23053,-25106,19010,13042,-14367,47,-1,47121,2020-11-02 15:58:57,2020-11-02 15:59:26,2,DF:DC:EF:28:D6:3E,47,47,30417.948214900985,-2399.0195820282042,30413.517495361284
54294,24309,-5382,16135,7680,4622,-32525,-24769,-14352,14821,47,-1,47147,2020-11-02 15:58:57,2020-11-02 15:59:26,2,DF:DC:EF:28:D6:3E,47,47,6582.306397561354,6506.895611395452,28188.032602347852
54295,26380,-15877,27640,23812,4619,-32267,27454,20719,-1049,47,-1,47173,2020-11-02 15:58:57,2020-11-02 15:59:26,2,DF:DC:EF:28:D6:3E,47,47,-26969.91308510112,31295.920738762703,2267.6556826762717
54296,-13554,-4360,5110,-28417,7935,18153,17468,-10513,-27925,47,1,47198,2020-11-02 15:58:57,2020-11-02 15:59:26,2,DF:DC:EF:28:D6:3E,47,47,-1054.994469473596,-4278.817244882006,-14471.051297479407
54297,-9977,18422,-28682,-13571,10750,15072,13625,15602,8688,47,1,47224,2020-11-02 15:58:57,2020-11-02 15:59:26,2,DF:DC:EF:28:D6:3E,47,47,842.0488820648825,35392.726012272775,-2865.9441900364427
54298,-9732,-29705,13305,-25087,-2558,-16162,-19402,12789,-6668,47,1,47249,2020-11-02 15:58:57,2020-11-02 15:59:26,2,DF:DC:EF:28:D6:3E,47,47,24102.11415566996,20366.559544008986,12586.231348874466
54299,3321,14071,-14600,18445,-2040,2784,3638,-16393,-19719,47,1,47275,2020-11-02 15:58:57,2020-11-02 15:59:26,2,DF:DC:EF:28:D6:3E,47,47,-9788.99272287243,-15608.626110816107,9095.520568076368
54300,15350,30454,32239,32023,524,31715,-23241,28921,-30210,47,1,47301,2020-11-02 15:58:57,2020-11-02 15:59:26,2,DF:DC:EF:28:D6:3E,47,47,43182.721057541545,-10208.124862326666,15279.676889964212
54301,-5130,6905,-8215,-29927,-7925,-794,26170,15866,1283,47,1,47326,2020-11-02 15:58:57,2020-11-02 15:59:26,2,DF:DC:EF:28:D6:3E,47,47,2265.736743186018,-10730.541701017872,4604.78683690063
54302,20727,2299,-11543,-1258,28170,19946,12093,27386,775,47,1,47352,2020-11-02 15:58:57,2020-11-02 15:59:26,2,DF:DC:EF:28:D6:3E,47,47,-18765.51141382494,9539.298620626963,11179.988470660885
54303,-19465,-3588,5868,16914,14084,-13076,-29889,-26886,23050,47,1,47377,2020-11-02 15:58:57,2020-11-02 15:59:26,2,DF:DC:EF:28:D6:3E,47,47,-12466.58752140317,-4268.37635976777,15892.09085748538
54304,-8206,-14338,-28687,786,20741,-785,-27327,-12294,10253,47,1,47403,2020-11-02 15:58:57,2020-11-02 15:59:26,2,DF:DC:EF:28:D6:3E,47,47,-28191.058799833667,13622.702194359963,-10749.27149476192
54305,14061,-4355,-16911,15896,5390,-4360,26692,-30983,9487,47,1,47454,2020-11-02 15:58:57,2020-11-02 15:59:26,2,DF:DC:EF:28:D6:3E,47,47,17963.755155035968,9558.185585691434,-9412.983376135287
54306,-28175,-29955,1770,-18151,13579,-3069,-16965,-14857,12815,47,1,47456,2020-11-02 15:58:57,2020-11-02 15:59:26,2,DF:DC:EF:28:D6:3E,47,47,-7649.607366094658,-17107.823524757114,-36647.938978752376
54307,-27911,7929,-1305,23575,-21493,23820,10688,-28170,22797,47,1,47480,2020-11-02 15:58:57,2020-11-02 15:59:26,2,DF:DC:EF:28:D6:3E,47,47,-23291.39950009947,-2116.4747615948936,17222.869415701265
54308,9983,-4364,-26136,25109,14859,3600,-8252,-7947,19466,47,1,47506,2020-11-02 15:58:57,2020-11-02 15:59:26,2,DF:DC:EF:28:D6:3E,47,47,-10608.180887905472,26108.876161090153,2754.698686668923
54309,1026,15602,-6170,9233,3083,21265,16841,-11,-8954,47,1,47531,2020-11-02 15:58:57,2020-11-02 15:59:26,2,DF:DC:EF:28:D6:3E,47,47,-188.12833817508,-1340.0891953185683,16754.484434830156
54310,-20475,9712,-31254,-19444,-30970,26128,-20020,-7434,-15869,47,1,47557,2020-11-02 15:58:57,2020-11-02 15:59:26,2,DF:DC:EF:28:D6:3E,47,47,2205.3918841692293,38521.809170326174,-1252.018323434033
54311,2812,-26389,4332,27914,21760,22288,-50,-22024,-4607,47,1,47582,2020-11-02 15:58:57,2020-11-02 15:59:26,2,DF:DC:EF:28:D6:3E,47,47,-3395.190775355797,-26389.0,-3891.818032608783
54312,-13313,-22804,1774,-32507,21511,25363,-12336,-31238,32255,47,1,47608,2020-11-02 15:58:57,2020-11-02 15:59:26,2,DF:DC:EF:28:D6:3E,47,47,15015.122626107319,-11617.549487700275,18438.657690401305
54313,13570,10220,-25361,26624,2566,-750,-24367,-24580,7421,47,1,47634,2020-11-02 15:58:57,2020-11-02 15:59:26,2,DF:DC:EF:28:D6:3E,47,47,-5380.747221424611,14779.295827792623,-26160.917322863945
54314,27904,-30482,7918,-14341,6662,26896,28881,-26882,6907,47,-1,47659,2020-11-02 15:58:57,2020-11-02 15:59:26,2,DF:DC:EF:28:D6:3E,47,47,3902.6354853780895,4127.552613599749,-41691.88181996866
54315,-23558,28653,-22037,17915,18694,10509,-16688,3328,19961,47,-1,47685,2020-11-02 15:58:57,2020-11-02 15:59:26,2,DF:DC:EF:28:D6:3E,47,47,27832.726958705956,28317.67730166606,-16883.47133384688
54316,-13570,26350,-11271,14073,21000,30734,-16689,14081,12535,47,-1,47710,2020-11-02 15:58:57,2020-11-02 15:59:26,2,DF:DC:EF:28:D6:3E,47,47,24231.592713293994,-1969.411730044143,20358.14758308334
54317,-31495,-9496,28660,-20740,-7157,-7409,-9010,15618,-30476,47,-1,47736,2020-11-02 15:58:57,2020-11-02 15:59:26,2,DF:DC:EF:28:D6:3E,47,47,-8433.001588621592,38423.301923975945,18868.99558708126
54318,-5898,25318,-12312,-23555,-18418,-28401,8142,-6398,26865,47,-1,47762,2020-11-02 15:58:57,2020-11-02 15:59:26,2,DF:DC:EF:28:D6:3E,47,47,28335.18316197351,-3970.706880771655,2953.6001835735397
54319,-25607,-4376,-14094,-5893,25619,-10735,6093,15619,-19731,47,-1,47787,2020-11-02 15:58:57,2020-11-02 15:59:26,2,DF:DC:EF:28:D6:3E,47,47,960.1522017007283,-9454.447902485846,27985.71391994048
54320,12280,9449,20722,17146,29716,31505,-14901,14595,-29975,47,-1,47813,2020-11-02 15:58:57,2020-11-02 15:59:26,2,DF:DC:EF:28:D6:3E,47,47,-20187.84389658474,-15681.765047861982,-4002.060568104947
54321,-12029,-12566,7668,23032,3601,-16627,11466,-10238,-15899,47,-1,47838,2020-11-02 15:58:57,2020-11-02 15:59:26,2,DF:DC:EF:28:D6:3E,47,47,-3999.018961688421,-4549.130173738559,-18019.785875710008
54322,-10498,-30487,-31756,6647,-5108,15623,-25912,2562,12259,47,-1,47864,2020-11-02 15:58:57,2020-11-02 15:59:26,2,DF:DC:EF:28:D6:3E,47,47,-35604.599264670745,-27839.891111200126,-2315.530850307947
54323,3584,-25621,7414,-7690,-13557,20742,11975,8193,17633,47,-1,47915,2020-11-02 15:58:57,2020-11-02 15:59:26,2,DF:DC:EF:28:D6:3E,47,47,19507.54069263079,-6740.931168041313,-17270.31546072865
54324,31235,23017,31216,30198,29704,-2557,-12603,18688,-13089,47,-1,47917,2020-11-02 15:58:57,2020-11-02 15:59:26,2,DF:DC:EF:28:D6:3E,47,47,31960.666000827805,24644.12489662428,29172.403172572413
54325,8964,-11795,30704,11255,3849,-11265,-29500,18175,1247,47,-1,47941,2020-11-02 15:58:57,2020-11-02 15:59:26,2,DF:DC:EF:28:D6:3E,47,47,-9241.338553142576,-32788.606406795756,1309.9193282156375
54326,5641,10476,9709,3829,-3063,-2823,10435,-21507,-12322,47,-1,47966,2020-11-02 15:58:57,2020-11-02 15:59:26,2,DF:DC:EF:28:D6:3E,47,47,867.7453541967352,7926.705583793577,-13124.271202170645
54327,-11002,-19221,-30737,-25871,-4601,20723,7873,-10501,-15905,47,1,47992,2020-11-02 15:58:57,2020-11-02 15:59:26,2,DF:DC:EF:28:D6:3E,47,47,5069.722935949831,-26118.80246106154,-26969.614037889936
54328,11526,-29715,25073,-17425,-9465,10735,27838,3834,-19487,47,1,48018,2020-11-02 15:58:57,2020-11-02 15:59:26,2,DF:DC:EF:28:D6:3E,47,47,-5991.880995438914,-39640.60696212185,6099.579642161745
54329,-2043,23279,-26893,14573,-1018,17388,-1350,-28168,29412,47,1,48043,2020-11-02 15:58:57,2020-11-02 15:59:26,2,DF:DC:EF:28:D6:3E,47,47,16928.310561537997,24839.518394030973,19124.585393799214
54330,-4859,11248,-30219,7916,-13306,745,-32445,-25353,-1817,47,1,48069,2020-11-02 15:58:57,2020-11-02 15:59:26,2,DF:DC:EF:28:D6:3E,47,47,4851.609522623541,32168.36491813575,2230.1411465738443
54331,-11795,-25099,-5356,-5907,18437,-21785,7231,-30473,2284,47,1,48094,2020-11-02 15:58:57,2020-11-02 15:59:26,2,DF:DC:EF:28:D6:3E,47,47,-26373.344896496776,-9054.128980353347,4498.665288455365
54332,-22508,-14602,-8726,20480,-28148,17390,-18883,-15114,5103,47,1,48120,2020-11-02 15:58:57,2020-11-02 15:59:26,2,DF:DC:EF:28:D6:3E,47,47,-362.22103914531635,13224.457245029304,-24918.950027904317
54333,23304,-30732,-6162,-20751,2806,9442,8251,-8456,-25870,47,1,48146,2020-11-02 15:58:57,2020-11-02 15:59:26,2,DF:DC:EF:28:D6:3E,47,47,-15642.742806516922,35581.916969153004,3838.5239727615394
54334,25084,-26634,14073,-1300,12794,-26399,-21449,-27652,-3851,47,1,48171,2020-11-02 15:58:57,2020-11-02 15:59:26,2,DF:DC:EF:28:D6:3E,47,47,-24095.382858384597,28353.442027882775,-12333.741973924889
54335,18686,29687,-4355,-20495,31229,-4384,-3276,1280,4601,47,1,48197,2020-11-02 15:58:57,2020-11-02 15:59:26,2,DF:DC:EF:28:D6:3E,47,47,18686.0,29687.0,-4355.0
54336,3829,32761,17151,-4102,4354,7392,-7373,-29181,29436,47,1,48223,2020-11-02 15:58:57,2020-11-02 15:59:26,2,DF:DC:EF:28:D6:3E,47,47,26143.14233680311,24901.51758760943,-8862.939331374859
54337,-5907,-23813,1533,-17660,21509,9442,-4044,-25594,17920,47,1,48248,2020-11-02 15:58:57,2020-11-02 15:59:26,2,DF:DC:EF:28:D6:3E,47,47,-1610.5101544280867,24283.2903163668,3468.3966690000143
54338,-25113,9981,-6408,4110,-17142,11240,-3529,30216,26884,47,1,48274,2020-11-02 15:58:57,2020-11-02 15:59:26,2,DF:DC:EF:28:D6:3E,47,47,8193.446273350994,-5783.242266117501,-25899.172594063748
54339,3557,13311,-14350,13587,-6901,6641,3644,-32504,3336,47,1,48299,2020-11-02 15:58:57,2020-11-02 15:59:26,2,DF:DC:EF:28:D6:3E,47,47,-12751.57694772334,13311.0,-7481.44600637408
54340,15595,6656,-24340,-6640,1027,-16136,-26049,14856,1290,47,1,48325,2020-11-02 15:58:57,2020-11-02 15:59:26,2,DF:DC:EF:28:D6:3E,47,47,12557.209767598097,14069.920795326772,-22897.505817572583
54341,17392,-27906,5104,20494,-7169,-18950,16706,29448,-2294,47,1,48376,2020-11-02 15:58:57,2020-11-02 15:59:26,2,DF:DC:EF:28:D6:3E,47,47,31302.784249993707,6971.939554166276,8877.222147237146
54342,15858,30205,-29968,-10738,-6140,11257,-7612,14088,780,47,1,48378,2020-11-02 15:58:57,2020-11-02 15:59:26,2,DF:DC:EF:28:D6:3E,47,47,-44433.67722537697,-8897.37132397588,2895.5698496683226
54343,-9493,-4098,19699,-32241,14089,-7430,-3654,6663,2317,47,1,48402,2020-11-02 15:58:57,2020-11-02 15:59:26,2,DF:DC:EF:28:D6:3E,47,47,11447.047140124503,-4098.0,18631.499182077845
54344,13290,-5891,-5387,-30960,-23800,-3840,27581,-12283,8973,47,1,48427,2020-11-02 15:58:57,2020-11-02 15:59:26,2,DF:DC:EF:28:D6:3E,47,47,-6718.076107887073,-10881.587078899593,8763.918418890167
54345,6378,14330,17141,22547,15881,4616,-3905,-10236,4364,47,1,48453,2020-11-02 15:58:57,2020-11-02 15:59:26,2,DF:DC:EF:28:D6:3E,47,47,-10977.606043765158,14330.0,14628.223765990548
54346,-25107,-28941,-7183,-20714,-30961,-7664,-16702,-14077,29193,47,1,48479,2020-11-02 15:58:57,2020-11-02 15:59:26,2,DF:DC:EF:28:D6:3E,47,47,690.7861369409229,17097.1346652664,-35024.97993933411
54347,-31243,32492,-27923,-19691,19984,-16873,-25403,6915,24069,47,1,48504,2020-11-02 15:58:57,2020-11-02 15:59:26,2,DF:DC:EF:28:D6:3E,47,47,-12610.169597754979,-14438.16640136558,49437.55673253214
54348,17660,15337,-20247,28433,-244,-26087,-1849,28419,-5888,47,1,48530,2020-11-02 15:58:57,2020-11-02 15:59:26,2,DF:DC:EF:28:D6:3E,47,47,14947.785339615279,5106.164307672219,26599.45445876356
54349,16640,-17175,-27672,18700,32267,-31721,30409,22020,-12804,47,1,48555,2020-11-02 15:58:57,2020-11-02 15:59:26,2,DF:DC:EF:28:D6:3E,47,47,-22209.372666915544,26943.19447289653,-10881.996431617783
54350,-31487,-19473,-1819,-18170,20739,5139,10698,30469,-31239,47,-1,48606,2020-11-02 15:58:57,2020-11-02 15:59:26,2,DF:DC:EF:28:D6:3E,47,47,10812.285329826302,4856.099463170906,-35120.513136203095
54351,16122,16366,10460,-16642,28923,8719,4298,-22777,3064,47,-1,48608,2020-11-02 15:58:57,2020-11-02 15:59:26,2,DF:DC:EF:28:D6:3E,47,47,-17436.77431449859,16366.0,-8080.184744499479
54352,-5387,-15120,17376,14836,19202,-7153,5832,9481,8438,47,-1,48632,2020-11-02 15:58:57,2020-11-02 15:59:26,2,DF:DC:EF:28:D6:3E,47,47,16089.02468664977,-17124.345294451814,2731.2319324364116
54353,23540,3311,30950,-30738,-3839,2833,-24124,8970,-29965,47,-1,48658,2020-11-02 15:58:57,2020-11-02 15:59:26,2,DF:DC:EF:28:D6:3E,47,47,23913.33301000487,-9363.869712577998,-29384.813583864638
54354,12279,5615,-5141,-28692,9472,-20463,31936,5643,-15376,47,-1,48683,2020-11-02 15:58:57,2020-11-02 15:59:26,2,DF:DC:EF:28:D6:3E,47,47,-8144.253009988349,-9776.553426404933,-6842.6670976999685
54355,-18183,-9744,19185,24815,19714,20241,22972,29195,-14099,47,-1,48709,2020-11-02 15:58:57,2020-11-02 15:59:26,2,DF:DC:EF:28:D6:3E,47,47,19078.688582684306,-8506.989763775953,-18901.48187640225
54356,15868,-30476,-20497,-7692,2566,27151,-20923,-9974,-2326,47,-1,48735,2020-11-02 15:58:57,2020-11-02 15:59:26,2,DF:DC:EF:28:D6:3E,47,47,-12120.484061885021,27278.474521192078,26639.926856173348
54357,-12548,-13322,9707,-23562,-3576,9741,19523,25865,-16152,47,-1,48760,2020-11-02 15:58:57,2020-11-02 15:59:26,2,DF:DC:EF:28:D6:3E,47,47,3714.9999424143743,-20283.196919659527,-1986.0853823980942
54358,18684,20471,2793,-27659,21770,14347,16705,-23545,9703,47,-1,48786,2020-11-02 15:58:57,2020-11-02 15:59:26,2,DF:DC:EF:28:D6:3E,47,47,9843.092554406288,-5137.740092204256,-25547.44021835355
54359,-16384,2551,26090,-16908,-10996,-26103,24127,27653,5862,47,-1,48837,2020-11-02 15:58:57,2020-11-02 15:59:26,2,DF:DC:EF:28:D6:3E,47,47,-1662.795272994319,30868.53057764047,9.426419409664959
54360,-11005,31735,2542,-32268,10765,-17915,-24003,7171,-17691,47,-1,48839,2020-11-02 15:58:57,2020-11-02 15:59:26,2,DF:DC:EF:28:D6:3E,47,47,-15935.572178693192,20624.74639656225,21339.1515626829
54361,26629,-6664,-31503,-8203,-9715,-26111,6972,-256,9190,47,-1,48863,2020-11-02 15:58:57,2020-11-02 15:59:26,2,DF:DC:EF:28:D6:3E,47,47,-4888.947766726447,34784.93053246928,-22628.706184523828
54362,-28922,-5895,11507,15095,25614,31229,-14534,7423,17639,47,-1,48888,2020-11-02 15:58:57,2020-11-02 15:59:26,2,DF:DC:EF:28:D6:3E,47,47,13171.207070012952,-14924.549418852921,24645.9182617134
54363,3079,22522,21748,6391,-31731,6649,24889,-23043,3305,47,-1,48914,2020-11-02 15:58:57,2020-11-02 15:59:26,2,DF:DC:EF:28:D6:3E,47,47,-25670.32616314051,1737.5790388665555,18102.800964537928
54364,7686,10234,9975,-29962,-15350,-28428,-15817,-3588,20715,47,-1,48939,2020-11-02 15:58:57,2020-11-02 15:59:26,2,DF:DC:EF:28:D6:3E,47,47,-8288.066445201257,-3678.5966725210474,-13456.814560691771
54365,21254,-7175,-2057,19190,22791,-22801,2358,18941,-10515,47,-1,48967,2020-11-02 15:58:57,2020-11-02 15:59:26,2,DF:DC:EF:28:D6:3E,47,47,-17563.058543966752,14073.240270579458,-962.9500857973014
54366,2566,-13320,1787,-22540,-25341,-8216,14132,-12034,-25360,47,-1,48991,2020-11-02 15:58:57,2020-11-02 15:59:26,2,DF:DC:EF:28:D6:3E,47,47,-9908.039407642751,5477.400026504551,7683.031240743865
54367,26368,28406,24828,-19982,26623,2017,26162,-8191,-30221,47,-1,49016,2020-11-02 15:58:57,2020-11-02 15:59:26,2,DF:DC:EF:28:D6:3E,47,47,12832.940238633939,44166.30136626052,1804.248446390915
54368,-9225,17907,23294,-3091,-26630,2268,-30928,26118,22262,47,-1,49067,2020-11-02 15:58:57,2020-11-02 15:59:26,2,DF:DC:EF:28:D6:3E,47,47,14281.854553001054,15396.266054161257,-22524.549543029818
54369,-26385,5364,7947,-31765,1524,-18465,3630,-14325,-5385,47,-1,49069,2020-11-02 15:58:57,2020-11-02 15:59:26,2,DF:DC:EF:28:D6:3E,47,47,3753.8476313126594,5364.0,-27298.93151683575
54370,-21524,-23305,9231,32498,-10246,-32026,-12501,26640,-25608,47,-1,49093,2020-11-02 15:58:57,2020-11-02 15:59:26,2,DF:DC:EF:28:D6:3E,47,47,-14305.672697338214,-11115.319642767474,-27629.954033905655
54371,-15380,-22024,-1267,26111,2055,-17688,-23252,-15597,763,47,-1,49119,2020-11-02 15:58:57,2020-11-02 15:59:26,2,DF:DC:EF:28:D6:3E,47,47,20803.292868742923,15354.715867455334,-7393.373482181542
54372,14566,-6921,3592,9,30729,-29209,-16335,23062,16384,47,-1,49144,2020-11-02 15:58:57,2020-11-02 15:59:26,2,DF:DC:EF:28:D6:3E,47,47,-115.50833359024364,-14517.272875401784,7887.110185993019
54373,2017,31991,-32510,-25587,-10745,-28437,18745,-2025,-8186,47,-1,49170,2020-11-02 15:58:57,2020-11-02 15:59:26,2,DF:DC:EF:28:D6:3E,47,47,-21699.80132448791,-16330.275126050168,36699.2262423237
54374,6628,-24587,-15619,-2029,-28403,18929,25921,-23529,7437,47,-1,49195,2020-11-02 15:58:57,2020-11-02 15:59:26,2,DF:DC:EF:28:D6:3E,47,47,5865.668927952076,17002.384852975156,-23851.980029737126
54375,-4378,27379,3575,-13797,10006,22007,-22597,-5868,-18928,47,-1,49221,2020-11-02 15:58:57,2020-11-02 15:59:26,2,DF:DC:EF:28:D6:3E,47,47,-7579.116978605713,25789.019183653647,-7683.789779122981
54376,3566,-4875,-9487,-30436,-24811,31741,17856,31761,-6640,47,-1,49247,2020-11-02 15:58:57,2020-11-02 15:59:26,2,DF:DC:EF:28:D6:3E,47,47,1224.5497172500368,9503.190760254882,5888.5476447243855
54377,8180,-16144,-30734,-24805,-29167,6142,-9021,-21490,-7921,47,-1,49272,2020-11-02 15:58:57,2020-11-02 15:59:26,2,DF:DC:EF:28:D6:3E,47,47,-33246.88095206783,-12230.419794111403,4145.073053498278
54378,29935,-14095,-5138,-8422,25875,-27137,17095,11276,28942,47,1,49298,2020-11-02 15:58:57,2020-11-02 15:59:26,2,DF:DC:EF:28:D6:3E,47,47,12143.798773384515,-3904.0226262520205,-30958.989852468654
54379,13801,28402,24044,-24552,25622,-9209,-10551,3594,-26357,47,1,49323,2020-11-02 15:58:57,2020-11-02 15:59:26,2,DF:DC:EF:28:D6:3E,47,47,-35946.45058934123,-12810.697877610908,-10908.430268220323
54380,-8978,-25874,24557,7445,-28652,23824,-28213,7177,30727,47,1,49349,2020-11-02 15:58:57,2020-11-02 15:59:26,2,DF:DC:EF:28:D6:3E,47,47,-11485.099599873103,32929.72222200364,-11697.884020739573
54381,6904,-29205,30186,25874,-31214,2580,-14644,18185,259,47,1,49375,2020-11-02 15:58:57,2020-11-02 15:59:26,2,DF:DC:EF:28:D6:3E,47,47,-4860.043342101893,39601.62048751932,-14828.468244406804
54382,-23558,-29459,-6686,-3317,27411,5908,10701,-18679,28414,47,1,49400,2020-11-02 15:58:57,2020-11-02 15:59:26,2,DF:DC:EF:28:D6:3E,47,47,-25652.259124332577,-13957.15157348735,24792.623152316806
54383,26872,17135,11749,258,26129,-28652,-1077,8458,-15879,47,1,49426,2020-11-02 15:58:57,2020-11-02 15:59:26,2,DF:DC:EF:28:D6:3E,47,47,5424.562193072496,-29322.485441508263,-16263.996512113019
54384,-29961,-18706,25321,20219,-26100,-8941,-18487,-23030,-29963,47,1,49451,2020-11-02 15:58:57,2020-11-02 15:59:26,2,DF:DC:EF:28:D6:3E,47,47,-20444.180120826742,8769.86394215026,37334.3539333864
54385,-13833,-25617,-7189,30200,17418,-5614,-4154,6923,-13839,47,1,49477,2020-11-02 15:58:57,2020-11-02 15:59:26,2,DF:DC:EF:28:D6:3E,47,47,-17665.778392872704,22957.168781471366,7755.834855961576
54386,4087,32751,5868,22520,-19956,30227,-3645,1035,-4371,47,1,49503,2020-11-02 15:58:57,2020-11-02 15:59:26,2,DF:DC:EF:28:D6:3E,47,47,4087.0,32751.0,5868.0
54387,12795,25070,1002,28663,7950,-25325,-5184,12298,-4887,47,1,49528,2020-11-02 15:58:57,2020-11-02 15:59:26,2,DF:DC:EF:28:D6:3E,47,47,-4413.482751941354,25070.0,-12051.439706454836
54388,2,-12561,-22036,-5386,1294,-11249,11454,-14840,31974,47,1,49554,2020-11-02 15:58:57,2020-11-02 15:59:26,2,DF:DC:EF:28:D6:3E,47,47,17070.060404737495,-16262.223769159325,9355.059425808195
54389,19975,-5905,3823,5114,-21745,27656,24252,-16122,19684,47,1,49580,2020-11-02 15:58:57,2020-11-02 15:59:26,2,DF:DC:EF:28:D6:3E,47,47,9049.783499062773,-8111.300912546751,17343.39053144481
54390,-28407,-273,15600,-13058,14610,-20993,-13893,7684,-30493,47,1,49605,2020-11-02 15:58:57,2020-11-02 15:59:26,2,DF:DC:EF:28:D6:3E,47,47,-19555.39135436105,-15699.983126421424,20530.20644825238
54391,22792,16879,14320,13058,276,29687,6076,1,5092,47,1,49631,2020-11-02 15:58:57,2020-11-02 15:59:26,2,DF:DC:EF:28:D6:3E,47,47,22792.0,-2930.101881700746,21940.31777260425
54392,-6393,5871,28144,-23806,11281,21232,-29764,-7939,-20763,47,1,49656,2020-11-02 15:58:57,2020-11-02 15:59:26,2,DF:DC:EF:28:D6:3E,47,47,11186.56511633347,27173.167824019518,1975.7371550136932
54393,-15354,8174,-28433,-18177,-29430,-24600,24508,28411,-31768,47,-1,49682,2020-11-02 15:58:57,2020-11-02 15:59:26,2,DF:DC:EF:28:D6:3E,47,47,25942.798365973023,-6993.773939120754,-19724.437128368016
54394,6148,7405,-11535,-20486,13060,-30495,-838,2810,-17684,47,-1,49708,2020-11-02 15:58:57,2020-11-02 15:59:26,2,DF:DC:EF:28:D6:3E,47,47,-5041.480209416221,-8198.500246878362,-11535.0
54395,-10241,-29972,12279,-28683,14334,-2084,837,-4359,-527,47,-1,49733,2020-11-02 15:58:57,2020-11-02 15:59:26,2,DF:DC:EF:28:D6:3E,47,47,-10241.0,-29972.0,12279.0
54396,6903,238,-30972,-268,5115,477,4162,15867,26615,47,-1,49759,2020-11-02 15:58:57,2020-11-02 15:59:26,2,DF:DC:EF:28:D6:3E,47,47,20466.224288845635,23332.117264726323,6612.019684160414
54397,-11778,-10769,-28417,3324,16382,8414,24640,-8708,18684,47,-1,49784,2020-11-02 15:58:57,2020-11-02 15:59:26,2,DF:DC:EF:28:D6:3E,47,47,30604.499056834473,10250.64456282659,4528.516040251091
54398,24314,-13075,-29444,-4610,30717,986,-20673,-14594,-32255,47,-1,49810,2020-11-02 15:58:57,2020-11-02 15:59:26,2,DF:DC:EF:28:D6:3E,47,47,-19292.657492811813,-34235.029251517175,9210.401512030614
54399,6382,-32017,-3075,1537,-21505,-17958,-16321,-11520,1543,47,-1,49836,2020-11-02 15:58:57,2020-11-02 15:59:26,2,DF:DC:EF:28:D6:3E,47,47,-30291.786851974935,10527.683678240886,-6844.659501057667
54400,-13340,11512,4605,-11769,-24822,5093,-10944,29441,-4597,47,-1,49861,2020-11-02 15:58:57,2020-11-02 15:59:26,2,DF:DC:EF:28:D6:3E,47,47,3119.167367521488,10094.934030194388,-14834.11173139168
54401,27111,27131,-1797,31247,11024,14834,-3006,-4865,14607,47,-1,49887,2020-11-02 15:58:57,2020-11-02 15:59:26,2,DF:DC:EF:28:D6:3E,47,47,-35952.305372837145,13361.482716310536,-1797.0
54402,-3349,-18695,-13066,7697,30213,1787,-31163,-29698,-25328,47,-1,49912,2020-11-02 15:58:57,2020-11-02 15:59:26,2,DF:DC:EF:28:D6:3E,47,47,8711.828336279155,-21142.061205837825,-2925.145638735069
54403,-21522,-17672,17649,11278,-23305,-28930,16827,14335,2065,47,-1,49938,2020-11-02 15:58:57,2020-11-02 15:59:26,2,DF:DC:EF:28:D6:3E,47,47,-12333.68643762809,-8694.043390585355,29313.42793637223
54404,-23060,-14858,-6926,-17650,-27397,-7935,27837,31488,7185,47,-1,49964,2020-11-02 15:58:57,2020-11-02 15:59:26,2,DF:DC:EF:28:D6:3E,47,47,-15467.278659938314,-15815.300577438273,-17638.95684276985
54405,15601,15859,1522,23314,-1274,18950,3008,21760,20496,47,-1,49991,2020-11-02 15:58:57,2020-11-02 15:59:26,2,DF:DC:EF:28:D6:3E,47,47,12839.650919065361,-17849.561185428116,-3708.381825567866
54406,-3343,27887,-12306,-8940,18700,19466,11971,23807,-32242,47,-1,50015,2020-11-02 15:58:57,2020-11-02 15:59:26,2,DF:DC:EF:28:D6:3E,47,47,-5524.994790268102,-20141.296975198875,-22452.185700380152
54407,-1806,14061,-24600,-2798,-15864,10255,26054,255,-1269,47,-1,50040,2020-11-02 15:58:57,2020-11-02 15:59:26,2,DF:DC:EF:28:D6:3E,47,47,-1806.0,-27808.224337538282,5438.2331867200755
54408,12791,4843,-32026,-9971,24068,-9198,-5432,-4097,19465,47,-1,50066,2020-11-02 15:58:57,2020-11-02 15:59:26,2,DF:DC:EF:28:D6:3E,47,47,-13346.438223050234,-2989.467637942196,-32026.0
54409,-22278,30186,-6425,1802,-5629,-13549,-27958,32257,-23546,47,-1,50092,2020-11-02 15:58:57,2020-11-02 15:59:26,2,DF:DC:EF:28:D6:3E,47,47,32334.468213952612,-14690.537190666295,-13691.412906290525
54410,24571,20715,-32024,-10233,-21243,7955,-25909,6147,2052,47,-1,50117,2020-11-02 15:58:57,2020-11-02 15:59:26,2,DF:DC:EF:28:D6:3E,47,47,44081.55538192131,10695.615503551373,-895.6149344422865
54411,-16646,14572,2537,-13050,7180,22803,11468,15364,-4352,47,-1,50143,2020-11-02 15:58:57,2020-11-02 15:59:26,2,DF:DC:EF:28:D6:3E,47,47,18015.623697477902,-8370.979274021714,10061.455053061241
54412,24060,20204,-30739,-17915,13840,18707,21196,-7932,12029,47,-1,50168,2020-11-02 15:58:57,2020-11-02 15:59:26,2,DF:DC:EF:28:D6:3E,47,47,20488.129088388985,-7127.0098112241285,38228.44012784492
54413,5370,15341,10733,16388,6160,2836,11212,24837,13305,47,-1,50194,2020-11-02 15:58:57,2020-11-02 15:59:26,2,DF:DC:EF:28:D6:3E,47,47,8028.003739812709,-15756.728543089173,-8164.381885541128
54414,-2053,-30997,-15380,-26623,31505,-8683,-30773,-1019,1781,47,1,50220,2020-11-02 15:58:57,2020-11-02 15:59:26,2,DF:DC:EF:28:D6:3E,47,47,-2053.0,5955.578581515447,-34086.50015415772
54415,13309,-27927,-3860,30462,-1004,27670,13514,10758,19184,47,1,50245,2020-11-02 15:58:57,2020-11-02 15:59:26,2,DF:DC:EF:28:D6:3E,47,47,10561.982911636735,-16790.155422891163,-24051.644597603965
54416,23553,-1817,-19215,-27909,-21486,-24813,32456,-10747,-20245,47,1,50271,2020-11-02 15:58:57,2020-11-02 15:59:26,2,DF:DC:EF:28:D6:3E,47,47,-18360.480503945102,16515.390801530408,17815.615210735123
54417,-9982,-20760,-24334,30202,11023,19983,-8762,17925,1512,47,1,50297,2020-11-02 15:58:57,2020-11-02 15:59:26,2,DF:DC:EF:28:D6:3E,47,47,10491.915890494094,-31693.030814137936,-2869.3167759766275
54418,-22779,-3863,16627,-23557,29198,-3319,-27451,20740,14565,47,1,50322,2020-11-02 15:58:57,2020-11-02 15:59:26,2,DF:DC:EF:28:D6:3E,47,47,571.4077655231977,22921.597218845505,16868.213097495347
54419,10503,25835,-19214,24828,-32243,7427,-16444,-10494,24547,47,1,50348,2020-11-02 15:58:57,2020-11-02 15:59:26,2,DF:DC:EF:28:D6:3E,47,47,-33591.13468137394,4284.5055696182535,465.52426543326055
54420,-27130,-5397,27888,-9221,9996,-2821,12228,-2816,-24094,47,1,50373,2020-11-02 15:58:57,2020-11-02 15:59:26,2,DF:DC:EF:28:D6:3E,47,47,35224.98101549655,-5424.685951264517,-16512.98119020491
54421,22278,1004,7152,-14855,25865,16885,28867,-4098,2531,47,1,50399,2020-11-02 15:58:57,2020-11-02 15:59:26,2,DF:DC:EF:28:D6:3E,47,47,22278.0,7143.023246595845,1065.991978671203
54422,3588,-8212,-2834,27382,-26874,27119,7362,-1796,-26908,47,1,50425,2020-11-02 15:58:57,2020-11-02 15:59:26,2,DF:DC:EF:28:D6:3E,47,47,-792.1376774698308,4056.83686207577,-8441.376462072754
54423,9474,21230,-27410,24306,13317,-27413,-5185,14331,5607,47,1,50450,2020-11-02 15:58:57,2020-11-02 15:59:26,2,DF:DC:EF:28:D6:3E,47,47,-28866.417598739565,21230.0,2791.9009680106647
54424,7936,29935,-21520,19694,-25596,6633,-16196,-10759,18666,47,1,50476,2020-11-02 15:58:57,2020-11-02 15:59:26,2,DF:DC:EF:28:D6:3E,47,47,-14940.60524113948,34478.90224076362,-3190.3504980331772
54425,29182,-23823,19444,-532,-10748,-18713,-31163,-2056,238,47,1,50501,2020-11-02 15:58:57,2020-11-02 15:59:26,2,DF:DC:EF:28:D6:3E,47,47,29182.0,-25403.007840840502,-17328.925461152976
54426,23804,12021,26615,-9234,-32251,-2586,-28095,-22280,2034,47,1,50527,2020-11-02 15:58:57,2020-11-02 15:59:26,2,DF:DC:EF:28:D6:3E,47,47,-22394.597911506182,-27999.74837902199,11575.36855108373
54427,20733,14072,-30216,-21519,2307,-24092,-3011,14073,15094,47,1,50553,2020-11-02 15:58:57,2020-11-02 15:59:26,2,DF:DC:EF:28:D6:3E,47,47,2228.642113138554,-38684.65917550848,-6278.170737268403
54428,-14088,5628,26353,757,-32768,-26653,1595,-3078,25082,47,1,50578,2020-11-02 15:58:57,2020-11-02 15:59:26,2,DF:DC:EF:28:D6:3E,47,47,13467.815774319584,6983.127255677684,26353.0
54429,23538,-5636,22514,27889,25340,10981,-32712,-30979,-5635,47,1,50604,2020-11-02 15:58:57,2020-11-02 15:59:26,2,DF:DC:EF:28:D6:3E,47,47,7618.382597777612,-23187.941197036642,-22292.639270320822
54430,-29451,-21763,17913,18415,21499,-16151,-2763,29696,19456,47,-1,50629,2020-11-02 15:58:57,2020-11-02 15:59:26,2,DF:DC:EF:28:D6:3E,47,47,28347.03526407711,17942.223012856826,-23160.03808490132
54431,16637,-12293,21502,-7952,-18949,9705,-17357,20995,16386,47,-1,50655,2020-11-02 15:58:57,2020-11-02 15:59:26,2,DF:DC:EF:28:D6:3E,47,47,-5822.893628591346,-23812.74374948224,17008.549818006377
54432,5630,18680,5890,-5134,-20231,28644,3378,-8698,10756,47,-1,50681,2020-11-02 15:58:57,2020-11-02 15:59:26,2,DF:DC:EF:28:D6:3E,47,47,-16753.012263093344,8481.966896499809,7919.862226031801
54433,5115,-1293,-19451,19959,16378,11232,21041,10251,26630,47,-1,50706,2020-11-02 15:58:57,2020-11-02 15:59:26,2,DF:DC:EF:28:D6:3E,47,47,-9251.374700193981,-16869.206217363288,6001.535033029674
54434,16112,-29710,23047,17149,-12547,-28962,18994,-20209,-31223,47,-1,50732,2020-11-02 15:58:57,2020-11-02 15:59:26,2,DF:DC:EF:28:D6:3E,47,47,-28529.176143023382,-4219.932556351674,29012.465093821116
54435,18918,30454,24070,1286,-5113,-29468,15670,-5358,-28402,47,-1,50758,2020-11-02 15:58:57,2020-11-02 15:59:26,2,DF:DC:EF:28:D6:3E,47,47,13789.558685383814,36907.19473362833,17675.08948085959
54436,2538,4345,27909,18447,27409,-24593,29756,-1518,26132,47,-1,50783,2020-11-02 15:58:57,2020-11-02 15:59:26,2,DF:DC:EF:28:D6:3E,47,47,19527.83656226227,-20219.602727345333,3750.201960681844
54437,-2833,7925,-31999,17684,20235,15605,5186,-29679,9240,47,-1,50809,2020-11-02 15:58:57,2020-11-02 15:59:26,2,DF:DC:EF:28:D6:3E,47,47,-23681.822363802432,-22214.538520669787,-6360.273802517105
54438,16879,27121,-22019,-32745,-3321,16373,-31046,32016,-29158,47,-1,50834,2020-11-02 15:58:57,2020-11-02 15:59:26,2,DF:DC:EF:28:D6:3E,47,47,-31641.50853452426,-5408.034498695115,21791.139105621616
54439,16872,-21009,-17417,-30179,25357,-14603,-6465,-18674,25884,47,-1,50860,2020-11-02 15:58:57,2020-11-02 15:59:26,2,DF:DC:EF:28:D6:3E,47,47,-8001.676874146287,30523.394743791516,-5804.299657704869
54440,-14114,-16660,-31767,-21718,-3036,-18178,24773,-19958,-24549,47,1,50885,2020-11-02 15:58:57,2020-11-02 15:59:26,2,DF:DC:EF:28:D6:3E,47,47,3898.3582649991185,15606.906510959676,-35030.417596652725
54441,23789,-4119,10979,-32473,13618,10256,-6199,-6907,-3307,47,1,50911,2020-11-02 15:58:57,2020-11-02 15:59:26,2,DF:DC:EF:28:D6:3E,47,47,4945.108919868757,7013.004744335029,25095.513248917006
54442,-28936,19178,-27929,-24812,-26592,25109,-5940,-21245,1039,47,1,50937,2020-11-02 15:58:57,2020-11-02 15:59:26,2,DF:DC:EF:28:D6:3E,47,47,33053.29501762079,-13139.525512760556,26831.87244263135
54443,14326,4074,-21268,-11260,1542,-9454,-10803,-29692,15371,47,1,50962,2020-11-02 15:58:57,2020-11-02 15:59:26,2,DF:DC:EF:28:D6:3E,47,47,18534.09951215792,-2782.1806691004895,-17969.5910359115
54444,1267,-25623,-16143,20479,-29185,-20461,29645,-13818,18697,47,1,50988,2020-11-02 15:58:57,2020-11-02 15:59:26,2,DF:DC:EF:28:D6:3E,47,47,21728.379479985408,19880.839222775823,-7167.260562578105
54445,20470,5097,-11274,29954,-17913,19222,-22580,-5624,-27130,47,1,51015,2020-11-02 15:58:57,2020-11-02 15:59:26,2,DF:DC:EF:28:D6:3E,47,47,-8357.202857905875,19829.965885036458,10441.886725592278
54446,12536,15850,4856,-24057,-28654,13591,-15669,-1527,13570,47,1,51039,2020-11-02 15:58:57,2020-11-02 15:59:26,2,DF:DC:EF:28:D6:3E,47,47,-3234.2036790964958,12306.310388734972,-16433.17325345998
54447,3320,29420,-19980,4105,-746,27160,-11062,13066,-11780,47,1,51065,2020-11-02 15:58:57,2020-11-02 15:59:26,2,DF:DC:EF:28:D6:3E,47,47,13193.882516051686,31032.45951995675,11775.70041631798
54448,25076,16364,21739,-14073,5400,18200,-5687,4106,19959,47,1,51090,2020-11-02 15:58:57,2020-11-02 15:59:26,2,DF:DC:EF:28:D6:3E,47,47,-27134.339656644435,-12661.511892260458,21739.0
54449,4602,10216,-31256,26880,-18156,-23270,-1593,-6391,32753,47,1,51116,2020-11-02 15:58:57,2020-11-02 15:59:26,2,DF:DC:EF:28:D6:3E,47,47,17962.292238753435,-24707.1284629954,-13015.239400128637
54450,4353,26601,-17946,503,-14578,24342,6597,-17143,-31252,47,1,51141,2020-11-02 15:58:57,2020-11-02 15:59:26,2,DF:DC:EF:28:D6:3E,47,47,-32049.401455213312,-4439.538213423664,-1321.7763858239905
54451,18436,29931,-26391,20976,-16885,23310,-24127,1545,-2584,47,1,51167,2020-11-02 15:58:57,2020-11-02 15:59:26,2,DF:DC:EF:28:D6:3E,47,47,18436.0,408.5674376027673,39902.16428527318
54452,-24317,25069,-2069,14319,779,18438,29118,-17913,999,47,1,51193,2020-11-02 15:58:57,2020-11-02 15:59:26,2,DF:DC:EF:28:D6:3E,47,47,27548.89280683984,5127.1130030995855,20948.107990238525
54453,-22015,-28433,2283,29424,-10997,32512,-8773,-507,22502,47,1,51218,2020-11-02 15:58:57,2020-11-02 15:59:26,2,DF:DC:EF:28:D6:3E,47,47,23691.526427283698,10200.065999226495,25159.054675339885
54454,13569,-18959,16106,-13072,1292,764,-20039,7940,-23834,47,-1,51244,2020-11-02 15:58:57,2020-11-02 15:59:26,2,DF:DC:EF:28:D6:3E,47,47,-13418.424538510422,-16655.940747390716,-18587.366643064608
54455,-23807,-17933,-16405,-13328,269,18424,15940,13826,-19481,47,-1,51269,2020-11-02 15:58:57,2020-11-02 15:59:26,2,DF:DC:EF:28:D6:3E,47,47,1883.6353394424495,-22337.50957560671,25592.525214751317
54456,17921,3829,-22289,-8720,-31219,-3596,6978,25344,30697,47,-1,51295,2020-11-02 15:58:57,2020-11-02 15:59:26,2,DF:DC:EF:28:D6:3E,47,47,18539.80202756816,10738.470807781405,19328.320891608928
54457,-13056,-26122,-2317,-22286,6670,16882,-1217,-13570,-9493,47,-1,51321,2020-11-02 15:58:57,2020-11-02 15:59:26,2,DF:DC:EF:28:D6:3E,47,47,-17906.99583481408,-20458.514538758536,-10907.574984356372
54458,-8960,-15113,12278,18421,12558,-25617,318,31997,-15378,47,-1,51346,2020-11-02 15:58:57,2020-11-02 15:59:26,2,DF:DC:EF:28:D6:3E,47,47,-7784.951267290367,19306.079342932615,-5109.157187864229
54459,4862,-24072,7418,14329,-24051,11757,21308,-22788,8946,47,-1,51372,2020-11-02 15:58:57,2020-11-02 15:59:26,2,DF:DC:EF:28:D6:3E,47,47,-20954.004517023866,9535.558678563193,11319.442008695552
54460,24059,-20999,13822,-8449,10253,7916,21307,13820,-15627,47,-1,51397,2020-11-02 15:58:57,2020-11-02 15:59:26,2,DF:DC:EF:28:D6:3E,47,47,27595.370726902915,15028.608559074817,-14949.167375572892
54461,-25347,2555,-530,-14589,-1526,17642,12603,7676,31225,47,-1,51423,2020-11-02 15:58:57,2020-11-02 15:59:26,2,DF:DC:EF:28:D6:3E,47,47,-3835.0232153032925,10914.987906599396,22703.19294585838
54462,7162,-25093,-21526,4604,-12542,24805,-26566,8957,17661,47,-1,51449,2020-11-02 15:58:57,2020-11-02 15:59:26,2,DF:DC:EF:28:D6:3E,47,47,-4345.8297535281,-32403.80757696941,-8684.963285362206
54463,13044,29692,27121,-18699,-29185,-24092,9529,24575,-9216,47,-1,51474,2020-11-02 15:58:57,2020-11-02 15:59:26,2,DF:DC:EF:28:D6:3E,47,47,-26519.1811641271,28754.72269616873,-16037.71785668539
54464,16114,10750,-15367,-4874,-23550,-2329,-19401,-25599,7428,47,-1,51500,2020-11-02 15:58:57,2020-11-02 15:59:26,2,DF:DC:EF:28:D6:3E,47,47,10689.585322465733,-7062.776842486386,-21147.532572547636
54465,-15117,-770,6910,-29953,9224,19691,28471,1795,22535,47,-1,51525,2020-11-02 15:58:57,2020-11-02 15:59:26,2,DF:DC:EF:28:D6:3E,47,47,14156.702260482933,-7808.750868607116,-3933.9394987804544
54466,1011,18175,2301,-12537,-13815,-28436,-22472,-15357,-21494,47,-1,51577,2020-11-02 15:58:57,2020-11-02 15:59:26,2,DF:DC:EF:28:D6:3E,47,47,-6436.353284346062,16929.52049369778,2934.6276173570122
54467,-8208,-28929,-26885,-21490,-13300,1776,5179,-11773,-5107,47,-1,51579,2020-11-02 15:58:57,2020-11-02 15:59:26,2,DF:DC:EF:28:D6:3E,47,47,27862.194554587397,-28929.0,3724.594421184729
54468,3827,-29186,-28167,30995,25614,-13068,15422,-14846,-21744,47,-1,51602,2020-11-02 15:58:57,2020-11-02 15:59:26,2,DF:DC:EF:28:D6:3E,47,47,-6433.317338931352,-39056.57075216276,9645.99000092316
54469,-267,8957,25335,-30957,-5113,18935,30273,-20479,-30190,47,-1,51628,2020-11-02 15:58:57,2020-11-02 15:59:26,2,DF:DC:EF:28:D6:3E,47,47,-25601.714502141374,8055.367623127483,1350.7886611581062
54470,-30476,-1286,-26124,-30701,-31227,-10761,-30908,4865,-3309,47,-1,51654,2020-11-02 15:58:57,2020-11-02 15:59:26,2,DF:DC:EF:28:D6:3E,47,47,-30476.0,24686.14818079412,-8643.567550258118
54471,6384,-17928,1522,4629,-1273,-15877,7099,2816,-6892,47,-1,51679,2020-11-02 15:58:57,2020-11-02 15:59:26,2,DF:DC:EF:28:D6:3E,47,47,-5779.339956015583,-11297.585866019373,-14263.55170610466
54472,-23059,-8713,-6930,-17901,17157,19714,17342,15103,-10220,47,-1,51705,2020-11-02 15:58:57,2020-11-02 15:59:26,2,DF:DC:EF:28:D6:3E,47,47,16032.512744664687,-7194.35761655297,18624.137659964574
54473,13551,-27148,-7954,-3311,30980,-7928,12481,-5122,-18925,47,-1,51730,2020-11-02 15:58:57,2020-11-02 15:59:26,2,DF:DC:EF:28:D6:3E,47,47,-10800.419606087242,-20256.983181467527,-21375.574605567635
54474,-26384,12785,-24338,25105,23044,10765,-573,7935,-11759,47,-1,51756,2020-11-02 15:58:57,2020-11-02 15:59:26,2,DF:DC:EF:28:D6:3E,47,47,26080.251634153687,26264.06052389654,9051.492942952755
54475,-30992,-13075,-18194,-26095,30216,-10479,-14906,-27137,15119,47,-1,51782,2020-11-02 15:58:57,2020-11-02 15:59:26,2,DF:DC:EF:28:D6:3E,47,47,-4463.477227440535,36432.490942897646,10734.630861645912
54476,10738,-18455,19949,-11504,12555,-17898,29897,23040,-15861,47,-1,51807,2020-11-02 15:58:57,2020-11-02 15:59:26,2,DF:DC:EF:28:D6:3E,47,47,22910.855504774303,16672.449782155658,-7139.775087553591
54477,-15627,7655,-11287,-22003,-29430,-26343,-24885,-13567,-8953,47,-1,51833,2020-11-02 15:58:57,2020-11-02 15:59:26,2,DF:DC:EF:28:D6:3E,47,47,20.25269097661794,6517.362144791423,-19690.660311481377
54478,19960,30695,19433,9480,11786,-8679,-16692,-19965,1028,47,-1,51858,2020-11-02 15:58:57,2020-11-02 15:59:26,2,DF:DC:EF:28:D6:3E,47,47,-14680.231093352024,4896.749747688937,38454.372585627876
54479,-20744,-26394,-28181,-19965,-12022,-27624,-15924,-29691,14080,47,-1,51884,2020-11-02 15:58:57,2020-11-02 15:59:26,2,DF:DC:EF:28:D6:3E,47,47,1504.7218253004612,31894.73121517172,30026.44610906218
54480,-6151,-22555,-19219,5891,-20723,536,7884,1799,13052,47,-1,51910,2020-11-02 15:58:57,2020-11-02 15:59:26,2,DF:DC:EF:28:D6:3E,47,47,-1064.4787906541897,-7251.730057481376,-29363.448078821883
54481,-4868,-19993,-26388,-20989,531,-31466,13003,-16633,-23817,47,-1,51935,2020-11-02 15:58:57,2020-11-02 15:59:26,2,DF:DC:EF:28:D6:3E,47,47,-30058.252459541283,-14635.503859958426,-1430.9097957672184
54482,17406,15082,-6677,14594,-16108,-20718,6858,-27385,-270,47,-1,51961,2020-11-02 15:58:57,2020-11-02 15:59:26,2,DF:DC:EF:28:D6:3E,47,47,-4502.930451364902,13767.34114266561,-19110.254425612377
54483,29183,-2838,-20495,-8448,-3820,-7411,457,-20730,-7954,47,-1,51986,2020-11-02 15:58:57,2020-11-02 15:59:26,2,DF:DC:EF:28:D6:3E,47,47,-16435.250303465655,20343.770772475767,24408.201413037234
54484,-16130,19436,-28179,-14596,-7917,18187,-4409,18181,22251,47,-1,52012,2020-11-02 15:58:57,2020-11-02 15:59:26,2,DF:DC:EF:28:D6:3E,47,47,-14614.757176613017,-17549.18891719159,30173.26429170961
54485,14851,23020,14569,32243,-10228,-28665,6598,1540,-17688,47,-1,52039,2020-11-02 15:58:57,2020-11-02 15:59:26,2,DF:DC:EF:28:D6:3E,47,47,-14677.207230597194,-2272.356521712589,27242.326364470704
54486,13060,-32276,-23057,-29458,3336,-19967,-30525,1283,-31257,47,1,52063,2020-11-02 15:58:57,2020-11-02 15:59:26,2,DF:DC:EF:28:D6:3E,47,47,-8717.695293275498,16198.234740224478,-37490.63889925306
54487,-4095,19950,-1809,-16146,-19192,18430,-6208,-15103,9447,47,1,52089,2020-11-02 15:58:57,2020-11-02 15:59:26,2,DF:DC:EF:28:D6:3E,47,47,1859.1467997131954,20028.09901324005,3669.1728077277953
54488,18178,18671,-19729,-5396,30471,17660,12478,27648,16359,47,1,52114,2020-11-02 15:58:57,2020-11-02 15:59:26,2,DF:DC:EF:28:D6:3E,47,47,3630.015120793305,-32369.379205461955,-2706.593075402956
54489,1537,-5648,-29452,-11028,22278,31738,20411,22015,-9753,47,1,52140,2020-11-02 15:58:57,2020-11-02 15:59:26,2,DF:DC:EF:28:D6:3E,47,47,9542.704244642919,3179.3966841362876,-28293.299726687535
54490,-16899,-5900,-14092,-25104,-23543,7675,25669,6142,-23064,47,1,52166,2020-11-02 15:58:57,2020-11-02 15:59:26,2,DF:DC:EF:28:D6:3E,47,47,3598.4672180173216,6249.635582012514,21609.34413102114
54491,-24319,15351,13039,19185,6153,17402,8259,-20484,-28951,47,1,52191,2020-11-02 15:58:57,2020-11-02 15:59:26,2,DF:DC:EF:28:D6:3E,47,47,8598.009711546514,19625.741596723063,-23194.546315433847
54492,9731,-31240,29935,12527,-19705,-12298,-31168,-18693,-2582,47,1,52217,2020-11-02 15:58:57,2020-11-02 15:59:26,2,DF:DC:EF:28:D6:3E,47,47,-6604.42424596519,-37567.00483591224,22623.790885655166
54493,6918,-9225,-785,28909,-27128,-15,29757,5115,6125,47,1,52242,2020-11-02 15:58:57,2020-11-02 15:59:26,2,DF:DC:EF:28:D6:3E,47,47,6573.180834860301,4000.7264645081846,8623.40161817882
54494,-5889,-2056,24823,-22034,-28663,-27154,4410,4347,1776,47,1,52268,2020-11-02 15:58:57,2020-11-02 15:59:26,2,DF:DC:EF:28:D6:3E,47,47,-5889.0,-2056.0,24823.0
54495,2818,-26121,25592,3056,-4088,20713,-6858,-22277,31731,47,1,52294,2020-11-02 15:58:57,2020-11-02 15:59:26,2,DF:DC:EF:28:D6:3E,47,47,4892.089105932413,9626.048356319641,-35051.46054334132
54496,13311,4342,27642,-3087,-5111,-28188,5428,17405,23287,47,1,52319,2020-11-02 15:58:57,2020-11-02 15:59:26,2,DF:DC:EF:28:D6:3E,47,47,9349.85618497674,4182.698957496797,-29243.821018314404
54497,-5636,-25611,-13315,16117,-4854,18144,-975,-20993,-29445,47,1,52345,2020-11-02 15:58:57,2020-11-02 15:59:26,2,DF:DC:EF:28:D6:3E,47,47,26674.735386863347,-112.62945488747141,12386.397726809519
54498,-3347,13047,20484,-29957,-29172,27357,10033,-9470,4096,47,1,52371,2020-11-02 15:58:57,2020-11-02 15:59:26,2,DF:DC:EF:28:D6:3E,47,47,-20359.64995150458,-10187.367468143333,9095.222477829475
54499,-22553,8954,-24317,-18171,-498,-18974,20530,-27899,-10748,47,1,52396,2020-11-02 15:58:57,2020-11-02 15:59:26,2,DF:DC:EF:28:D6:3E,47,47,13753.85894424492,-31475.436296660228,506.6439348279273
54500,12258,3839,2305,13071,22284,-17173,16437,5639,1289,47,1,52422,2020-11-02 15:58:57,2020-11-02 15:59:26,2,DF:DC:EF:28:D6:3E,47,47,12258.0,-3693.5182743376763,2531.5743633426287
54501,-24601,-21506,-8196,-20203,24076,760,6457,6151,-12021,47,1,52447,2020-11-02 15:58:57,2020-11-02 15:59:26,2,DF:DC:EF:28:D6:3E,47,47,9124.461664016082,31286.78045183016,8530.722202772695
54502,2803,-6404,-12303,8471,-14330,-29444,5949,9478,15373,47,1,52473,2020-11-02 15:58:57,2020-11-02 15:59:26,2,DF:DC:EF:28:D6:3E,47,47,-2682.8389119695803,-10700.605288791567,-8861.786266092622
54503,-28942,20988,18668,21778,-28932,12281,31552,30726,3086,47,-1,52499,2020-11-02 15:58:57,2020-11-02 15:59:26,2,DF:DC:EF:28:D6:3E,47,47,6011.572605410219,23854.70030791366,-31960.037547373213
54504,744,-12292,6895,12560,-6404,-2311,23363,24583,3855,47,-1,52524,2020-11-02 15:58:57,2020-11-02 15:59:26,2,DF:DC:EF:28:D6:3E,47,47,-4115.741506476156,13252.740592803682,-2571.6460937934007
54505,8424,6396,24559,5905,16897,30976,3910,-27385,27407,47,-1,52550,2020-11-02 15:58:57,2020-11-02 15:59:26,2,DF:DC:EF:28:D6:3E,47,47,-3709.1619718241873,-14079.695329418846,-22428.137905263433
54506,-26643,762,17132,28432,17663,32516,-7749,-25849,-6642,47,-1,52575,2020-11-02 15:58:57,2020-11-02 15:59:26,2,DF:DC:EF:28:D6:3E,47,47,25409.332823828066,-12129.182079369402,14532.180309005176
54507,11502,-11014,-32279,28941,-20997,-30971,-7235,18440,11022,47,-1,52601,2020-11-02 15:58:57,2020-11-02 15:59:26,2,DF:DC:EF:28:D6:3E,47,47,21087.90876467443,-28443.09193721382,6467.5084834864865
54508,23791,3579,-14359,-2038,24061,-30969,23231,5385,14605,47,-1,52627,2020-11-02 15:58:57,2020-11-02 15:59:26,2,DF:DC:EF:28:D6:3E,47,47,2107.921177034983,27128.862352145305,6677.072621273528
54509,9456,18170,-9493,14601,19454,-14839,20416,-13559,-6645,47,-1,52652,2020-11-02 15:58:57,2020-11-02 15:59:26,2,DF:DC:EF:28:D6:3E,47,47,-22012.32461456053,3468.8377677680655,3620.305871624443
54510,2289,-12551,-3602,26376,-25858,32523,-7232,-29686,14346,47,-1,52678,2020-11-02 15:58:57,2020-11-02 15:59:26,2,DF:DC:EF:28:D6:3E,47,47,5214.207980503071,12185.71519298147,248.8099105716759
54511,-273,-6407,5360,23305,-28161,30477,19905,23307,14344,47,-1,52703,2020-11-02 15:58:57,2020-11-02 15:59:26,2,DF:DC:EF:28:D6:3E,47,47,-7109.975687038981,2111.283415703696,3852.856870984062
54512,-20753,-21000,-22035,31498,11009,23312,-27455,7180,-20731,47,-1,52729,2020-11-02 15:58:57,2020-11-02 15:59:26,2,DF:DC:EF:28:D6:3E,47,47,16632.19467504973,-28339.127490349834,16658.096751338242
54513,15862,19702,1261,-9718,-30462,8210,-27711,-16628,-28926,47,-1,52755,2020-11-02 15:58:57,2020-11-02 15:59:26,2,DF:DC:EF:28:D6:3E,47,47,7758.486248214333,-22536.00971291272,8561.315690696876
54514,6132,-780,-27672,22282,3587,28944,-32319,13069,29439,47,-1,52780,2020-11-02 15:58:57,2020-11-02 15:59:26,2,DF:DC:EF:28:D6:3E,47,47,22291.801331056464,17407.842336951526,-1998.0056527816046
54515,-3345,-31752,-16413,-25852,-32250,-20971,32448,21517,-18437,47,-1,52806,2020-11-02 15:58:57,2020-11-02 15:59:26,2,DF:DC:EF:28:D6:3E,47,47,-10373.837882940732,23517.05677282365,-25061.856003142562
54516,-16393,22264,-7705,-10753,12805,12566,21694,21773,29687,47,-1,52832,2020-11-02 15:58:57,2020-11-02 15:59:26,2,DF:DC:EF:28:D6:3E,47,47,-15058.510546418676,-22963.554230331993,-8348.629063145574
54517,-5383,3834,7403,-770,-29435,4371,3772,-1012,-24845,47,-1,52857,2020-11-02 15:58:57,2020-11-02 15:59:26,2,DF:DC:EF:28:D6:3E,47,47,616.982844098226,-6579.937474633665,7403.0
54518,-7691,31995,-32535,32511,-12793,-13295,14522,4876,20976,47,-1,52883,2020-11-02 15:58:57,2020-11-02 15:59:26,2,DF:DC:EF:28:D6:3E,47,47,5318.09813712633,-17191.911915359975,42632.30849834896
54519,14584,11259,20455,-8963,25097,27154,10053,-22262,11245,47,-1,52908,2020-11-02 15:58:57,2020-11-02 15:59:26,2,DF:DC:EF:28:D6:3E,47,47,-1.216009313277027,-20599.66883011377,-18262.497217274544
54520,-17155,-28166,-19992,-14341,-11511,24080,31555,-5624,26858,47,-1,52934,2020-11-02 15:58:57,2020-11-02 15:59:26,2,DF:DC:EF:28:D6:3E,47,47,-9341.83488273184,30736.197254204737,21338.08670838114
54521,30975,-262,-10519,-21253,-23285,19980,11842,-5626,30440,47,-1,52959,2020-11-02 15:58:57,2020-11-02 15:59:26,2,DF:DC:EF:28:D6:3E,47,47,18063.002602800094,-26958.55125238443,4139.212647811062
54522,29951,18427,-18968,2044,-499,29448,21569,-25340,23527,47,1,52985,2020-11-02 15:58:57,2020-11-02 15:59:26,2,DF:DC:EF:28:D6:3E,47,47,-9559.237949377843,12746.046963080295,-36640.97447724509
54523,5376,1531,-30745,21755,8975,29700,-20672,12034,-282,47,1,53011,2020-11-02 15:58:57,2020-11-02 15:59:26,2,DF:DC:EF:28:D6:3E,47,47,25242.912720771084,-5854.413160095899,-17464.866616222098
54524,24833,-31238,-7448,18425,-18417,-29696,-8129,-12801,20967,47,1,53036,2020-11-02 15:58:57,2020-11-02 15:59:26,2,DF:DC:EF:28:D6:3E,47,47,33536.940184872365,18598.6319286184,13316.44736482179
54525,-19454,11002,18667,9719,-5361,21500,-22210,-26883,22760,47,1,53064,2020-11-02 15:58:57,2020-11-02 15:59:26,2,DF:DC:EF:28:D6:3E,47,47,3585.731011506894,7829.950120347914,27817.14261433013
54526,24066,-7,-30996,-29964,27151,13048,-6596,-18693,7658,47,1,53087,2020-11-02 15:58:57,2020-11-02 15:59:26,2,DF:DC:EF:28:D6:3E,47,47,10354.320861390739,-32154.510540318013,19969.97527319317
54527,-17410,3322,-17170,-21008,-1011,23029,24378,28410,31468,47,1,53113,2020-11-02 15:58:57,2020-11-02 15:59:26,2,DF:DC:EF:28:D6:3E,47,47,-13184.310880475085,-8894.196457074908,-18868.48960542265
54528,30457,-19461,13052,-1808,-16369,4599,19255,-31495,6383,47,1,53139,2020-11-02 15:58:57,2020-11-02 15:59:26,2,DF:DC:EF:28:D6:3E,47,47,-18111.725883398693,4041.910966788817,-33650.29591639839
54529,5377,-4356,-13572,6901,27665,19704,-28620,23544,-7439,47,1,53164,2020-11-02 15:58:57,2020-11-02 15:59:26,2,DF:DC:EF:28:D6:3E,47,47,6860.474251277598,13595.546372000917,425.5125078417059
54530,-14073,-9733,-5895,-5645,-6901,2802,-8655,9720,-12812,47,1,53190,2020-11-02 15:58:57,2020-11-02 15:59:26,2,DF:DC:EF:28:D6:3E,47,47,-7880.690532109484,7337.175025370156,14546.209897571409
54531,22790,-6663,6394,-16400,17160,27369,-8658,-17927,-17929,47,1,53215,2020-11-02 15:58:57,2020-11-02 15:59:26,2,DF:DC:EF:28:D6:3E,47,47,23853.33054122331,1601.881823160802,-5754.606999245929
54532,-16643,3831,-15873,26351,22535,13027,-13525,-9732,-25606,47,1,53241,2020-11-02 15:58:57,2020-11-02 15:59:26,2,DF:DC:EF:28:D6:3E,47,47,19724.56565345323,1682.7764339907762,-12317.788448249077
54533,27129,-3593,519,-4108,22792,20707,-31703,-18176,12029,47,1,53267,2020-11-02 15:58:57,2020-11-02 15:59:26,2,DF:DC:EF:28:D6:3E,47,47,12362.26947834748,-23366.992228393185,7093.632253150061
54534,-31765,-23556,-25078,-2048,-26102,-30234,7209,30980,-22529,47,-1,53292,2020-11-02 15:58:57,2020-11-02 15:59:26,2,DF:DC:EF:28:D6:3E,47,47,-21578.14783992577,-11535.599185130954,-39926.43149892453
54535,-31250,-1283,4867,19213,4111,-277,15147,10503,-17918,47,-1,53318,2020-11-02 15:58:57,2020-11-02 15:59:26,2,DF:DC:EF:28:D6:3E,47,47,18825.39663095995,6614.468626629112,24571.31507417503
54536,23024,18172,3833,-2287,-30197,-19477,1327,5385,9990,47,-1,53344,2020-11-02 15:58:57,2020-11-02 15:59:26,2,DF:DC:EF:28:D6:3E,47,47,-2851.2904456210454,29192.401456452848,3833.0
54537,-17433,-8963,3317,26641,20231,23276,11827,-2038,25865,47,-1,53369,2020-11-02 15:58:57,2020-11-02 15:59:26,2,DF:DC:EF:28:D6:3E,47,47,11935.163156833085,12726.777195218827,-9530.391893465456
54538,-12823,-26115,30451,8977,31748,29167,22583,22028,23052,47,-1,53395,2020-11-02 15:58:57,2020-11-02 15:59:26,2,DF:DC:EF:28:D6:3E,47,47,11136.853292601123,-20084.354688913936,35302.6224304793
54539,5614,-24326,-27915,786,-7677,12784,-27077,16397,12303,47,-1,53420,2020-11-02 15:58:57,2020-11-02 15:59:26,2,DF:DC:EF:28:D6:3E,47,47,-32634.164605883525,-17668.077296751235,-5036.749161127891
54540,-2586,-25864,-16393,17943,4103,-5647,-30400,28685,13074,47,-1,53446,2020-11-02 15:58:57,2020-11-02 15:59:26,2,DF:DC:EF:28:D6:3E,47,47,-19070.17673428522,21524.747942785,-10834.109392225064
54541,-26906,4853,32756,-11491,22542,-31495,-6331,2828,16916,47,-1,53472,2020-11-02 15:58:57,2020-11-02 15:59:26,2,DF:DC:EF:28:D6:3E,47,47,-16250.578534886705,-37027.078111162955,13614.483641744064
54542,14058,-14349,17903,-1762,-18929,12545,8894,-20215,23060,47,-1,53497,2020-11-02 15:58:57,2020-11-02 15:59:26,2,DF:DC:EF:28:D6:3E,47,47,-8392.98792399486,25190.819734756988,4361.069685140828
54543,28655,-12559,-10776,14617,5378,20740,5314,-18168,29971,47,-1,53523,2020-11-02 15:58:57,2020-11-02 15:59:26,2,DF:DC:EF:28:D6:3E,47,47,-19658.757803446442,22182.230800953603,14711.952974321895
54544,-29967,12529,30440,531,27643,-28412,10949,30473,1555,47,-1,53548,2020-11-02 15:58:57,2020-11-02 15:59:26,2,DF:DC:EF:28:D6:3E,47,47,-34381.47979657214,-18844.929187330446,-21080.157042166527
54545,8434,14577,6122,3601,-15104,17157,-24377,8458,-32494,47,-1,53574,2020-11-02 15:58:57,2020-11-02 15:59:26,2,DF:DC:EF:28:D6:3E,47,47,16550.33268451155,6025.504684502424,-3298.476971122885
54546,-21776,24050,-12310,22033,16649,-16121,-27191,5386,785,47,-1,53600,2020-11-02 15:58:57,2020-11-02 15:59:26,2,DF:DC:EF:28:D6:3E,47,47,-21776.0,-6403.89036452927,26247.452984986736
54547,13807,19187,-32533,15889,-2545,-29940,-1590,-20983,9230,47,-1,53625,2020-11-02 15:58:57,2020-11-02 15:59:26,2,DF:DC:EF:28:D6:3E,47,47,-21050.043404710716,2728.1009723264733,34155.869843184875
54548,3563,17908,29419,13327,-31724,22291,-21557,-32759,-4087,47,-1,53651,2020-11-02 15:58:57,2020-11-02 15:59:26,2,DF:DC:EF:28:D6:3E,47,47,-29340.958733514308,-13577.176112007543,-12395.056410591362
54549,16362,29936,-30225,-7925,-19944,-998,21963,-17911,23556,47,1,53676,2020-11-02 15:58:57,2020-11-02 15:59:26,2,DF:DC:EF:28:D6:3E,47,47,-5463.193750753358,32489.423584739296,-31496.359062169628
54550,27121,-19992,-24333,-6392,-16618,16929,458,21002,-21251,47,1,53702,2020-11-02 15:58:57,2020-11-02 15:59:26,2,DF:DC:EF:28:D6:3E,47,47,27159.126629826653,24065.53206283096,20262.171681186977
54551,-11015,-9497,30191,-8699,-26098,31520,16328,32523,25335,47,1,53728,2020-11-02 15:58:57,2020-11-02 15:59:26,2,DF:DC:EF:28:D6:3E,47,47,-29030.592541833532,2340.766714218191,-16576.04364315103
54552,-10241,3309,-30741,-6655,1802,-5862,1222,-28404,-2063,47,1,53753,2020-11-02 15:58:57,2020-11-02 15:59:26,2,DF:DC:EF:28:D6:3E,47,47,-16570.901186996773,3309.0,27844.07290341679
54553,1024,-20240,24809,7422,-24564,14356,-30781,-26100,24557,47,1,53779,2020-11-02 15:58:57,2020-11-02 15:59:26,2,DF:DC:EF:28:D6:3E,47,47,-15792.038426820262,26895.11580217106,7311.424301300033
54554,-16132,498,5863,25851,-14835,19725,15809,-28405,-6423,47,1,53804,2020-11-02 15:58:57,2020-11-02 15:59:26,2,DF:DC:EF:28:D6:3E,47,47,224.30928520748512,-10599.994912111784,13507.55307995397
54555,-22024,-25614,-17945,6136,-6131,-10487,5823,-3831,27111,47,1,53830,2020-11-02 15:58:57,2020-11-02 15:59:26,2,DF:DC:EF:28:D6:3E,47,47,15350.094498328388,15843.643124664011,-31249.16268367323
54556,-23555,-4366,-11288,17141,-3827,7431,-3908,2824,-26139,47,1,53856,2020-11-02 15:58:57,2020-11-02 15:59:26,2,DF:DC:EF:28:D6:3E,47,47,18700.775183956794,-14972.67472828772,-11288.0
54557,8702,22515,25833,4339,-4596,-7935,-6470,4358,-14108,47,1,53881,2020-11-02 15:58:57,2020-11-02 15:59:26,2,DF:DC:EF:28:D6:3E,47,47,27206.261146661098,-22021.176921571932,-4988.089755458133
54558,-28420,20468,12783,1779,-6387,-17154,-27323,4,-12316,47,1,53907,2020-11-02 15:58:57,2020-11-02 15:59:26,2,DF:DC:EF:28:D6:3E,47,47,-9135.125872948922,35435.65920556017,7134.7070684631235
54559,-5124,3830,-13334,-8717,-9202,509,-7869,-13311,22501,47,1,53933,2020-11-02 15:58:57,2020-11-02 15:59:26,2,DF:DC:EF:28:D6:3E,47,47,-10206.196825726587,10698.176899955988,-319.9833929700335
54560,-18177,3831,-14616,16370,10254,-32262,834,-16385,22246,47,1,53958,2020-11-02 15:58:57,2020-11-02 15:59:26,2,DF:DC:EF:28:D6:3E,47,47,-21186.52058655679,-849.6610297078323,-10445.897164437381
54561,15614,9720,-5652,20977,29454,-32265,-13761,-4355,-3609,47,1,54009,2020-11-02 15:58:57,2020-11-02 15:59:26,2,DF:DC:EF:28:D6:3E,47,47,15614.0,-9184.296307656978,-6486.309068581177
54562,32252,19962,15596,-3853,22800,6390,-27587,15356,6890,47,1,54011,2020-11-02 15:58:57,2020-11-02 15:59:26,2,DF:DC:EF:28:D6:3E,47,47,16073.5641348473,-20961.761057786505,-31371.217275700594
54563,7427,22265,-15122,-5133,28945,-18445,18235,-25350,-14356,47,1,54035,2020-11-02 15:58:57,2020-11-02 15:59:26,2,DF:DC:EF:28:D6:3E,47,47,-21786.645504442084,234.59382602816004,-17460.0252405477
54564,-23035,27126,-276,21741,14096,-30483,5176,-22023,19696,47,1,54061,2020-11-02 15:58:57,2020-11-02 15:59:26,2,DF:DC:EF:28:D6:3E,47,47,-26442.841953879,-23630.871961835306,-2977.4614565973184
54565,31745,16883,-10248,7914,29455,-27673,-13005,10746,-31500,47,-1,54087,2020-11-02 15:58:57,2020-11-02 15:59:26,2,DF:DC:EF:28:D6:3E,47,47,17891.88434125612,2864.9400040180844,-32702.825741707573
54566,-13830,20723,-4861,32750,-24560,4580,-11473,-6661,3321,47,-1,54112,2020-11-02 15:58:57,2020-11-02 15:59:26,2,DF:DC:EF:28:D6:3E,47,47,6681.565656635786,-13043.905685566071,-20725.688283917676
54567,-16652,31223,-30458,-3593,30736,-19485,28973,31486,27645,47,-1,54137,2020-11-02 15:58:57,2020-11-02 15:59:26,2,DF:DC:EF:28:D6:3E,47,47,-36495.43000759919,-11121.811831515206,-26911.772278034685
54568,-26893,-21510,1285,9728,-16626,18918,-4820,19713,19457,47,-1,54163,2020-11-02 15:58:57,2020-11-02 15:59:26,2,DF:DC:EF:28:D6:3E,47,47,-23501.46284366921,25077.489689234582,2523.000018622437
54569,17651,31740,27655,-19194,-24562,-21783,-7123,-22013,-6652,47,-1,54189,2020-11-02 15:58:57,2020-11-02 15:59:26,2,DF:DC:EF:28:D6:3E,47,47,25468.029990902418,35146.003985757176,14139.387476677897
54570,245,-26118,19207,8207,-4594,21995,24624,28421,-30456,47,-1,54214,2020-11-02 15:58:57,2020-11-02 15:59:26,2,DF:DC:EF:28:D6:3E,47,47,-31903.05063765865,3578.763673343399,-4528.422305985321
54571,-525,-24074,-27392,-13545,-23793,-32532,-30924,25094,27660,47,-1,54240,2020-11-02 15:58:57,2020-11-02 15:59:26,2,DF:DC:EF:28:D6:3E,47,47,-777.033808790884,-30637.538201173906,19770.994826553506
54572,12271,-8203,3065,7197,19983,-1042,-10439,28166,15120,47,-1,54265,2020-11-02 15:58:57,2020-11-02 15:59:26,2,DF:DC:EF:28:D6:3E,47,47,7718.233899571553,-12411.914555870673,3692.4405925173905
54573,-4626,12534,-14097,-2786,23053,13555,25663,-31995,18195,47,-1,54291,2020-11-02 15:58:57,2020-11-02 15:59:26,2,DF:DC:EF:28:D6:3E,47,47,4218.410640414311,18450.757798073857,4359.012427793243
54574,-25617,16117,-3351,-5092,-20469,-520,29764,4,6677,47,-1,54317,2020-11-02 15:58:57,2020-11-02 15:59:26,2,DF:DC:EF:28:D6:3E,47,47,-14984.00208358736,-20822.000329702063,-16405.534518233075
54575,31979,24564,-18197,-25833,-8187,13821,-3397,-11518,-10475,47,-1,54342,2020-11-02 15:58:57,2020-11-02 15:59:26,2,DF:DC:EF:28:D6:3E,47,47,22419.676114714315,10546.860523797177,36651.046397106824
54576,-25110,14575,18156,-5355,-27646,-11773,25791,28930,-26347,47,1,54368,2020-11-02 15:58:57,2020-11-02 15:59:26,2,DF:DC:EF:28:D6:3E,47,47,-12885.470568075685,8472.668854468198,-30573.871062097776
54577,-12817,-5654,-10261,13080,-5369,16394,-12606,17410,15380,47,1,54393,2020-11-02 15:58:57,2020-11-02 15:59:26,2,DF:DC:EF:28:D6:3E,47,47,511.4703428024786,15649.110949027,-7508.33207799687
54578,-23050,-29720,-10006,-13543,-27633,-20722,-28986,-31487,32529,47,1,54419,2020-11-02 15:58:57,2020-11-02 15:59:26,2,DF:DC:EF:28:D6:3E,47,47,-9262.124746690053,35416.184848416924,13213.9256831388
54579,-12291,-21014,-6170,-32748,-10487,17934,-3127,20737,30222,47,1,54445,2020-11-02 15:58:57,2020-11-02 15:59:26,2,DF:DC:EF:28:D6:3E,47,47,-16946.2214950758,-16794.120220057095,7842.759723088576
54580,-27652,-19475,-281,15883,-10754,16906,6860,14850,-11252,47,1,54470,2020-11-02 15:58:57,2020-11-02 15:59:26,2,DF:DC:EF:28:D6:3E,47,47,-10563.666778368679,-2585.4321880602256,32026.741554465574
54581,12282,-29458,7662,6917,-22023,17672,7885,-16125,-30964,47,1,54496,2020-11-02 15:58:57,2020-11-02 15:59:26,2,DF:DC:EF:28:D6:3E,47,47,25321.01844198413,6759.319111282765,19760.69741209928
54582,2812,21230,-20490,6150,-30213,16647,-9267,13061,25612,47,1,54521,2020-11-02 15:58:57,2020-11-02 15:59:26,2,DF:DC:EF:28:D6:3E,47,47,13595.133978769622,24569.893029924762,9484.357257998987
54583,8700,-10004,-30986,12555,2307,31238,9935,-7163,-19957,47,1,54547,2020-11-02 15:58:57,2020-11-02 15:59:26,2,DF:DC:EF:28:D6:3E,47,47,-22696.26999608107,-24112.842828709734,-6273.1452225284875
54584,-16648,-29202,30190,-14836,-29175,-15608,-23088,18694,3850,47,1,54573,2020-11-02 15:58:57,2020-11-02 15:59:26,2,DF:DC:EF:28:D6:3E,47,47,10577.830427703255,-3760.1663168871564,43764.362907645555
54585,22008,-21523,4330,-15607,4878,-8694,-28719,-22010,-31225,47,1,54598,2020-11-02 15:58:57,2020-11-02 15:59:26,2,DF:DC:EF:28:D6:3E,47,47,4432.727956420778,-21175.72660175851,22322.186692883442
54586,6137,21996,24555,-3834,-23276,-3059,-27951,6919,-2045,47,1,54624,2020-11-02 15:58:57,2020-11-02 15:59:26,2,DF:DC:EF:28:D6:3E,47,47,3817.6957633173315,-32960.83035680218,-4841.866504650496
54587,-11018,-28690,8171,-32765,-12517,-2030,-17456,28423,4607,47,1,54649,2020-11-02 15:58:57,2020-11-02 15:59:26,2,DF:DC:EF:28:D6:3E,47,47,10259.702611297309,29555.976313323954,-5697.405681007145
54588,15864,-15637,14317,-10497,22301,-9708,-818,-27129,18425,47,1,54675,2020-11-02 15:58:57,2020-11-02 15:59:26,2,DF:DC:EF:28:D6:3E,47,47,1745.6155259535426,15546.237750041833,-21364.130505469308
54589,2043,747,11757,-5893,-20966,23828,-17460,27143,-21517,47,1,54701,2020-11-02 15:58:57,2020-11-02 15:59:26,2,DF:DC:EF:28:D6:3E,47,47,-7347.703927371955,-1976.3095013044504,9223.033923321354
54590,761,-2839,-29970,-18697,-1004,-751,13258,-2554,-10770,47,1,54726,2020-11-02 15:58:57,2020-11-02 15:59:26,2,DF:DC:EF:28:D6:3E,47,47,24336.78588125123,14722.10183442914,9890.425296559748
54591,-20735,-22806,-20757,-30733,4110,22542,32455,32262,9707,47,1,54752,2020-11-02 15:58:57,2020-11-02 15:59:26,2,DF:DC:EF:28:D6:3E,47,47,10734.666424555038,-32094.40428935443,-15350.018243148732
54592,-23317,-22571,29138,260,19196,-24580,18118,-9979,-21527,47,-1,54778,2020-11-02 15:58:57,2020-11-02 15:59:26,2,DF:DC:EF:28:D6:3E,47,47,-11638.724124633512,-20076.5387176634,-36927.33767642661
54593,8958,6892,31216,17661,-30446,11781,16325,4612,-7961,47,-1,54803,2020-11-02 15:58:57,2020-11-02 15:59:26,2,DF:DC:EF:28:D6:3E,47,47,-21458.22268683659,-24423.80969585272,-6723.561783973
54594,-15608,-27923,13541,-19977,15628,20734,24260,7426,-29210,47,-1,54829,2020-11-02 15:58:57,2020-11-02 15:59:26,2,DF:DC:EF:28:D6:3E,47,47,-26789.603228091408,9907.392364403797,19769.244027508677
54595,-18166,28141,8939,-12050,-26618,-1550,18370,24576,12263,47,-1,54854,2020-11-02 15:58:57,2020-11-02 15:59:26,2,DF:DC:EF:28:D6:3E,47,47,20001.777806346843,26272.66278976392,-10559.414402365559
54596,2046,26348,-25870,14318,-14585,-22292,-32577,-32514,27113,47,-1,54880,2020-11-02 15:58:57,2020-11-02 15:59:26,2,DF:DC:EF:28:D6:3E,47,47,12814.415636758928,-34549.89813634329,3123.3652774996885
54597,31736,14576,24313,-7693,-13558,29933,4541,32508,-1557,47,-1,54931,2020-11-02 15:58:57,2020-11-02 15:59:26,2,DF:DC:EF:28:D6:3E,47,47,-14312.022772023935,14576.0,37329.099495876784
54598,10745,-1804,25334,8696,-19958,-529,17851,-27142,26862,47,-1,54933,2020-11-02 15:58:57,2020-11-02 15:59:26,2,DF:DC:EF:28:D6:3E,47,47,15769.459783988552,20995.468932091913,8428.25126836705
54599,13308,-8969,-15884,-4616,24840,15857,15430,9465,-17424,47,-1,54957,2020-11-02 15:58:57,2020-11-02 15:59:26,2,DF:DC:EF:28:D6:3E,47,47,-3266.0249580730874,-18824.993964190682,-12033.285678543001
54600,-9475,-24328,30711,-10505,-27386,14576,19012,11768,14067,47,-1,54982,2020-11-02 15:58:57,2020-11-02 15:59:26,2,DF:DC:EF:28:D6:3E,47,47,-6796.136314938694,-32610.824916606987,22696.681683611285
54601,-27135,8953,10487,6393,-31739,1774,13890,-23049,2550,47,-1,55008,2020-11-02 15:58:57,2020-11-02 15:59:26,2,DF:DC:EF:28:D6:3E,47,47,20594.917361373366,-13261.564742727489,18067.14926192423
54602,17412,-21001,-32523,-25096,-5631,-5145,-5313,-6409,-29703,47,-1,55033,2020-11-02 15:58:57,2020-11-02 15:59:26,2,DF:DC:EF:28:D6:3E,47,47,30570.01849802809,29307.15915159601,-2920.5591062744134
54603,769,13302,-32010,-18441,26368,-1823,25405,13817,-13827,47,-1,55059,2020-11-02 15:58:57,2020-11-02 15:59:26,2,DF:DC:EF:28:D6:3E,47,47,-33908.890199509915,5014.452907824075,-5217.000332834493
54604,21757,-19725,-5125,-8969,13310,1502,2363,32507,20482,47,-1,55085,2020-11-02 15:58:57,2020-11-02 15:59:26,2,DF:DC:EF:28:D6:3E,47,47,-8191.588483397434,21092.076055630547,19409.54674334687
54605,-3339,-6670,9984,-29701,3069,14555,-28359,-17410,-13306,47,-1,55111,2020-11-02 15:58:57,2020-11-02 15:59:26,2,DF:DC:EF:28:D6:3E,47,47,-4961.519604276573,-3160.8647039920165,10986.825498725128
54606,-6164,23797,22274,10244,23810,21469,-15047,-12543,25099,47,-1,55136,2020-11-02 15:58:57,2020-11-02 15:59:26,2,DF:DC:EF:28:D6:3E,47,47,-12213.540542965033,-29976.39990638231,7257.276145909838
54607,-11288,6648,9216,30991,-18420,-24859,2108,4611,2832,47,-1,55161,2020-11-02 15:58:57,2020-11-02 15:59:26,2,DF:DC:EF:28:D6:3E,47,47,-11288.0,6648.0,9216.0
54608,11499,-12808,-2311,-4585,-28657,-23826,-14017,13826,-6381,47,-1,55187,2020-11-02 15:58:57,2020-11-02 15:59:26,2,DF:DC:EF:28:D6:3E,47,47,6325.550297297521,-3875.875942547341,-15702.789087112582
54609,15852,28920,-26126,28952,10760,2550,-13245,3073,12310,47,-1,55213,2020-11-02 15:58:57,2020-11-02 15:59:26,2,DF:DC:EF:28:D6:3E,47,47,25948.151048548705,29308.60704856035,-15424.629332168075
54610,24300,18935,-16658,-18923,-19710,32251,-16966,-28160,14871,47,-1,55238,2020-11-02 15:58:57,2020-11-02 15:59:26,2,DF:DC:EF:28:D6:3E,47,47,30787.395480939864,-11938.292369640765,-11667.332334221932
54611,-23317,-20235,-18194,16660,-2813,-5376,-2883,11264,24087,47,-1,55264,2020-11-02 15:58:57,2020-11-02 15:59:26,2,DF:DC:EF:28:D6:3E,47,47,2927.9562797685285,34347.286353102645,9790.318799800787
54612,23788,-12814,-25362,-15597,260,10759,3521,-7169,-31466,47,-1,55290,2020-11-02 15:58:57,2020-11-02 15:59:26,2,DF:DC:EF:28:D6:3E,47,47,21987.22832874037,29154.703731429494,6313.764705182482
54613,10736,-18194,-28179,7698,-16641,3596,-1597,23808,-2284,47,-1,55315,2020-11-02 15:58:57,2020-11-02 15:59:26,2,DF:DC:EF:28:D6:3E,47,47,14308.41960169037,-18194.0,26544.055181941636
54614,17908,28651,-4884,-23280,17150,-6899,-28474,-20735,21267,47,-1,55341,2020-11-02 15:58:57,2020-11-02 15:59:26,2,DF:DC:EF:28:D6:3E,47,47,23147.890968583084,11883.614749225926,-22099.424544511774
54615,759,-8727,-7955,-32240,3841,-27123,-4408,1539,-22511,47,-1,55392,2020-11-02 15:58:57,2020-11-02 15:59:26,2,DF:DC:EF:28:D6:3E,47,47,-1982.9586152581992,8532.554431714647,-7955.0
54616,20729,-23318,-4626,20240,32261,1549,12235,-3069,-17905,47,-1,55394,2020-11-02 15:58:57,2020-11-02 15:59:26,2,DF:DC:EF:28:D6:3E,47,47,-18558.5579571118,-16696.192886661887,-19277.902132854168
54617,-28170,20203,11503,-6899,-23035,-26868,7117,-14076,-17395,47,1,55417,2020-11-02 15:58:57,2020-11-02 15:59:26,2,DF:DC:EF:28:D6:3E,47,47,9467.315133416114,100.74908756045443,-35275.89703729653
54618,5365,-8726,4080,27148,28935,-17650,-28722,-9979,-25589,47,1,55443,2020-11-02 15:58:57,2020-11-02 15:59:26,2,DF:DC:EF:28:D6:3E,47,47,-1026.3306373563473,10960.677393094122,618.7871260289382
54619,2296,-5911,-13840,20236,9484,20497,-23345,1287,-13560,47,1,55469,2020-11-02 15:58:57,2020-11-02 15:59:26,2,DF:DC:EF:28:D6:3E,47,47,12081.882405724748,-8054.391144868993,4572.968162987226
54620,-4103,-23830,21487,-19446,22800,3859,12496,8456,11013,47,1,55495,2020-11-02 15:58:57,2020-11-02 15:59:26,2,DF:DC:EF:28:D6:3E,47,47,-7018.670117920394,-28738.17450492738,-13086.262793485133
54621,-28934,-10261,23790,3336,-749,-24813,-2097,6665,-6912,47,1,55520,2020-11-02 15:58:57,2020-11-02 15:59:26,2,DF:DC:EF:28:D6:3E,47,47,-6264.844598694832,-9234.302707354102,37200.913331034724
54622,23294,19181,12274,-15355,9753,-2543,-4658,30217,-4101,47,1,55546,2020-11-02 15:58:57,2020-11-02 15:59:26,2,DF:DC:EF:28:D6:3E,47,47,-5162.20959903497,19181.0,25818.851718378788
54623,-2319,-22545,16876,-15357,12060,-8689,-24883,-8184,-16906,47,1,55571,2020-11-02 15:58:57,2020-11-02 15:59:26,2,DF:DC:EF:28:D6:3E,47,47,-7529.66235813322,-21173.533846320828,-17130.08497443074
54624,-21003,-20498,32239,2304,25366,-28912,-2613,15112,-14863,47,1,55622,2020-11-02 15:58:57,2020-11-02 15:59:26,2,DF:DC:EF:28:D6:3E,47,47,-34475.31799368975,-26073.29189544388,5681.815992176467
54625,25082,7918,8687,-3334,-22002,-3569,6090,3592,-10771,47,1,55624,2020-11-02 15:58:57,2020-11-02 15:59:26,2,DF:DC:EF:28:D6:3E,47,47,11000.737164045044,-22743.833940259145,11356.373388785454
54626,-9477,16110,16619,22008,-31990,5389,2760,2056,-10006,47,1,55648,2020-11-02 15:58:57,2020-11-02 15:59:26,2,DF:DC:EF:28:D6:3E,47,47,8435.652612542854,16678.890670560166,16619.0
54627,509,14830,9193,-14859,-20982,-16886,-15419,-21241,22248,47,1,55674,2020-11-02 15:58:57,2020-11-02 15:59:26,2,DF:DC:EF:28:D6:3E,47,47,-2228.280435679195,-1892.194852187563,17209.11371748482
54628,-24835,2798,31210,13300,21261,-8697,24259,-24570,8678,47,1,55699,2020-11-02 15:58:57,2020-11-02 15:59:26,2,DF:DC:EF:28:D6:3E,47,47,-18773.119058314565,11093.559994783744,33513.7741304151
54629,25087,3311,-31511,24562,-13043,-26877,4545,-3324,-29468,47,-1,55725,2020-11-02 15:58:57,2020-11-02 15:59:26,2,DF:DC:EF:28:D6:3E,47,47,3941.234973306305,24995.738774542897,-31511.0
54630,-15617,11759,-22805,15089,4365,-14594,-12610,1283,-6429,47,-1,55750,2020-11-02 15:58:57,2020-11-02 15:59:26,2,DF:DC:EF:28:D6:3E,47,47,-30004.80116368082,-706.6949028403506,-1202.1998345856082
54631,-29184,-3856,-19,-5903,15630,-17670,-20548,-10496,5604,47,-1,55776,2020-11-02 15:58:57,2020-11-02 15:59:26,2,DF:DC:EF:28:D6:3E,47,47,-16241.904243878213,3814.7297867381803,-24253.315983322023
54632,-25600,12019,-24594,5875,-14066,18935,-19270,-31746,229,47,-1,55802,2020-11-02 15:58:57,2020-11-02 15:59:26,2,DF:DC:EF:28:D6:3E,47,47,14459.56490748735,-15369.425294865128,30973.907499566798
54633,2048,9461,-3602,-27405,-7154,-23564,20293,16892,-26906,47,-1,55827,2020-11-02 15:58:57,2020-11-02 15:59:26,2,DF:DC:EF:28:D6:3E,47,47,4347.845964753941,8517.70580826428,-3901.8139666870084
54634,28156,-7690,8435,13301,11536,-24333,8771,6906,-20248,47,-1,55853,2020-11-02 15:58:57,2020-11-02 15:59:26,2,DF:DC:EF:28:D6:3E,47,47,-15054.486378365355,9220.517611268948,-24726.304937533452
54635,6908,2809,7409,-23815,-752,1780,14657,-1801,6123,47,-1,55878,2020-11-02 15:58:57,2020-11-02 15:59:26,2,DF:DC:EF:28:D6:3E,47,47,10385.02837152459,1541.2833570907942,-529.0154400244382
54636,6404,-32263,19440,-15622,-9200,2547,27711,-779,-16147,47,-1,55904,2020-11-02 15:58:57,2020-11-02 15:59:26,2,DF:DC:EF:28:D6:3E,47,47,29888.52064626634,-20721.507352983885,11709.886916531072
54637,5129,-28938,30958,-27917,-8949,235,28476,-8204,26097,47,-1,55930,2020-11-02 15:58:57,2020-11-02 15:59:26,2,DF:DC:EF:28:D6:3E,47,47,31150.540539871236,-28715.07246522201,5215.427728469414
54638,26627,30196,10741,4591,1801,-28957,824,-23819,-1803,47,-1,55955,2020-11-02 15:58:57,2020-11-02 15:59:26,2,DF:DC:EF:28:D6:3E,47,47,-9275.75309063294,30196.0,-27172.16617426026
54639,768,-2062,31484,19952,-15862,17119,-30157,-19721,-6918,47,-1,55981,2020-11-02 15:58:57,2020-11-02 15:59:26,2,DF:DC:EF:28:D6:3E,47,47,-26837.832217306513,-15162.671147127729,-6775.550867624347
54640,14074,-1039,9730,21495,-501,-18469,22576,-9222,-17153,47,-1,56006,2020-11-02 15:58:57,2020-11-02 15:59:26,2,DF:DC:EF:28:D6:3E,47,47,-6902.172603562692,-14253.70035895893,6559.1109479595425
54641,-16909,-17935,7939,15615,-7159,-15398,11311,-12034,12036,47,-1,56032,2020-11-02 15:58:57,2020-11-02 15:59:26,2,DF:DC:EF:28:D6:3E,47,47,7870.007776969983,22142.62220492505,-10879.958018319387
54642,-11027,-781,-23294,17412,30984,-24612,-18129,-1790,13832,47,-1,56058,2020-11-02 15:58:57,2020-11-02 15:59:26,2,DF:DC:EF:28:D6:3E,47,47,6874.884300137927,-8980.602392527688,23171.09994210553
54643,-4886,31224,28675,-16888,-23542,30690,-21967,21510,18188,47,-1,56083,2020-11-02 15:58:57,2020-11-02 15:59:26,2,DF:DC:EF:28:D6:3E,47,47,3584.1072854917134,26625.575773790904,33155.68860211176
54644,25070,-2056,7174,26127,14605,30697,-5580,9736,28176,47,-1,56109,2020-11-02 15:58:57,2020-11-02 15:59:26,2,DF:DC:EF:28:D6:3E,47,47,-14355.695222585568,-13475.884541938807,-17219.54884683593
54645,-16656,-19723,-6913,-6633,-11251,-2323,-29639,31752,24852,47,1,56135,2020-11-02 15:58:57,2020-11-02 15:59:26,2,DF:DC:EF:28:D6:3E,47,47,-9212.528360771596,-12248.935693434505,-21892.956163571995
54646,-6673,-27661,-29707,-28135,-4345,-24592,-19138,12552,-26089,47,1,56160,2020-11-02 15:58:57,2020-11-02 15:59:26,2,DF:DC:EF:28:D6:3E,47,47,-39166.777150212,9867.126528211476,-7795.452568125595
54647,-16149,-14607,-8721,30230,-31487,21235,18499,19720,1306,47,1,56186,2020-11-02 15:58:57,2020-11-02 15:59:26,2,DF:DC:EF:28:D6:3E,47,47,16914.883796047958,15691.527988132808,-4227.664433684269
54648,3558,-7441,9200,-6634,-9978,-1032,-12358,-505,-18149,47,1,56211,2020-11-02 15:58:57,2020-11-02 15:59:26,2,DF:DC:EF:28:D6:3E,47,47,-1904.863784135355,-11849.483072242114,2937.531256776187
54649,-17940,-10260,30444,-4331,29698,19199,-29762,17671,7964,47,1,56237,2020-11-02 15:58:57,2020-11-02 15:59:26,2,DF:DC:EF:28:D6:3E,47,47,36518.78424574384,-2543.7005959762464,3722.4078888323966
54650,12017,-13591,25069,-18669,-13314,20737,-17983,31751,6428,47,1,56263,2020-11-02 15:58:57,2020-11-02 15:59:26,2,DF:DC:EF:28:D6:3E,47,47,-592.34113792879,30527.886783995535,5027.483613087985
54651,-26123,3048,29679,10517,19972,-31743,-11580,23559,-15077,47,1,56288,2020-11-02 15:58:57,2020-11-02 15:59:26,2,DF:DC:EF:28:D6:3E,47,47,11517.464410932702,-36635.679240154815,-9885.317099384718
54652,-31242,-1561,23279,-15338,18441,-29951,2504,-30202,-2790,47,1,56314,2020-11-02 15:58:57,2020-11-02 15:59:26,2,DF:DC:EF:28:D6:3E,47,47,13460.624191641085,-1561.0,36562.084204424216
54653,-24331,7914,5103,-20971,6922,2306,10443,-27899,-19431,47,1,56339,2020-11-02 15:58:57,2020-11-02 15:59:26,2,DF:DC:EF:28:D6:3E,47,47,-22802.357077132023,-3232.1404845616935,12258.684497735652
54654,-1031,16873,-11028,12051,32010,-28415,-563,-12796,23576,47,1,56365,2020-11-02 15:58:57,2020-11-02 15:59:26,2,DF:DC:EF:28:D6:3E,47,47,5934.521346216775,-18942.64556634988,3651.781666384609
54655,-24839,14317,8946,5391,3339,-11516,11472,19460,-20202,47,1,56391,2020-11-02 15:58:57,2020-11-02 15:59:26,2,DF:DC:EF:28:D6:3E,47,47,-27631.737505203735,10296.197248754897,-5697.256414999161
54656,-13579,-25106,-27919,-12277,-14327,-22007,-12079,-32508,-12524,47,1,56416,2020-11-02 15:58:57,2020-11-02 15:59:26,2,DF:DC:EF:28:D6:3E,47,47,-25727.24052212188,-20316.91817015505,22792.60777498076
54657,-1290,11756,-7182,-11510,9996,31246,-3118,-31227,29458,47,1,56442,2020-11-02 15:58:57,2020-11-02 15:59:26,2,DF:DC:EF:28:D6:3E,47,47,9215.735099990441,10289.732129742872,-800.2495016814423
54658,28413,-30999,-16142,-758,13330,5137,-20269,-12538,5647,47,1,56467,2020-11-02 15:58:57,2020-11-02 15:59:26,2,DF:DC:EF:28:D6:3E,47,47,-30332.763752220635,28410.818232014833,17365.183112751314
54659,9980,17642,-16656,15370,24599,1808,-5165,-10745,-7926,47,1,56493,2020-11-02 15:58:57,2020-11-02 15:59:26,2,DF:DC:EF:28:D6:3E,47,47,25331.287370214948,-6799.051734499031,-601.3947781569295
54660,-1800,-20753,2031,-22776,-21218,-2289,29651,24584,-18683,47,1,56519,2020-11-02 15:58:57,2020-11-02 15:59:26,2,DF:DC:EF:28:D6:3E,47,47,13621.019876266915,5920.7161548473305,-14746.691416859288
54661,28403,-31507,-21519,-2810,9254,-15599,14802,22024,15615,47,1,56544,2020-11-02 15:58:57,2020-11-02 15:59:26,2,DF:DC:EF:28:D6:3E,47,47,-16856.5623813786,-41694.612056657876,15488.849186672707
54662,-17679,20461,-6164,9217,32029,-24557,-30000,20232,-9992,47,1,56570,2020-11-02 15:58:57,2020-11-02 15:59:26,2,DF:DC:EF:28:D6:3E,47,47,20676.793853357536,-10520.223250824267,-15198.34059029381
54663,-25607,-12565,27367,-15629,-1266,-6635,-18227,13321,6388,47,1,56595,2020-11-02 15:58:57,2020-11-02 15:59:26,2,DF:DC:EF:28:D6:3E,47,47,-20399.029918224223,-1598.9286084330124,33821.19703234242
54664,8702,32743,2024,12009,23049,27411,11721,16138,19952,47,1,56621,2020-11-02 15:58:57,2020-11-02 15:59:26,2,DF:DC:EF:28:D6:3E,47,47,-20275.801761082876,18512.90310970858,-19952.185604484806
54665,18689,3561,-13590,-17946,13064,-2293,7364,26890,28141,47,1,56647,2020-11-02 15:58:57,2020-11-02 15:59:26,2,DF:DC:EF:28:D6:3E,47,47,15945.46967020119,-1976.6672820328859,16984.767453598964
54666,7166,16620,-31509,5608,-31989,-20731,-24641,21769,-25365,47,-1,56672,2020-11-02 15:58:57,2020-11-02 15:59:26,2,DF:DC:EF:28:D6:3E,47,47,-8248.094474437105,-10311.971464219603,-33852.994240714965
54667,31231,-530,-15380,30957,30990,-22016,15804,22535,-12566,47,-1,56698,2020-11-02 15:58:57,2020-11-02 15:59:26,2,DF:DC:EF:28:D6:3E,47,47,25436.12121578792,21443.025726286498,-10266.501166296093
54668,22779,-21774,-26649,17902,-5618,-5380,-19527,2053,-22,47,-1,56723,2020-11-02 15:58:57,2020-11-02 15:59:26,2,DF:DC:EF:28:D6:3E,47,47,22779.0,17795.3895261907,29455.057097400822
54669,-9992,14324,30440,-12309,30478,-16133,-23485,-8446,-15893,47,-1,56749,2020-11-02 15:58:57,2020-11-02 15:59:26,2,DF:DC:EF:28:D6:3E,47,47,-30385.811203597244,11462.586818057905,-13301.211258296353
54670,-28678,-8459,-14098,26859,-4592,-15621,-23232,-20736,-9748,47,-1,56775,2020-11-02 15:58:57,2020-11-02 15:59:26,2,DF:DC:EF:28:D6:3E,47,47,28755.849392216624,-14804.008519763138,-6832.161186545227
54671,-27141,29944,7925,-2323,-3567,19450,-16323,24830,28654,47,-1,56800,2020-11-02 15:58:57,2020-11-02 15:59:26,2,DF:DC:EF:28:D6:3E,47,47,6546.451476116436,-40655.64812769713,-587.2736906500286
54672,-6662,1275,-12808,11762,13074,-519,13115,20732,29680,47,-1,56826,2020-11-02 15:58:57,2020-11-02 15:59:26,2,DF:DC:EF:28:D6:3E,47,47,12789.72660531479,-4049.4825916953882,-5484.279086704017
54673,19196,-27908,16381,9207,2322,25594,8761,29434,-22030,47,-1,56852,2020-11-02 15:58:57,2020-11-02 15:59:26,2,DF:DC:EF:28:D6:3E,47,47,-23355.40869193213,25825.4255251976,14256.658874900997
54674,19967,-26882,-9988,31229,-10734,-1030,-20169,-23048,4341,47,-1,56877,2020-11-02 15:58:57,2020-11-02 15:59:26,2,DF:DC:EF:28:D6:3E,47,47,-2697.008098196782,25203.47165311122,-24053.987630933047
54675,21256,30717,26868,21758,-1011,27637,-27594,25847,-18441,47,-1,56903,2020-11-02 15:58:57,2020-11-02 15:59:26,2,DF:DC:EF:28:D6:3E,47,47,12310.970982080087,42575.13568532429,12370.8877553152
54676,22533,21499,5621,18172,22537,-7701,309,-10761,-8198,47,-1,56928,2020-11-02 15:58:57,2020-11-02 15:59:26,2,DF:DC:EF:28:D6:3E,47,47,22113.185950333012,5351.440498643336,21997.904961961147
54677,-27905,7930,-16137,-25092,19978,487,19507,25849,-28418,47,-1,56954,2020-11-02 15:58:57,2020-11-02 15:59:26,2,DF:DC:EF:28:D6:3E,47,47,751.8794383825953,7656.102703532668,-32292.343716477084
54678,2042,2042,-28932,27647,-25334,8932,5170,-31237,-30206,47,-1,56979,2020-11-02 15:58:57,2020-11-02 15:59:26,2,DF:DC:EF:28:D6:3E,47,47,-9663.62479017481,-25469.325002686004,-10165.03771868419
54679,-27402,5114,22275,26884,-17400,18403,-7375,7422,25862,47,-1,57005,2020-11-02 15:58:57,2020-11-02 15:59:26,2,DF:DC:EF:28:D6:3E,47,47,21701.141742354193,-7777.011501228371,27235.579013268914
54680,8949,28152,-3580,30220,-25848,-30237,13107,-14848,7434,47,-1,57031,2020-11-02 15:58:57,2020-11-02 15:59:26,2,DF:DC:EF:28:D6:3E,47,47,-8201.608911938823,-28431.299877381152,-3135.4271699455066
54681,5620,-5644,-28158,-23528,17681,-1306,-30410,17666,28174,47,-1,57057,2020-11-02 15:58:57,2020-11-02 15:59:26,2,DF:DC:EF:28:D6:3E,47,47,24095.80306944657,-10961.074556711019,12472.33815291549
54682,-7181,12785,25082,4387,23317,-25364,-12229,-25855,-3310,47,-1,57082,2020-11-02 15:58:57,2020-11-02 15:59:26,2,DF:DC:EF:28:D6:3E,47,47,-12003.64163552662,17486.560754386534,19856.044179770564
54683,8177,16623,-23824,-31450,1810,-3597,-13247,-24577,8982,47,-1,57107,2020-11-02 15:58:57,2020-11-02 15:59:26,2,DF:DC:EF:28:D6:3E,47,47,19035.3200778966,-23251.874167649796,-2788.7938654205036
54684,19439,11501,31723,-18396,-7152,-4100,-3398,18173,22295,47,-1,57133,2020-11-02 15:58:57,2020-11-02 15:59:26,2,DF:DC:EF:28:D6:3E,47,47,12996.904963719433,-13469.923639850962,-34148.76380633169
54685,-3346,-7192,15336,25379,-9198,1031,-16704,-15110,23574,47,-1,57159,2020-11-02 15:58:57,2020-11-02 15:59:26,2,DF:DC:EF:28:D6:3E,47,47,12002.197766281231,-12016.67073131852,-3108.110248068217
54686,17139,-22044,-10270,-17379,783,-13040,-26938,-32263,24083,47,-1,57184,2020-11-02 15:58:57,2020-11-02 15:59:26,2,DF:DC:EF:28:D6:3E,47,47,19858.204056106988,-10942.573284328786,-19263.124839524604
54687,1279,-27933,10978,31763,6407,4117,13259,21754,-9457,47,-1,57210,2020-11-02 15:58:57,2020-11-02 15:59:26,2,DF:DC:EF:28:D6:3E,47,47,-1587.4410115961873,5511.262773803518,29487.468994011506
54688,-12796,28136,-282,10250,14845,25615,-20787,22524,-9715,47,-1,57236,2020-11-02 15:58:57,2020-11-02 15:59:26,2,DF:DC:EF:28:D6:3E,47,47,-16909.119367850017,-25292.676435956368,5460.204841378849
54689,20736,10221,-3351,18182,-14853,263,-11314,-1027,29197,47,-1,57261,2020-11-02 15:58:57,2020-11-02 15:59:26,2,DF:DC:EF:28:D6:3E,47,47,8473.66593154257,-19117.611147567764,-10411.227962685647
54690,-32523,-18192,-24599,262,9985,18180,-18993,-16898,13581,47,1,57287,2020-11-02 15:58:57,2020-11-02 15:59:26,2,DF:DC:EF:28:D6:3E,47,47,-8665.532288596392,-16001.530284469001,-40775.786598305065
54691,-25363,-29453,6631,-12283,-29176,-30456,-28208,14591,1548,47,1,57312,2020-11-02 15:58:57,2020-11-02 15:59:26,2,DF:DC:EF:28:D6:3E,47,47,-13654.779602342023,14233.408218909091,34142.17660731892
54692,9960,-13327,-10521,-13307,1561,3090,28625,-9473,-27128,47,1,57338,2020-11-02 15:58:57,2020-11-02 15:59:26,2,DF:DC:EF:28:D6:3E,47,47,5245.755148063507,-7219.209240822883,17546.14034093489
54693,32747,7404,11246,15106,12070,26394,-5423,-22016,20226,47,1,57364,2020-11-02 15:58:57,2020-11-02 15:59:26,2,DF:DC:EF:28:D6:3E,47,47,32621.14899516707,-12128.876582754803,-6512.198712832138
54694,29680,-28443,-25865,-17923,-18907,-9700,27089,-15615,4347,47,1,57389,2020-11-02 15:58:57,2020-11-02 15:59:26,2,DF:DC:EF:28:D6:3E,47,47,-47297.56197915329,-983.1110329158473,10994.498511760885
54695,25591,-25373,-13054,4353,-26080,31258,-24368,-12030,23540,47,1,57415,2020-11-02 15:58:57,2020-11-02 15:59:26,2,DF:DC:EF:28:D6:3E,47,47,20647.62741251897,-16580.93657155238,27709.986478595616
54696,19701,-17434,-8976,-18686,-32734,21018,15824,-28669,-9747,47,1,57440,2020-11-02 15:58:57,2020-11-02 15:59:26,2,DF:DC:EF:28:D6:3E,47,47,9714.25160727877,13404.897047893066,-22329.003198662267
54697,29695,6633,-25090,15361,-25058,15638,22991,1284,-27417,47,1,57466,2020-11-02 15:58:57,2020-11-02 15:59:26,2,DF:DC:EF:28:D6:3E,47,47,-1758.4427724894558,37718.69843993298,11380.047496090534
54698,3070,6379,2544,19456,-11236,11792,-13874,-21757,13794,47,1,57492,2020-11-02 15:58:57,2020-11-02 15:59:26,2,DF:DC:EF:28:D6:3E,47,47,1172.361268709521,-1741.3975184114583,7223.6819378001555
54699,-20221,23273,5870,27640,16914,-20474,-28723,-12030,25566,47,1,57517,2020-11-02 15:58:57,2020-11-02 15:59:26,2,DF:DC:EF:28:D6:3E,47,47,9489.797570754567,9499.240462711885,-28366.99565864665
54700,29952,22761,31984,20468,-7668,-24577,-13877,-25343,-28708,47,1,57543,2020-11-02 15:58:57,2020-11-02 15:59:26,2,DF:DC:EF:28:D6:3E,47,47,-31659.432674751253,-37889.956122941076,-439.57788216976587
54701,20992,-22039,6898,8692,-16884,-15879,-3383,-13057,-22565,47,1,57568,2020-11-02 15:58:57,2020-11-02 15:59:26,2,DF:DC:EF:28:D6:3E,47,47,11747.750693298203,23936.38613817438,16217.390705422524
54702,20733,26858,25587,-13067,-12276,-3339,21960,30461,28891,47,1,57594,2020-11-02 15:58:57,2020-11-02 15:59:26,2,DF:DC:EF:28:D6:3E,47,47,-21431.994124837882,-34013.68667953306,13771.0844997578
54703,23032,-20500,244,7672,20748,-14347,1479,2043,-25125,47,1,57620,2020-11-02 15:58:57,2020-11-02 15:59:26,2,DF:DC:EF:28:D6:3E,47,47,459.73127808181744,30830.369299636244,244.0
54704,13308,-3859,-30727,-23044,8972,15608,16582,-11528,-20773,47,1,57645,2020-11-02 15:58:57,2020-11-02 15:59:26,2,DF:DC:EF:28:D6:3E,47,47,18004.178508537054,-27278.128827042216,8239.934340030923
54705,23555,32492,-19212,19456,30984,29429,5574,-12042,2268,47,1,57671,2020-11-02 15:58:57,2020-11-02 15:59:26,2,DF:DC:EF:28:D6:3E,47,47,7667.083429307058,32492.0,29413.513912622635
54706,-20481,-21523,11504,9215,-27643,4339,-27963,3573,15581,47,1,57696,2020-11-02 15:58:57,2020-11-02 15:59:26,2,DF:DC:EF:28:D6:3E,47,47,3647.345309301777,-20854.74810364153,-23808.17632092753
54707,-27133,18671,-21520,762,7173,-23055,14532,25331,-10274,47,-1,57722,2020-11-02 15:58:57,2020-11-02 15:59:26,2,DF:DC:EF:28:D6:3E,47,47,8906.228050428212,7965.671263764314,-37485.24393986793
54708,-24060,31473,11769,-1032,-10748,-15377,-3391,-12303,4065,47,-1,57748,2020-11-02 15:58:57,2020-11-02 15:59:26,2,DF:DC:EF:28:D6:3E,47,47,-689.0285289872027,31473.0,-26775.328208749223
54709,15368,3316,20476,20219,-2556,-11795,24767,17648,-5917,47,-1,57773,2020-11-02 15:58:57,2020-11-02 15:59:26,2,DF:DC:EF:28:D6:3E,47,47,1783.6893736296188,21891.23138076795,13565.776677067972
54710,9994,-1035,19966,9725,20994,-24342,20412,9967,-15897,47,-1,57799,2020-11-02 15:58:57,2020-11-02 15:59:26,2,DF:DC:EF:28:D6:3E,47,47,3095.345998367321,11071.933254670957,-19168.29528556212
54711,-17142,-23049,5121,29439,769,25831,26181,-15378,-27668,47,-1,57824,2020-11-02 15:58:57,2020-11-02 15:59:26,2,DF:DC:EF:28:D6:3E,47,47,-10619.550513681206,-16682.661193185697,-21453.278733115578
54712,-19193,4855,19458,-18941,-22017,20450,-15295,13295,19954,47,-1,57850,2020-11-02 15:58:57,2020-11-02 15:59:26,2,DF:DC:EF:28:D6:3E,47,47,1144.385374162528,-15994.274873129401,22658.984783043226
54713,-32765,-7949,-15103,-17400,13311,10461,-22978,-26128,-24072,47,-1,57876,2020-11-02 15:58:57,2020-11-02 15:59:26,2,DF:DC:EF:28:D6:3E,47,47,-28488.85370438746,7549.426301357733,22276.08161527464
54714,-1541,-26898,-1282,-8434,17663,-9257,-20676,-4878,11775,47,-1,57901,2020-11-02 15:58:57,2020-11-02 15:59:26,2,DF:DC:EF:28:D6:3E,47,47,-23407.727252327255,-12407.438219856707,5065.0163574360795
54715,25072,-2327,12791,-32236,257,-14122,22076,-23307,-18427,47,-1,57927,2020-11-02 15:58:57,2020-11-02 15:59:26,2,DF:DC:EF:28:D6:3E,47,47,26028.033519836616,3206.5190337372246,-10482.819314313407
54716,-15900,15855,-784,28440,-28669,-25633,-19395,-18953,26891,47,-1,57952,2020-11-02 15:58:57,2020-11-02 15:59:26,2,DF:DC:EF:28:D6:3E,47,47,-22386.473776623287,-1736.6804465638138,-797.128518546847
54717,-31256,-14091,32750,2839,22785,-10260,10560,-17160,15631,47,-1,57978,2020-11-02 15:58:57,2020-11-02 15:59:26,2,DF:DC:EF:28:D6:3E,47,47,28777.570139103922,21637.084019125476,-30850.354439426777
54718,-21519,19446,26095,30227,-13319,-22285,-12478,-12551,23825,47,-1,58004,2020-11-02 15:58:57,2020-11-02 15:59:26,2,DF:DC:EF:28:D6:3E,47,47,-10984.119011209701,-36638.518118362,-7689.695809200833
54719,16882,27381,-15633,-6896,32759,-8459,11845,28923,-4078,47,-1,58029,2020-11-02 15:58:57,2020-11-02 15:59:26,2,DF:DC:EF:28:D6:3E,47,47,-25324.406364690592,2820.5301420685773,25096.430542882015
54720,-13327,-17421,8433,-26094,-1284,-27911,6843,21756,11028,47,-1,58055,2020-11-02 15:58:57,2020-11-02 15:59:26,2,DF:DC:EF:28:D6:3E,47,47,20249.846816876307,982.648513666848,11882.498255486214
54721,-12305,-16911,-10257,5140,1791,27646,5566,-26372,-17644,47,-1,58080,2020-11-02 15:58:57,2020-11-02 15:59:26,2,DF:DC:EF:28:D6:3E,47,47,-2664.2342958847194,16702.170260351784,16016.877323962126
54722,31728,18159,18669,-17133,15868,28162,14785,5373,-21740,47,-1,58132,2020-11-02 15:58:57,2020-11-02 15:59:26,2,DF:DC:EF:28:D6:3E,47,47,-34872.50628129927,19809.519532852046,8742.886682228953
54723,-28435,-21779,10472,-27629,24061,-28411,20164,1022,21012,47,-1,58134,2020-11-02 15:58:57,2020-11-02 15:59:26,2,DF:DC:EF:28:D6:3E,47,47,25316.289952295145,-23895.002217091907,-13440.654079935712
54724,16623,26861,-30745,2834,3332,24075,19911,-21762,1043,47,-1,58157,2020-11-02 15:58:57,2020-11-02 15:59:26,2,DF:DC:EF:28:D6:3E,47,47,-21286.89298219445,-22253.453803383945,-31539.56968611425
54725,-2827,8428,-2581,-4338,3588,30734,-8503,-32513,-3312,47,-1,58183,2020-11-02 15:58:57,2020-11-02 15:59:26,2,DF:DC:EF:28:D6:3E,47,47,-8939.764125189038,2381.8312220675007,303.5974564575502
54726,-14853,-7700,-31251,-28148,-23039,-10740,-5429,-16640,11535,47,-1,58209,2020-11-02 15:58:57,2020-11-02 15:59:26,2,DF:DC:EF:28:D6:3E,47,47,-7396.04285353267,34663.7327706217,-500.7898917071034
54727,22261,-11028,-12052,25866,-14335,30472,-28467,-14847,270,47,-1,58234,2020-11-02 15:58:57,2020-11-02 15:59:26,2,DF:DC:EF:28:D6:3E,47,47,-8838.016197263161,16329.365524335062,20436.753662692405
54728,-11285,-19988,242,11275,9226,-19444,-2610,-29182,17932,47,-1,58260,2020-11-02 15:58:57,2020-11-02 15:59:26,2,DF:DC:EF:28:D6:3E,47,47,5760.061850595643,19368.975109472543,10890.106688455618
54729,31219,29671,-27401,13838,28436,21524,31184,30723,-23544,47,-1,58285,2020-11-02 15:58:57,2020-11-02 15:59:26,2,DF:DC:EF:28:D6:3E,47,47,-14978.303695551756,44664.34005561953,19661.03122422121
54730,-24835,32485,17911,20749,26133,5656,-13359,-5116,-2045,47,1,58311,2020-11-02 15:58:57,2020-11-02 15:59:26,2,DF:DC:EF:28:D6:3E,47,47,-24835.0,2767.8962266408635,-36992.13289982814
54731,25855,25832,-6672,11786,-21739,-9195,27090,-31994,21503,47,1,58337,2020-11-02 15:58:57,2020-11-02 15:59:26,2,DF:DC:EF:28:D6:3E,47,47,10253.651844617782,20694.412232657894,-29101.42194454054
54732,16125,25579,-3601,-6139,281,-6383,2770,32007,-29702,47,1,58362,2020-11-02 15:58:57,2020-11-02 15:59:26,2,DF:DC:EF:28:D6:3E,47,47,-22251.328214631005,14953.213536611562,14441.18639909003
54733,-20745,-16404,31216,19203,-28131,16655,-4144,-29433,21493,47,1,58388,2020-11-02 15:58:57,2020-11-02 15:59:26,2,DF:DC:EF:28:D6:3E,47,47,-21493.602976213842,19633.66135802502,28747.68285930688
54734,17652,8174,1524,-18690,8989,-8690,20175,2311,-2577,47,1,58413,2020-11-02 15:58:57,2020-11-02 15:59:26,2,DF:DC:EF:28:D6:3E,47,47,17652.0,-8307.26555949528,-355.23361893772426
54735,-14604,-20244,32750,-15112,10005,-16114,15565,-27386,23787,47,1,58439,2020-11-02 15:58:57,2020-11-02 15:59:26,2,DF:DC:EF:28:D6:3E,47,47,-6553.23669762483,25083.252954740943,31992.87986401635
54736,19191,-20757,-5649,-31756,-17395,-14834,-20534,-28922,-8217,47,1,58465,2020-11-02 15:58:57,2020-11-02 15:59:26,2,DF:DC:EF:28:D6:3E,47,47,23977.25216474294,-784.8840566520585,-15985.432951470028
54737,20219,21483,25584,9716,-27381,-8179,1992,-28922,-7452,47,1,58490,2020-11-02 15:58:57,2020-11-02 15:59:26,2,DF:DC:EF:28:D6:3E,47,47,34431.45306733891,-13862.736915227018,-12131.276556522815
54738,-28930,-17428,-9490,-20491,-5620,-9206,-22587,6,12770,47,1,58516,2020-11-02 15:58:57,2020-11-02 15:59:26,2,DF:DC:EF:28:D6:3E,47,47,-2431.758938400454,-32928.68527516537,11854.468293205593
54739,7169,-13842,-25875,-30986,9486,-31227,-19005,-20732,7904,47,1,58541,2020-11-02 15:58:57,2020-11-02 15:59:26,2,DF:DC:EF:28:D6:3E,47,47,-14395.226664809146,-3814.845145744327,-26281.848408792688
54740,8704,10479,10989,12791,14607,31488,10946,-18174,-8994,47,1,58567,2020-11-02 15:58:57,2020-11-02 15:59:26,2,DF:DC:EF:28:D6:3E,47,47,-8797.526285367614,7065.981908453353,-13379.185660109355
54741,-25089,-27665,-32274,-16394,-5618,-516,-12352,29696,21470,47,1,58593,2020-11-02 15:58:57,2020-11-02 15:59:26,2,DF:DC:EF:28:D6:3E,47,47,46193.48627086873,11429.51871281072,-13112.938272430463
54742,3586,-8208,-27922,24055,-29170,2810,-32577,8190,25822,47,1,58618,2020-11-02 15:58:57,2020-11-02 15:59:26,2,DF:DC:EF:28:D6:3E,47,47,25920.483106354033,-7389.49777862836,-11549.572377922123
54743,-30718,-14094,3056,30200,29455,-23050,16062,-25861,3295,47,1,58644,2020-11-02 15:58:57,2020-11-02 15:59:26,2,DF:DC:EF:28:D6:3E,47,47,9417.258391573905,3086.3605779161417,32455.586865275076
54744,22017,17653,9969,23034,-4593,27636,189,-2824,18912,47,1,58669,2020-11-02 15:58:57,2020-11-02 15:59:26,2,DF:DC:EF:28:D6:3E,47,47,-24287.856299932842,-14369.298325033564,9969.0
54745,-16639,-25353,-18190,30973,-28657,6644,-9285,25846,-7711,47,1,58695,2020-11-02 15:58:57,2020-11-02 15:59:26,2,DF:DC:EF:28:D6:3E,47,47,-23234.960667757092,-17495.93928545496,-20113.07388957379
54746,-4604,17401,30192,-4094,-15088,27379,8379,-12045,-16925,47,1,58721,2020-11-02 15:58:57,2020-11-02 15:59:26,2,DF:DC:EF:28:D6:3E,47,47,-3636.1069044227697,30512.280238409006,-17068.332145596556
54747,12805,-17926,-1811,18693,27922,7666,-27718,1265,2022,47,1,58746,2020-11-02 15:58:57,2020-11-02 15:59:26,2,DF:DC:EF:28:D6:3E,47,47,12805.0,13087.784866603766,-12382.69293350592
54748,-15609,-8711,27630,20738,21007,4847,-16571,29166,8425,47,1,58772,2020-11-02 15:58:57,2020-11-02 15:59:26,2,DF:DC:EF:28:D6:3E,47,47,-24730.284776013854,14693.859021288672,-15982.578764384394
54749,-12291,11003,-24583,4864,11788,-14356,-25534,-15380,-30483,47,1,58797,2020-11-02 15:58:57,2020-11-02 15:59:26,2,DF:DC:EF:28:D6:3E,47,47,-15785.210750328491,-13129.655548867206,-21328.334340398324
54750,-5368,-30470,16119,3331,6668,-28948,5951,-28949,-30990,47,1,58823,2020-11-02 15:58:57,2020-11-02 15:59:26,2,DF:DC:EF:28:D6:3E,47,47,23756.110847341253,-25545.776180858935,344.9662683444217
54751,10505,-14345,-4363,-15358,-15099,11238,-10694,-7445,-30728,47,1,58849,2020-11-02 15:58:57,2020-11-02 15:59:26,2,DF:DC:EF:28:D6:3E,47,47,10244.27573694614,-5635.188212643452,14087.912813241746
54752,-9467,1781,28406,-30206,-26364,-26400,-23754,-11539,-21762,47,1,58874,2020-11-02 15:58:57,2020-11-02 15:59:26,2,DF:DC:EF:28:D6:3E,47,47,-22599.264331056384,19669.505246551777,-1442.463535384767
54753,21503,30964,28152,-13055,-30461,19420,17459,497,14084,47,-1,58900,2020-11-02 15:58:57,2020-11-02 15:59:26,2,DF:DC:EF:28:D6:3E,47,47,22537.78031567692,33962.51333182723,-23500.62883473001
54754,-15881,-2828,5117,21248,-15873,-11559,3377,22005,-24568,47,-1,58926,2020-11-02 15:58:57,2020-11-02 15:59:26,2,DF:DC:EF:28:D6:3E,47,47,-8608.397155437133,14293.502069969649,-2824.6647571057283
54755,11247,20216,14594,19456,23292,23004,48,23546,-23541,47,-1,58951,2020-11-02 15:58:57,2020-11-02 15:59:26,2,DF:DC:EF:28:D6:3E,47,47,-3274.891559656997,-27136.42928596682,-1027.517338155285
54756,-21524,-4868,-22779,25091,32510,-10780,-1745,-24066,-7667,47,-1,58977,2020-11-02 15:58:57,2020-11-02 15:59:26,2,DF:DC:EF:28:D6:3E,47,47,-5809.135640064043,37.421805733096335,31178.764948660064
54757,-26898,-1541,-13049,-6390,-16643,-10516,7217,-17663,28687,47,-1,59002,2020-11-02 15:58:57,2020-11-02 15:59:26,2,DF:DC:EF:28:D6:3E,47,47,17618.649932885713,-23786.047015757234,4467.731852586106
54758,-1808,29688,-27135,11031,31752,-14607,8244,25091,27153,47,-1,59028,2020-11-02 15:58:57,2020-11-02 15:59:26,2,DF:DC:EF:28:D6:3E,47,47,33752.658185047534,-20392.938393622622,-8114.2197479028055
54759,-28686,32756,21751,27934,6153,-22027,-6600,25603,-6893,47,-1,59053,2020-11-02 15:58:57,2020-11-02 15:59:26,2,DF:DC:EF:28:D6:3E,47,47,46889.86967159376,-6395.469815632958,-11374.806416738673
54760,-25872,13809,18924,14363,-28932,25845,-21187,4356,27925,47,-1,59079,2020-11-02 15:58:57,2020-11-02 15:59:26,2,DF:DC:EF:28:D6:3E,47,47,8586.05008599538,26770.2382834115,-20683.344196965532
54761,6894,-16912,8935,20759,4345,1015,-9407,30981,-21738,47,-1,59105,2020-11-02 15:58:57,2020-11-02 15:59:26,2,DF:DC:EF:28:D6:3E,47,47,15928.342995967734,3905.9460075032885,12017.016276483724
54762,-28177,10481,14055,22803,6906,20728,30533,-21498,-10729,47,-1,59130,2020-11-02 15:58:57,2020-11-02 15:59:26,2,DF:DC:EF:28:D6:3E,47,47,29376.9018005644,-15304.518142318211,2026.5932081818642
54763,1004,3825,23017,29969,19708,29945,2236,27911,3865,47,-1,59156,2020-11-02 15:58:57,2020-11-02 15:59:26,2,DF:DC:EF:28:D6:3E,47,47,-18075.58122984965,3825.0,-14285.085516128596
54764,-22804,-10513,8174,-11758,-17152,10750,5567,-29433,-17895,47,-1,59182,2020-11-02 15:58:57,2020-11-02 15:59:26,2,DF:DC:EF:28:D6:3E,47,47,-2839.502766323377,10214.511101301492,24185.96386339462
54765,29936,14830,-16146,28691,25089,20481,4802,27655,-23527,47,-1,59207,2020-11-02 15:58:57,2020-11-02 15:59:26,2,DF:DC:EF:28:D6:3E,47,47,-6420.314636454462,-15254.627359929205,33209.36940200202
54766,-20749,-26899,-2067,-7150,-19199,-20478,-4924,25863,14105,47,-1,59233,2020-11-02 15:58:57,2020-11-02 15:59:26,2,DF:DC:EF:28:D6:3E,47,47,18164.23722785236,24948.659743774002,-14351.813610819116
54767,-31245,-9492,-26387,-20974,-14077,-9214,-24121,18183,-25064,47,-1,59258,2020-11-02 15:58:57,2020-11-02 15:59:26,2,DF:DC:EF:28:D6:3E,47,47,-40955.69663181178,7375.947016406275,-5554.1135219014905
54768,29426,-32019,-4884,6674,28934,13060,10442,-762,-25321,47,1,59284,2020-11-02 15:58:57,2020-11-02 15:59:26,2,DF:DC:EF:28:D6:3E,47,47,-9251.744514947059,30891.35720467283,-29581.895924424032
54769,4850,13549,-5395,-9458,-12283,-23802,13772,-3066,15382,47,1,59310,2020-11-02 15:58:57,2020-11-02 15:59:26,2,DF:DC:EF:28:D6:3E,47,47,-1352.057320069674,4715.009079470881,14565.183019232994
54770,3059,-28691,-2577,1548,-17148,4874,-20019,-30969,-18412,47,1,59335,2020-11-02 15:58:57,2020-11-02 15:59:26,2,DF:DC:EF:28:D6:3E,47,47,-3167.648684055581,-28775.194928083492,-1061.154873333243
54771,-15885,21740,14579,8205,1803,18190,-14386,23560,29970,47,1,59361,2020-11-02 15:58:57,2020-11-02 15:59:26,2,DF:DC:EF:28:D6:3E,47,47,12528.192002464784,-27511.500896403548,4865.160796578493
54772,5620,-30741,6643,25615,-6893,16915,-30001,5385,-27122,47,1,59386,2020-11-02 15:58:57,2020-11-02 15:59:26,2,DF:DC:EF:28:D6:3E,47,47,7746.8187191188335,14116.838546352665,-27593.92322938733
54773,18419,13293,12527,19981,-20714,-13802,-20529,-5111,31497,47,1,59412,2020-11-02 15:58:57,2020-11-02 15:59:26,2,DF:DC:EF:28:D6:3E,47,47,-5699.44489057926,-20893.951194036985,-14277.544272053596
54774,-18439,24301,-16660,-18171,7443,-7914,-25138,5643,17156,47,1,59438,2020-11-02 15:58:57,2020-11-02 15:59:26,2,DF:DC:EF:28:D6:3E,47,47,10652.06627836901,-15403.294788220399,29280.76016206574
54775,14584,752,7153,-27392,2322,30995,-25652,-14581,-32257,47,1,59463,2020-11-02 15:58:57,2020-11-02 15:59:26,2,DF:DC:EF:28:D6:3E,47,47,5000.004771525633,-3914.2415164235535,14970.057936956262
54776,-13836,-2320,25332,-27136,-1773,-7151,20170,-19957,-11270,47,1,59489,2020-11-02 15:58:57,2020-11-02 15:59:26,2,DF:DC:EF:28:D6:3E,47,47,8262.486625365003,-15233.531525360882,23199.102397107967
54777,27634,-15887,12019,13826,-18412,22546,18888,2571,7414,47,1,59514,2020-11-02 15:58:57,2020-11-02 15:59:26,2,DF:DC:EF:28:D6:3E,47,47,3123.2861142416677,30834.6714016678,-14140.693384687864
54778,-26892,26609,7917,11008,29200,1812,27334,28682,-29455,47,-1,59540,2020-11-02 15:58:57,2020-11-02 15:59:26,2,DF:DC:EF:28:D6:3E,47,47,15654.350178283748,12726.894252510612,-32967.63438861029
54779,1532,498,23785,-27142,14601,23314,13508,19978,-22291,47,-1,59566,2020-11-02 15:58:57,2020-11-02 15:59:26,2,DF:DC:EF:28:D6:3E,47,47,-260.2773018440405,22018.50030335419,9134.503441202265
54780,-25089,-29965,30184,-9738,-4858,11533,-16959,12298,-14358,47,-1,59591,2020-11-02 15:58:57,2020-11-02 15:59:26,2,DF:DC:EF:28:D6:3E,47,47,26393.46869821241,-38247.461997346465,16701.78022960486
54781,24319,10741,-23319,32757,16906,28167,24767,18953,-13592,47,-1,59617,2020-11-02 15:58:57,2020-11-02 15:59:26,2,DF:DC:EF:28:D6:3E,47,47,-12829.908017693004,31244.887695812733,-10474.209093463181
54782,-18694,-18954,-21269,24821,-22260,-16638,24253,-25593,-19993,47,-1,59642,2020-11-02 15:58:57,2020-11-02 15:59:26,2,DF:DC:EF:28:D6:3E,47,47,-33783.40150063964,-1070.9604495441727,-4315.6621464256805
54783,-27144,3064,7662,-28426,9229,23809,-17477,-23803,10983,47,-1,59668,2020-11-02 15:58:57,2020-11-02 15:59:26,2,DF:DC:EF:28:D6:3E,47,47,7950.469436583103,8769.19048317723,25783.37468229696
