id,accelerationx,accelerationy,accelerationz,angularvelocityx,angularvelocityy,angularvelocityz,pitch,roll,yaw,mdlcircle_id,hallsensor,timestamp,starttime,endtime,train_mode,blemac,training_id,training_handle_id,accelerationWorldx,accelerationWorldy,accelerationWorldz
56518,31504,28927,9726,-25345,23295,8960,31789,-31010,-1089,49,1,34355,2020-11-02 16:01:59,2020-11-02 16:02:29,3,DF:DC:EF:28:D6:3E,49,49,-15017.342907708784,17531.99353426843,-37295.8045322347
56519,-18673,17923,13311,20991,18175,10752,-16082,-29730,-24642,49,1,34357,2020-11-02 16:01:59,2020-11-02 16:02:29,3,DF:DC:EF:28:D6:3E,49,49,13633.952236181882,-22892.08812368411,11711.755921252456
56520,26894,-5888,-4098,26111,-16642,-11521,24368,-24354,-6468,49,1,34380,2020-11-02 16:01:59,2020-11-02 16:02:29,3,DF:DC:EF:28:D6:3E,49,49,-5951.823994979841,10652.488708305922,-25016.987417596807
56521,18190,-30719,4607,-28673,-5634,31487,25137,-15394,-12101,49,1,34406,2020-11-02 16:01:59,2020-11-02 16:02:29,3,DF:DC:EF:28:D6:3E,49,49,32236.154457539593,13808.550994841191,8118.606728529271
56522,19471,1540,22527,-17665,17407,21247,-14543,-5922,23995,49,1,34432,2020-11-02 16:01:59,2020-11-02 16:02:29,3,DF:DC:EF:28:D6:3E,49,49,2214.249714678943,-27793.62747013844,10562.60101737305
56523,3603,-8957,19455,-10241,27391,20479,-1999,3807,9403,49,1,34457,2020-11-02 16:01:59,2020-11-02 16:02:29,3,DF:DC:EF:28:D6:3E,49,49,9483.764818967236,-1807.667795398077,19455.0
56524,23825,30463,-25346,-3841,27391,30207,9010,13023,-2886,49,1,34483,2020-11-02 16:01:59,2020-11-02 16:02:29,3,DF:DC:EF:28:D6:3E,49,49,941.6112504514167,37787.152724602085,-26632.483309308962
56525,16653,22273,29694,-4865,-32257,-26625,13618,19935,-8006,49,1,34508,2020-11-02 16:01:59,2020-11-02 16:02:29,3,DF:DC:EF:28:D6:3E,49,49,-38825.32738456456,-6661.326027500107,-10166.772498523362
56526,18961,-8700,-10754,-4865,-3073,-12033,13618,23519,-8774,49,1,34534,2020-11-02 16:01:59,2020-11-02 16:02:29,3,DF:DC:EF:28:D6:3E,49,49,5983.399765864471,15480.601547910996,16595.419246185633
56527,2578,17664,-8707,-9729,-1793,1792,16690,25055,-13126,49,1,34585,2020-11-02 16:01:59,2020-11-02 16:02:29,3,DF:DC:EF:28:D6:3E,49,49,7415.986341337625,14843.083691807611,-10916.081810937878
56528,21261,14337,-1795,-25601,-18177,6912,26930,25567,-26438,49,1,34587,2020-11-02 16:01:59,2020-11-02 16:02:29,3,DF:DC:EF:28:D6:3E,49,49,12417.059278915269,2038.5537044930925,22415.678724004807
56529,-29167,261,-31234,-30721,5888,18176,-24782,24287,20666,49,-1,34611,2020-11-02 16:01:59,2020-11-02 16:02:29,3,DF:DC:EF:28:D6:3E,49,49,-6741.571905035784,-22743.604167855538,-35547.495603841584
56530,16914,6656,4862,27903,2304,29440,-8910,21983,-839,49,-1,34639,2020-11-02 16:01:59,2020-11-02 16:02:29,3,DF:DC:EF:28:D6:3E,49,49,-17164.407207185486,7687.484075994331,557.2161225705154
56531,-9971,28673,16638,22527,-15361,26624,14387,19423,10822,49,-1,34662,2020-11-02 16:01:59,2020-11-02 16:02:29,3,DF:DC:EF:28:D6:3E,49,49,29564.56413509031,-4040.970971173483,-17549.69843365592
56532,-16878,-28668,-7170,22527,-3841,17664,-28109,17375,-19131,49,-1,34688,2020-11-02 16:01:59,2020-11-02 16:02:29,3,DF:DC:EF:28:D6:3E,49,49,-10755.378568515978,-25942.34644479043,19220.991149947917
56533,7698,22271,9470,25343,-8705,14080,-8141,17631,19781,49,-1,34713,2020-11-02 16:01:59,2020-11-02 16:02:29,3,DF:DC:EF:28:D6:3E,49,49,6625.382545371641,-21148.419801380187,12401.056045034033
56534,-16883,10498,25598,22783,-2817,12544,-3533,16095,8773,49,-1,34739,2020-11-02 16:01:59,2020-11-02 16:02:29,3,DF:DC:EF:28:D6:3E,49,49,7538.479464267972,31170.349554017645,4699.141735164234
56535,-14830,32516,-12802,17663,-2049,14080,5684,15071,-7356,49,-1,34764,2020-11-02 16:01:59,2020-11-02 16:02:29,3,DF:DC:EF:28:D6:3E,49,49,24406.158360947058,22170.78431562321,18812.392641301376
56536,-14062,259,-29698,9727,-6913,26112,29236,15071,26180,49,-1,34790,2020-11-02 16:01:59,2020-11-02 16:02:29,3,DF:DC:EF:28:D6:3E,49,49,-20167.157267883045,20105.92506348625,16395.599228876854
56537,12047,-19197,27646,-13570,-11009,-14336,11829,13279,32579,49,-1,34816,2020-11-02 16:01:59,2020-11-02 16:02:29,3,DF:DC:EF:28:D6:3E,49,49,-25337.21780719893,25194.783560071653,1097.5468790464547
56538,-31726,5634,21758,-18434,-6401,8705,17462,8671,13634,49,-1,34841,2020-11-02 16:01:59,2020-11-02 16:02:29,3,DF:DC:EF:28:D6:3E,49,49,22261.592665937453,-27861.08423451022,15487.836299929239
56539,-4079,32257,31486,-15362,-5377,-7168,11319,3039,6465,49,-1,34867,2020-11-02 16:01:59,2020-11-02 16:02:29,3,DF:DC:EF:28:D6:3E,49,49,5424.9029935675135,-8330.7537907987,44155.28795951256
56540,-11504,-254,-4098,-5634,-22529,32512,-3785,2015,10048,49,-1,34893,2020-11-02 16:01:59,2020-11-02 16:02:29,3,DF:DC:EF:28:D6:3E,49,49,-6001.904096565874,-9817.518994920549,-4098.0
56541,17680,25345,20478,-9218,28415,26368,-15816,4319,10303,49,1,34918,2020-11-02 16:01:59,2020-11-02 16:02:29,3,DF:DC:EF:28:D6:3E,49,49,2759.0540381122682,19239.2572453215,-31567.998201709284
56542,6929,-6911,-21762,-15362,-8193,-24064,-31175,3807,13374,49,1,34944,2020-11-02 16:01:59,2020-11-02 16:02:29,3,DF:DC:EF:28:D6:3E,49,49,-20076.223211432192,-1567.86628576386,-12800.182142247679
56543,7185,-19455,13054,-17922,4352,26112,-967,1759,-29635,49,1,34969,2020-11-02 16:01:59,2020-11-02 16:02:29,3,DF:DC:EF:28:D6:3E,49,49,20693.98456612464,1371.2230952675827,13054.0
56544,4113,-20991,3582,31486,0,4352,-199,735,21053,49,1,34995,2020-11-02 16:01:59,2020-11-02 16:02:29,3,DF:DC:EF:28:D6:3E,49,49,-1109.5890493329593,21361.359089290185,3582.0
56545,12049,32001,-15619,5886,-4609,-9473,-19911,2527,23357,49,1,35021,2020-11-02 16:01:59,2020-11-02 16:02:29,3,DF:DC:EF:28:D6:3E,49,49,-33519.93135062119,13029.937612860871,10946.711426478545
56546,12561,27905,16638,-10499,27904,1280,3897,735,-21187,49,1,35046,2020-11-02 16:01:59,2020-11-02 16:02:29,3,DF:DC:EF:28:D6:3E,49,49,-8497.341924887602,-29398.34903887542,16638.0
56547,-27631,9729,28670,-15875,30720,9472,30264,-3106,-4035,49,1,35072,2020-11-02 16:01:59,2020-11-02 16:02:29,3,DF:DC:EF:28:D6:3E,49,49,-27631.0,30252.10835696391,-1196.7794109669785
56548,-19439,1537,-18690,-7683,-1280,16896,-24521,-10786,28734,49,1,35097,2020-11-02 16:01:59,2020-11-02 16:02:29,3,DF:DC:EF:28:D6:3E,49,49,6427.295513780648,24595.096071924283,-9128.215137218773
56549,23825,4353,-11522,13054,257,6144,26166,-20002,24383,49,1,35123,2020-11-02 16:01:59,2020-11-02 16:02:29,3,DF:DC:EF:28:D6:3E,49,49,7055.470747107522,25862.391003227796,-832.3353488059629
56550,-25840,18689,5119,23806,30720,-22529,821,-24098,-32448,49,1,35149,2020-11-02 16:01:59,2020-11-02 16:02:29,3,DF:DC:EF:28:D6:3E,49,49,-12031.310854806197,25212.680194327088,16209.774783556033
56551,-17649,28673,20223,-20482,-16129,24831,-205,-20258,19777,49,1,35174,2020-11-02 16:01:59,2020-11-02 16:02:29,3,DF:DC:EF:28:D6:3E,49,49,-18518.54687560829,-26323.090937702975,-22511.245280999407
56552,-31729,-20991,23039,-1794,31743,-17921,-13261,-14114,21057,49,1,35200,2020-11-02 16:01:59,2020-11-02 16:02:29,3,DF:DC:EF:28:D6:3E,49,49,-8709.494381204793,-28743.20547179807,-32804.26633579479
56553,7184,-29439,-26881,10495,-26625,16384,18484,-11042,-19904,49,1,35225,2020-11-02 16:01:59,2020-11-02 16:02:29,3,DF:DC:EF:28:D6:3E,49,49,19513.766836210685,-30489.173619520338,18178.997053213603
56554,-23024,-21759,-8193,-28161,-25089,19712,-2252,-10786,-5313,49,1,35251,2020-11-02 16:01:59,2020-11-02 16:02:29,3,DF:DC:EF:28:D6:3E,49,49,-5545.748511776954,-21759.0,-23800.72474619468
56555,-19952,-28159,-27393,-16385,-32513,2048,-31179,-8738,20287,49,-1,35277,2020-11-02 16:01:59,2020-11-02 16:02:29,3,DF:DC:EF:28:D6:3E,49,49,-20874.87014466479,-15489.316722077558,-35576.80280641519
56556,26896,-21759,-27905,-4865,-18177,-8449,-12235,-5410,-194,49,-1,35302,2020-11-02 16:01:59,2020-11-02 16:02:29,3,DF:DC:EF:28:D6:3E,49,49,26896.0,-16319.005679141377,31397.980184148015
56557,13583,18434,-15106,9472,-2817,-27905,-29899,-2594,18239,49,-1,35328,2020-11-02 16:01:59,2020-11-02 16:02:29,3,DF:DC:EF:28:D6:3E,49,49,-16229.18395848336,-17600.4124361526,13391.809105532799
56558,-7412,-27902,24062,-2817,1536,14847,-16332,2015,5440,49,-1,35354,2020-11-02 16:01:59,2020-11-02 16:02:29,3,DF:DC:EF:28:D6:3E,49,49,-7412.0,33490.84371761792,15357.891622292831
56559,-9463,-23806,10493,-28929,-9730,-1026,12596,13791,-25792,49,-1,35379,2020-11-02 16:01:59,2020-11-02 16:02:29,3,DF:DC:EF:28:D6:3E,49,49,12610.526824630446,-15159.961090257344,19430.06039484076
56560,17930,-14847,-28676,-19714,-29188,20225,-20170,-32033,-3779,49,-1,35405,2020-11-02 16:01:59,2020-11-02 16:02:29,3,DF:DC:EF:28:D6:3E,49,49,34318.134571397786,10651.661245902062,-8546.287921781019
56561,-20724,-3072,2557,17406,14077,25348,4156,-21537,18488,49,-1,35430,2020-11-02 16:01:59,2020-11-02 16:02:29,3,DF:DC:EF:28:D6:3E,49,49,-19520.531131063854,5885.638053376331,-5455.981860840027
56562,-3571,-14593,-25348,28158,-26115,-3324,16194,-14113,-13519,49,-1,35456,2020-11-02 16:01:59,2020-11-02 16:02:29,3,DF:DC:EF:28:D6:3E,49,49,24832.282179894133,-15719.863995125645,-2114.812453354794
56563,-7921,-27906,-27397,2046,-5125,18436,-31302,17376,-28116,49,-1,35481,2020-11-02 16:01:59,2020-11-02 16:02:29,3,DF:DC:EF:28:D6:3E,49,49,-15832.154038252625,-9751.426495585903,35303.47384904532
56564,1553,25086,-3844,-1539,-29188,-25853,26045,-4384,21289,49,-1,35507,2020-11-02 16:01:59,2020-11-02 16:02:29,3,DF:DC:EF:28:D6:3E,49,49,1187.0684084644492,19332.40264678741,-16472.541318694963
56565,3600,-9474,25597,-3330,-16643,12802,-578,26593,31271,49,-1,35533,2020-11-02 16:01:59,2020-11-02 16:02:29,3,DF:DC:EF:28:D6:3E,49,49,-15247.406864685581,18145.205219395193,-14006.826780137333
56566,-9715,4352,25597,9727,-4356,20992,9663,-11039,12071,49,-1,35558,2020-11-02 16:01:59,2020-11-02 16:02:29,3,DF:DC:EF:28:D6:3E,49,49,25757.06975532234,-10172.130883458187,1276.1852958153695
56567,9739,-19712,3838,20991,31995,-15106,4542,25570,10792,49,-1,35584,2020-11-02 16:01:59,2020-11-02 16:02:29,3,DF:DC:EF:28:D6:3E,49,49,11578.234214838889,-18451.248022872634,4861.81528492937
56568,-4857,-19712,15100,-2561,-1543,8190,32700,11235,-16855,49,-1,35609,2020-11-02 16:01:59,2020-11-02 16:02:29,3,DF:DC:EF:28:D6:3E,49,49,1055.0630686008062,-19052.989757009847,16614.265443905504
56569,-14331,-7937,26107,-16641,-16390,28928,-11845,2788,28202,49,-1,35635,2020-11-02 16:01:59,2020-11-02 16:02:29,3,DF:DC:EF:28:D6:3E,49,49,29832.80873201038,-6830.084668285439,-3647.2517850208123
56570,21253,-28418,-25094,11777,-1798,7683,-29252,-8476,-17623,49,-1,35663,2020-11-02 16:01:59,2020-11-02 16:02:29,3,DF:DC:EF:28:D6:3E,49,49,-37740.94194842726,-21543.734793032236,-685.8287052430724
56571,-4094,3837,27384,27650,-1793,7944,-9794,29925,-26585,49,-1,35686,2020-11-02 16:01:59,2020-11-02 16:02:29,3,DF:DC:EF:28:D6:3E,49,49,-10998.671660838172,-25690.08355870482,-644.7398264722724
56572,20485,-10757,6644,9984,11269,-14834,3268,-26395,16162,49,-1,35712,2020-11-02 16:01:59,2020-11-02 16:02:29,3,DF:DC:EF:28:D6:3E,49,49,13261.004841148042,-3126.775130564809,-19845.907333400748
56573,25348,-1288,-8207,-32005,-4864,-26608,-12600,-23066,-24548,49,1,35737,2020-11-02 16:01:59,2020-11-02 16:02:29,3,DF:DC:EF:28:D6:3E,49,49,13803.163997154032,-5384.680561947203,-22181.36100227979
56574,15624,19957,-4114,25591,17150,-7151,17867,-24344,-24808,49,1,35763,2020-11-02 16:01:59,2020-11-02 16:02:29,3,DF:DC:EF:28:D6:3E,49,49,17780.413450030774,8751.636353994916,-16327.338413636171
56575,4872,28402,-17177,-7436,-12292,-23021,17868,4587,-27883,49,1,35789,2020-11-02 16:01:59,2020-11-02 16:02:29,3,DF:DC:EF:28:D6:3E,49,49,16260.541265335989,20481.69656677665,21013.1915830222
56576,-17395,21998,-16679,27884,27896,-14831,26059,-9235,-29677,49,1,35814,2020-11-02 16:01:59,2020-11-02 16:02:29,3,DF:DC:EF:28:D6:3E,49,49,24597.974263053573,-12035.324895499889,-17741.9752793739
56577,5647,-8983,26584,-28186,31223,-22513,-32056,-20496,22802,49,1,35840,2020-11-02 16:01:59,2020-11-02 16:02:29,3,DF:DC:EF:28:D6:3E,49,49,9341.645134035189,26992.00992413011,1859.3064420418305
56578,11786,-31001,-2085,4584,15871,-29935,-2619,-19982,14352,49,1,35865,2020-11-02 16:01:59,2020-11-02 16:02:29,3,DF:DC:EF:28:D6:3E,49,49,32922.307221764604,2558.7861412572765,3727.374770405523
56579,1551,-12060,-26149,-9239,22273,-13548,16068,8180,13,49,1,35891,2020-11-02 16:01:59,2020-11-02 16:02:29,3,DF:DC:EF:28:D6:3E,49,49,767.0700630080264,28795.94926282329,-1350.670785700131
56580,-5099,-22043,27097,14312,-15360,-495,21442,17397,-12791,49,1,35917,2020-11-02 16:01:59,2020-11-02 16:02:29,3,DF:DC:EF:28:D6:3E,49,49,16023.3424726728,-8238.6584818577,30356.51596317921
56581,31766,-28187,3036,26088,13571,-9203,-6209,-13579,13319,49,1,35942,2020-11-02 16:01:59,2020-11-02 16:02:29,3,DF:DC:EF:28:D6:3E,49,49,26622.17658684183,-27713.010092722998,18331.715860214616
56582,-18668,14309,-13602,3818,12298,29196,-20547,7925,-17660,49,1,35968,2020-11-02 16:01:59,2020-11-02 16:02:29,3,DF:DC:EF:28:D6:3E,49,49,-1820.1187390955802,15988.466444653537,21893.200257700584
56583,-26347,-21530,-26140,7147,27916,19466,-18245,-31757,24834,49,1,35993,2020-11-02 16:01:59,2020-11-02 16:02:29,3,DF:DC:EF:28:D6:3E,49,49,99.40027107089918,-26850.158875189205,33467.35718522168
56584,32277,8424,-12566,-6676,21257,-19707,-19527,-5135,-13568,49,1,36019,2020-11-02 16:01:59,2020-11-02 16:02:29,3,DF:DC:EF:28:D6:3E,49,49,-22627.706152628187,-25140.89558800433,11251.450764384876
56585,-31210,-7959,13553,31471,24071,32513,10820,-24080,8704,49,1,36045,2020-11-02 16:01:59,2020-11-02 16:02:29,3,DF:DC:EF:28:D6:3E,49,49,24493.100322113147,9079.196750158593,23210.984748235278
56586,22548,23789,1783,-18189,-32761,17406,-1727,32239,23296,49,1,36070,2020-11-02 16:01:59,2020-11-02 16:02:29,3,DF:DC:EF:28:D6:3E,49,49,14940.435197299128,-19096.09604268149,22127.594221785377
56587,32529,-2065,-10757,27640,-9721,-16643,8512,20974,5377,49,1,36096,2020-11-02 16:01:59,2020-11-02 16:02:29,3,DF:DC:EF:28:D6:3E,49,49,-33268.87534089088,7935.979121960834,2883.623402607274
56588,23057,7153,6658,-25348,-25852,-15620,-14018,28653,-3327,49,1,36122,2020-11-02 16:01:59,2020-11-02 16:02:29,3,DF:DC:EF:28:D6:3E,49,49,15434.335480942076,3077.403945983679,19478.975722942327
56589,-17906,-28432,14339,32257,24577,-30215,-7363,16365,9475,49,1,36147,2020-11-02 16:01:59,2020-11-02 16:02:29,3,DF:DC:EF:28:D6:3E,49,49,22359.942766425673,28723.216951099486,3101.6364168354057
56590,8204,3827,31489,27909,27135,21496,30525,-29459,-24572,49,1,36173,2020-11-02 16:01:59,2020-11-02 16:02:29,3,DF:DC:EF:28:D6:3E,49,49,-28493.24912286071,-14866.479719001987,-6374.260834567403
56591,-27636,27893,-24578,-7163,-2,17400,26685,4590,2310,49,1,36198,2020-11-02 16:01:59,2020-11-02 16:02:29,3,DF:DC:EF:28:D6:3E,49,49,-27636.0,-36832.77324642699,-5044.239088038188
56592,269,-26124,-21760,13572,24320,-13579,61,-28946,-19193,49,1,36224,2020-11-02 16:01:59,2020-11-02 16:02:29,3,DF:DC:EF:28:D6:3E,49,49,16895.21313250699,28796.43301472244,-6430.439785564187
56593,-25074,13043,-5631,-5371,6659,6128,4412,5103,15114,49,1,36250,2020-11-02 16:01:59,2020-11-02 16:02:29,3,DF:DC:EF:28:D6:3E,49,49,-1425.5005585043182,-28227.52686931152,-5631.0
56594,-15866,7666,-25602,21512,-19709,-17178,29754,7152,29966,49,1,36275,2020-11-02 16:01:59,2020-11-02 16:02:29,3,DF:DC:EF:28:D6:3E,49,49,-27376.52915715936,13664.82244479932,5455.107227114074
56595,2048,-4623,3837,16649,-15100,-18972,-9160,-17679,19475,49,1,36301,2020-11-02 16:01:59,2020-11-02 16:02:29,3,DF:DC:EF:28:D6:3E,49,49,2737.1825022798826,-1128.4710028599734,-5614.569186047764
56596,-14597,1267,-19972,16651,29702,-19225,-713,20723,-17129,49,1,36326,2020-11-02 16:01:59,2020-11-02 16:02:29,3,DF:DC:EF:28:D6:3E,49,49,-3688.736447699389,-11104.634600791112,21832.058899753978
56597,-17414,757,20730,-23538,7433,-14355,8504,16628,32283,49,1,36352,2020-11-02 16:01:59,2020-11-02 16:02:29,3,DF:DC:EF:28:D6:3E,49,49,-11226.059748673155,-22102.85257961131,10908.383719102942
56598,6394,-15368,-4362,-21231,-27893,-2573,10297,14324,-24546,49,1,36378,2020-11-02 16:01:59,2020-11-02 16:02:29,3,DF:DC:EF:28:D6:3E,49,49,14332.24358203985,-9506.416198462115,548.2234641956073
56599,-6405,28156,25588,30481,-30197,760,-23238,30963,7201,49,1,36403,2020-11-02 16:01:59,2020-11-02 16:02:29,3,DF:DC:EF:28:D6:3E,49,49,28425.365415316726,-25633.671481691403,-4841.858359600863
56600,9980,-12804,-25102,31248,21255,2808,11836,-11022,6179,49,1,36429,2020-11-02 16:01:59,2020-11-02 16:02:29,3,DF:DC:EF:28:D6:3E,49,49,-20232.950562214817,20596.038823656785,7751.394475924552
56601,-29961,-15366,-30225,-7922,516,9976,-22723,-21262,-11740,49,-1,36454,2020-11-02 16:01:59,2020-11-02 16:02:29,3,DF:DC:EF:28:D6:3E,49,49,-504.84191184708607,-27408.41190861046,-35997.919291147686
56602,32248,-11780,6379,-9971,26879,-21251,26943,-7438,-20443,49,-1,36480,2020-11-02 16:01:59,2020-11-02 16:02:29,3,DF:DC:EF:28:D6:3E,49,49,-11528.138739167229,-14297.49826562756,29699.78292100615
56603,6655,-24068,-16920,-31733,-7938,4866,31553,9715,29733,49,-1,36506,2020-11-02 16:01:59,2020-11-02 16:02:29,3,DF:DC:EF:28:D6:3E,49,49,-16722.052258662534,-24737.165310043918,4276.642337408993
56604,256,1021,-7191,1547,-19968,-4607,30275,12275,1317,49,-1,36531,2020-11-02 16:01:59,2020-11-02 16:02:29,3,DF:DC:EF:28:D6:3E,49,49,-2851.590187227006,-6606.005367744675,1023.5157475286793
56605,-3076,-6658,-25621,15626,-24832,31490,19781,6131,-22236,49,-1,36557,2020-11-02 16:01:59,2020-11-02 16:02:29,3,DF:DC:EF:28:D6:3E,49,49,-17261.512118092807,-12770.753860774956,15785.259776906958
56606,8444,30202,-7444,6408,28159,22791,-28742,16115,-15581,49,-1,36582,2020-11-02 16:01:59,2020-11-02 16:02:29,3,DF:DC:EF:28:D6:3E,49,49,5583.177680141789,-25540.572688422224,-18851.587459399467
56607,-4865,-19722,28901,-18938,-3072,-12275,-16708,-32525,-17119,49,-1,36608,2020-11-02 16:01:59,2020-11-02 16:02:29,3,DF:DC:EF:28:D6:3E,49,49,29576.245701049764,-18246.5612257103,6340.505000986982
56608,-18172,-18702,-26399,23045,-10490,20756,29375,-32525,29726,49,-1,36634,2020-11-02 16:01:59,2020-11-02 16:02:29,3,DF:DC:EF:28:D6:3E,49,49,-27982.902066708866,-13347.595295065692,20388.537975149688
56609,7689,13552,-19741,-9472,-27636,-18153,21698,12019,-5351,49,-1,36659,2020-11-02 16:01:59,2020-11-02 16:02:29,3,DF:DC:EF:28:D6:3E,49,49,16310.041838261564,-10630.528234819398,-15920.392918608033
56610,32264,-1042,-15642,1789,27662,-3049,-7484,-7438,-9964,49,-1,36687,2020-11-02 16:01:59,2020-11-02 16:02:29,3,DF:DC:EF:28:D6:3E,49,49,1313.0711463764446,-27447.958775440122,23056.648221853353
56611,18181,14061,8428,-3333,-28913,7194,15303,2291,-28145,49,-1,36711,2020-11-02 16:01:59,2020-11-02 16:02:29,3,DF:DC:EF:28:D6:3E,49,49,-1655.7094145566216,22593.419299197853,9278.345580176596
56612,-19190,28137,-27668,3580,-3051,16413,2250,30963,23305,49,1,36736,2020-11-02 16:01:59,2020-11-02 16:02:29,3,DF:DC:EF:28:D6:3E,49,49,7510.08931979095,-34351.051469194805,-26250.122178182173
56613,-26099,24041,9196,16376,22809,14619,-26164,-2829,-21758,49,1,36762,2020-11-02 16:01:59,2020-11-02 16:02:29,3,DF:DC:EF:28:D6:3E,49,49,22638.0870427021,26129.984975431842,12183.382052236126
56614,-16368,26856,1767,17651,31514,-26603,12238,22772,26620,49,1,36787,2020-11-02 16:01:59,2020-11-02 16:02:29,3,DF:DC:EF:28:D6:3E,49,49,-22450.535062494248,-6437.533889221183,-21137.882624161888
56615,3851,21217,9447,-28436,11032,13325,15310,1268,6135,49,1,36813,2020-11-02 16:01:59,2020-11-02 16:02:29,3,DF:DC:EF:28:D6:3E,49,49,16738.725016190037,-6171.30218069934,15361.224340099636
56616,-1274,20954,-26135,-24344,-26348,-1271,8397,19955,-13582,49,1,36839,2020-11-02 16:01:59,2020-11-02 16:02:29,3,DF:DC:EF:28:D6:3E,49,49,29560.656083849062,-15460.67307918521,-3296.4551917105273
56617,-27384,31448,-21778,29161,-21485,26380,-9269,-21518,-18450,49,1,36864,2020-11-02 16:01:59,2020-11-02 16:02:29,3,DF:DC:EF:28:D6:3E,49,49,-32367.85084426788,-3266.3107962156864,33982.27316566318
56618,14,-294,-14608,-276,-26092,-3058,32715,9202,3562,49,1,36890,2020-11-02 16:01:59,2020-11-02 16:02:29,3,DF:DC:EF:28:D6:3E,49,49,-3242.0397501974444,-14091.362486805316,-2098.3273156482555
56619,31508,7392,32246,-16399,-10483,-22007,29131,-19215,1510,49,1,36915,2020-11-02 16:01:59,2020-11-02 16:02:29,3,DF:DC:EF:28:D6:3E,49,49,-31483.19359756355,33018.30303573173,2408.4080922721823
56620,-31979,-6941,31735,2808,17160,26369,11467,8433,-1821,49,1,36941,2020-11-02 16:01:59,2020-11-02 16:02:29,3,DF:DC:EF:28:D6:3E,49,49,-33702.03467487382,-25968.07864783929,16363.859480979285
56621,-18157,-19995,30204,-24837,-25854,-13831,-25142,13552,-25629,49,1,36967,2020-11-02 16:01:59,2020-11-02 16:02:29,3,DF:DC:EF:28:D6:3E,49,49,23197.448333058644,-11882.665364133385,31023.20010377878
56622,3353,5096,-22785,9979,24566,-19986,32712,31983,230,49,1,36992,2020-11-02 16:01:59,2020-11-02 16:02:29,3,DF:DC:EF:28:D6:3E,49,49,11834.834069752142,-20403.54710107901,-4.270302597126147
56623,-12785,-31766,-22515,-8711,6120,-22302,25283,-11281,18156,49,1,37018,2020-11-02 16:01:59,2020-11-02 16:02:29,3,DF:DC:EF:28:D6:3E,49,49,38599.90047448185,-9264.164502315398,10182.492103318047
56624,19478,31727,-22010,26619,10475,6109,15294,-25615,-30221,49,-1,37043,2020-11-02 16:01:59,2020-11-02 16:02:29,3,DF:DC:EF:28:D6:3E,49,49,-1982.7320200774775,17306.698138424686,-39585.124558121664
56625,4617,-5396,-17915,32762,24046,21208,5446,-6669,-7942,49,-1,37069,2020-11-02 16:01:59,2020-11-02 16:02:29,3,DF:DC:EF:28:D6:3E,49,49,4952.279294598558,-17699.719640662595,-5794.444272769666
56626,1035,-1560,-2302,24566,24309,-24365,-14527,32246,-13311,49,-1,37095,2020-11-02 16:01:59,2020-11-02 16:02:29,3,DF:DC:EF:28:D6:3E,49,49,-486.87476009460806,2406.1210060054095,1666.6024338282764
56627,2308,32231,18947,-12044,-11272,18387,-3267,-20999,27912,49,-1,37120,2020-11-02 16:01:59,2020-11-02 16:02:29,3,DF:DC:EF:28:D6:3E,49,49,27633.726120368996,-17314.828380785806,-18431.682854486466
56628,27645,27629,2567,23544,25343,22750,30267,-24836,-19955,49,-1,37146,2020-11-02 16:01:59,2020-11-02 16:02:29,3,DF:DC:EF:28:D6:3E,49,49,38647.11544687078,-4893.956174928599,-4080.0509303339686
56629,13569,32498,12803,19199,8454,5100,-27334,254,21777,49,-1,37171,2020-11-02 16:01:59,2020-11-02 16:02:29,3,DF:DC:EF:28:D6:3E,49,49,-9068.161326645768,32536.76350918617,16225.968214600225
56630,-3067,-18444,5378,-27134,27146,10993,-21702,-1795,8724,49,-1,37197,2020-11-02 16:01:59,2020-11-02 16:02:29,3,DF:DC:EF:28:D6:3E,49,49,-17660.50950704072,7694.874958687397,-2721.3622180610046
56631,-255,4340,17663,-28156,15880,-20242,5179,-7683,-4074,49,-1,37223,2020-11-02 16:01:59,2020-11-02 16:02:29,3,DF:DC:EF:28:D6:3E,49,49,-15000.67909265825,4340.0,9328.784527422938
56632,-12809,28661,-11777,-3834,11781,-7187,-14789,25854,-6887,49,-1,37248,2020-11-02 16:01:59,2020-11-02 16:02:29,3,DF:DC:EF:28:D6:3E,49,49,-5871.290425828939,-32751.035020766343,4137.485323733053
56633,-28935,-14601,-16137,-13562,12549,-27154,-12484,-10754,-24036,49,-1,37274,2020-11-02 16:01:59,2020-11-02 16:02:29,3,DF:DC:EF:28:D6:3E,49,49,27721.24539209295,-18943.556816416673,-13546.232098061764
56634,11507,-20492,-6663,28676,-16897,24559,-29123,-24833,13087,49,-1,37299,2020-11-02 16:01:59,2020-11-02 16:02:29,3,DF:DC:EF:28:D6:3E,49,49,9389.750971978261,-21902.325175765953,5371.164732089509
56635,243,-29707,-22026,9737,-14084,5877,-21186,-9728,-1504,49,-1,37325,2020-11-02 16:01:59,2020-11-02 16:02:29,3,DF:DC:EF:28:D6:3E,49,49,-21745.12346797617,26301.397798982798,14251.163222071908
56636,-30220,-11529,16106,-29938,1796,-32517,-15296,7169,290,49,-1,37351,2020-11-02 16:01:59,2020-11-02 16:02:29,3,DF:DC:EF:28:D6:3E,49,49,-13146.477710256902,19442.901235006437,27472.0438333136
56637,18926,-2830,24285,-1267,-24822,18688,7235,0,31778,49,-1,37376,2020-11-02 16:01:59,2020-11-02 16:02:29,3,DF:DC:EF:28:D6:3E,49,49,-15693.393310723655,-24379.007666758876,10739.878611001426
56638,-31509,-7946,-287,-31219,6925,-19189,19013,10238,-19167,49,-1,37402,2020-11-02 16:01:59,2020-11-02 16:02:29,3,DF:DC:EF:28:D6:3E,49,49,18667.286304832924,-5325.953726530575,26061.561828030422
56639,-3336,8946,26336,-11253,-6899,16919,5307,18940,-18914,49,1,37428,2020-11-02 16:01:59,2020-11-02 16:02:29,3,DF:DC:EF:28:D6:3E,49,49,-5686.447726312694,-9847.015590971374,-25601.666043581616
56640,15104,-20244,-6172,-5366,30220,-31463,-19779,-14342,-29670,49,1,37453,2020-11-02 16:01:59,2020-11-02 16:02:29,3,DF:DC:EF:28:D6:3E,49,49,-22478.83537777042,-8408.189814133277,10002.411714611742
56641,4606,9456,-9496,-4342,-506,-11242,27328,20474,-29418,49,1,37479,2020-11-02 16:01:59,2020-11-02 16:02:29,3,DF:DC:EF:28:D6:3E,49,49,11486.898251915183,-8292.910090013818,289.82544590648286
56642,-2558,-20497,8931,-32247,-2042,19226,1475,-12294,-27118,49,1,37504,2020-11-02 16:01:59,2020-11-02 16:02:29,3,DF:DC:EF:28:D6:3E,49,49,20124.57232034197,8057.4081699166,-6042.590215022623
56643,30469,-30482,4069,-30972,14602,25373,2245,31995,-5619,49,1,37530,2020-11-02 16:01:59,2020-11-02 16:02:29,3,DF:DC:EF:28:D6:3E,49,49,4741.040255274731,-30482.0,30371.685157361033
56644,-2824,29681,10013,-22006,-5118,2076,-23610,-16644,-29175,49,1,37555,2020-11-02 16:01:59,2020-11-02 16:02:29,3,DF:DC:EF:28:D6:3E,49,49,22098.140796965617,-20405.314341722038,-9191.965292199307
56645,-25326,245,8399,-31731,10517,-29930,24266,-16386,-17147,49,1,37581,2020-11-02 16:01:59,2020-11-02 16:02:29,3,DF:DC:EF:28:D6:3E,49,49,-899.2512588698846,-16854.455472822716,-20667.07961682195
56646,31753,-8470,1760,-28424,-28903,-23023,-27446,-3,1537,49,1,37607,2020-11-02 16:01:59,2020-11-02 16:02:29,3,DF:DC:EF:28:D6:3E,49,49,31753.0,4204.389076972839,-7560.529907978109
56647,23813,4334,-12559,-9489,9750,19218,1737,-2052,-30468,49,1,37632,2020-11-02 16:01:59,2020-11-02 16:02:29,3,DF:DC:EF:28:D6:3E,49,49,2598.8698160457643,24064.255664350938,-12559.0
56648,-12020,-21520,-19467,-13327,-31980,-29166,20167,16380,23544,49,1,37658,2020-11-02 16:01:59,2020-11-02 16:02:29,3,DF:DC:EF:28:D6:3E,49,49,5283.353366352709,-30679.358097304896,4173.494092913248
56649,13325,-15375,242,14837,22303,-1009,30662,14586,-11021,49,1,37684,2020-11-02 16:01:59,2020-11-02 16:02:29,3,DF:DC:EF:28:D6:3E,49,49,806.419494735678,-8898.398139736028,-18280.399671376243
56650,-758,12275,27629,-1550,18213,26893,26054,-15114,-16402,49,1,37711,2020-11-02 16:01:59,2020-11-02 16:02:29,3,DF:DC:EF:28:D6:3E,49,49,1237.1402756412244,-28262.36124990122,10692.064838863831
56651,-1783,-19477,-15125,-29205,3101,-19703,710,24051,-1815,49,1,37735,2020-11-02 16:01:59,2020-11-02 16:02:29,3,DF:DC:EF:28:D6:3E,49,49,12612.084317532233,-19477.0,8536.980916428094
56652,24584,23782,-14624,25827,-3820,-6140,5060,-8464,-16666,49,1,37760,2020-11-02 16:01:59,2020-11-02 16:02:29,3,DF:DC:EF:28:D6:3E,49,49,10976.353238305268,-33164.328146744985,12785.34176950165
56653,24587,-18211,-15905,-16680,30994,28161,15552,26862,-31004,49,1,37786,2020-11-02 16:01:59,2020-11-02 16:02:29,3,DF:DC:EF:28:D6:3E,49,49,-23560.28839785276,-1944.943235355427,25104.982004001708
56654,30485,13016,16364,9944,5902,-27658,-6215,7660,-10268,49,-1,37812,2020-11-02 16:01:59,2020-11-02 16:02:29,3,DF:DC:EF:28:D6:3E,49,49,25444.203378929687,-1125.5788837826353,-26792.86404227898
56655,14359,-27173,10495,-28698,5395,-1549,-450,-1559,16616,49,-1,37837,2020-11-02 16:01:59,2020-11-02 16:02:29,3,DF:DC:EF:28:D6:3E,49,49,18732.886553153832,24364.559741285462,10495.0
56656,-8681,-796,4092,-16896,-1506,26359,9528,-4378,-32018,49,-1,37863,2020-11-02 16:01:59,2020-11-02 16:02:29,3,DF:DC:EF:28:D6:3E,49,49,1251.8065841830594,-9423.153037418851,1541.1061317053422
56657,17170,13552,2542,22031,8222,-12040,-20689,23780,32249,49,-1,37888,2020-11-02 16:01:59,2020-11-02 16:02:29,3,DF:DC:EF:28:D6:3E,49,49,-14754.051511112499,3843.8922989135435,15889.299040605665
56658,-243,-30214,-19216,25104,-7912,20216,-10971,-2845,-28922,49,-1,37914,2020-11-02 16:01:59,2020-11-02 16:02:29,3,DF:DC:EF:28:D6:3E,49,49,31090.739340234784,-9450.451207006932,15041.75522542361
56659,-22518,29688,-22789,14353,-3312,-1036,5408,27877,24335,49,-1,37940,2020-11-02 16:01:59,2020-11-02 16:02:29,3,DF:DC:EF:28:D6:3E,49,49,1573.8948202028278,-43596.95645016381,-2145.7941134830744
56660,-6900,-11029,-3835,13596,32010,-16145,-225,-16409,16147,49,-1,37965,2020-11-02 16:01:59,2020-11-02 16:02:29,3,DF:DC:EF:28:D6:3E,49,49,7382.543027686952,10371.513712096763,-4678.2291269389125
56661,-9727,-11302,17400,-11215,6408,21741,11812,27114,-24043,49,-1,37991,2020-11-02 16:01:59,2020-11-02 16:02:29,3,DF:DC:EF:28:D6:3E,49,49,-4407.071392293496,22112.609754689023,4089.0028833518854
56662,-24583,-23859,20195,26430,-25595,-29456,-30421,-25620,-14825,49,-1,38016,2020-11-02 16:01:59,2020-11-02 16:02:29,3,DF:DC:EF:28:D6:3E,49,49,-25048.50328784016,8066.4609928885975,29814.736039235147
56663,-17417,-24898,-3112,-1209,-10753,-22303,9780,15855,-20198,49,-1,38042,2020-11-02 16:01:59,2020-11-02 16:02:29,3,DF:DC:EF:28:D6:3E,49,49,11669.242469599869,12606.714435717908,25255.620529338583
56664,-7468,-9519,-12089,10557,29178,32736,7228,-13326,16671,49,-1,38068,2020-11-02 16:01:59,2020-11-02 16:02:29,3,DF:DC:EF:28:D6:3E,49,49,-11369.108497045274,12756.30510597444,-739.1603518205229
56665,23508,25584,-31781,-2009,-16895,-15110,15170,26612,-23775,49,-1,38093,2020-11-02 16:01:59,2020-11-02 16:02:29,3,DF:DC:EF:28:D6:3E,49,49,14281.235359184524,-44458.10298468302,-6059.907311081279
56666,-13334,-18953,-30753,-29657,-27386,13834,6076,-4109,-23264,49,1,38119,2020-11-02 16:01:59,2020-11-02 16:02:29,3,DF:DC:EF:28:D6:3E,49,49,-3118.7450456907463,-20312.496192234354,-32564.316387426967
56667,-30728,27138,17097,22044,32528,-12015,6595,6899,-29411,49,1,38144,2020-11-02 16:01:59,2020-11-02 16:02:29,3,DF:DC:EF:28:D6:3E,49,49,2681.4797596090284,10038.104226850097,43186.045973551474
56668,-2564,18176,-10787,-2817,25871,15122,13511,19954,-8424,49,1,38170,2020-11-02 16:01:59,2020-11-02 16:02:29,3,DF:DC:EF:28:D6:3E,49,49,4862.771350421039,-3418.7796997806036,-20444.21290140299
56669,23037,1272,-3345,-31242,28162,5135,-16185,-526,-11755,49,1,38196,2020-11-02 16:01:59,2020-11-02 16:02:29,3,DF:DC:EF:28:D6:3E,49,49,-12833.820016446753,-19461.449991249978,235.38484132792428
56670,18432,3831,-28169,23034,-11263,-28402,-13113,12532,-32493,49,1,38221,2020-11-02 16:01:59,2020-11-02 16:02:29,3,DF:DC:EF:28:D6:3E,49,49,26039.943401249955,-7889.398106051259,-20188.771413435086
56671,4352,2552,20211,510,7683,9998,27592,12533,14609,49,1,38247,2020-11-02 16:01:59,2020-11-02 16:02:29,3,DF:DC:EF:28:D6:3E,49,49,-5908.094612944053,-19837.76099736541,2344.0959144005014
56672,-14600,10471,-22046,-18436,-17147,17169,11465,14838,-18930,49,1,38272,2020-11-02 16:01:59,2020-11-02 16:02:29,3,DF:DC:EF:28:D6:3E,49,49,-20630.682113585197,-18788.323786630182,5495.6166002498885
56673,9988,-19998,-17184,-21515,-31477,-29669,-25143,-24585,-17398,49,1,38298,2020-11-02 16:01:59,2020-11-02 16:02:29,3,DF:DC:EF:28:D6:3E,49,49,13066.901443027404,-24477.41579421737,-5008.213924664785
56674,5133,-26661,-18972,18928,-27377,-15333,13257,-10248,-20987,49,1,38324,2020-11-02 16:01:59,2020-11-02 16:02:29,3,DF:DC:EF:28:D6:3E,49,49,-12363.819572999564,-30395.04239884872,-4513.397516118141
56675,21255,-16419,30181,29937,4115,-28907,26824,3833,-6912,49,1,38349,2020-11-02 16:01:59,2020-11-02 16:02:29,3,DF:DC:EF:28:D6:3E,49,49,39735.025029923665,254.22819236582654,-7301.677950823798
56676,-30211,7395,4835,-18192,-22763,30742,-15673,-29448,9468,49,1,38375,2020-11-02 16:01:59,2020-11-02 16:02:29,3,DF:DC:EF:28:D6:3E,49,49,-10266.54678219325,-13547.885969486993,26491.89638223008
56677,-23293,-20251,23272,19180,-29162,-7652,-4154,11768,-28170,49,1,38400,2020-11-02 16:01:59,2020-11-02 16:02:29,3,DF:DC:EF:28:D6:3E,49,49,-4841.825374732674,36587.68289338672,11495.695782925508
56678,-15343,16105,13556,3051,18968,24347,-2363,-32265,31472,49,1,38426,2020-11-02 16:01:59,2020-11-02 16:02:29,3,DF:DC:EF:28:D6:3E,49,49,17896.287768367998,-3723.389375007133,18558.09973229603
56679,-29677,-11028,-23042,-12563,-31208,3602,11717,-3083,15339,49,1,38452,2020-11-02 16:01:59,2020-11-02 16:02:29,3,DF:DC:EF:28:D6:3E,49,49,-10874.647446888044,-37614.150358906445,-438.8766153143624
56680,20246,17645,-1035,20975,-29416,-25594,-21308,30963,20455,49,1,38477,2020-11-02 16:01:59,2020-11-02 16:02:29,3,DF:DC:EF:28:D6:3E,49,49,-4590.960450201688,18446.961213648858,18998.696537573796
56681,-18671,29164,29683,24817,-27117,7419,26051,-32016,-30747,49,1,38503,2020-11-02 16:01:59,2020-11-02 16:02:29,3,DF:DC:EF:28:D6:3E,49,49,-16045.170020873695,-42250.24599307365,6139.613874342571
56682,6415,19947,-12817,-12557,26641,-11021,14273,28397,-8731,49,-1,38528,2020-11-02 16:01:59,2020-11-02 16:02:29,3,DF:DC:EF:28:D6:3E,49,49,-9041.161117540567,20287.64045859499,-10487.114630319073
56683,-28405,-25110,24302,-8203,12559,1776,-15171,-28182,14312,49,-1,38554,2020-11-02 16:01:59,2020-11-02 16:02:29,3,DF:DC:EF:28:D6:3E,49,49,-41327.38738490311,12091.150123483083,13183.113047742023
56684,-20982,-11797,8943,-13578,19981,20718,17221,18408,-24340,49,-1,38580,2020-11-02 16:01:59,2020-11-02 16:02:29,3,DF:DC:EF:28:D6:3E,49,49,-20490.809271800477,7788.021140228593,13374.013761995608
56685,9225,1262,8944,-8,-1014,-18450,-25026,6119,-12302,49,-1,38605,2020-11-02 16:01:59,2020-11-02 16:02:29,3,DF:DC:EF:28:D6:3E,49,49,-7266.419374956323,2370.325185851035,-10405.244494031826
56686,-30968,-28689,-11280,-13573,32011,-22798,14648,-22810,4089,49,-1,38631,2020-11-02 16:01:59,2020-11-02 16:02:29,3,DF:DC:EF:28:D6:3E,49,49,33677.02528708731,22195.71156829466,16808.405658775388
56687,9227,6385,-20750,-14849,14605,-30475,-15310,30950,-11778,49,-1,38656,2020-11-02 16:01:59,2020-11-02 16:02:29,3,DF:DC:EF:28:D6:3E,49,49,-19532.852127911803,9044.51661999665,9650.526455056006
56688,13581,14833,20726,-17915,20241,8438,20269,24294,25605,49,-1,38682,2020-11-02 16:01:59,2020-11-02 16:02:29,3,DF:DC:EF:28:D6:3E,49,49,-16639.001593580888,7675.396658870535,22321.7480968183
56689,3341,-10257,3832,-26100,5908,26867,-4569,-3610,1549,49,-1,38708,2020-11-02 16:01:59,2020-11-02 16:02:29,3,DF:DC:EF:28:D6:3E,49,49,3341.0,-10257.0,3832.0
56690,5128,-23569,-19463,31505,-23788,-30482,4132,-13080,9492,49,-1,38735,2020-11-02 16:01:59,2020-11-02 16:02:29,3,DF:DC:EF:28:D6:3E,49,49,28241.708238992323,361.9789188349041,12762.34308447913
56691,14592,-22544,15101,13334,-23789,-18965,-24542,-22293,-25831,49,-1,38759,2020-11-02 16:01:59,2020-11-02 16:02:29,3,DF:DC:EF:28:D6:3E,49,49,4455.299015728285,-10218.180834880366,28721.72857099889
56692,2043,-13070,-7171,4637,20752,-16662,-25821,-13074,-22499,49,-1,38785,2020-11-02 16:01:59,2020-11-02 16:02:29,3,DF:DC:EF:28:D6:3E,49,49,-1871.59787224718,-14378.162232780813,4023.376966235608
56693,-1803,13298,5114,23332,8717,29675,-17370,-9999,-14048,49,-1,38810,2020-11-02 16:01:59,2020-11-02 16:02:29,3,DF:DC:EF:28:D6:3E,49,49,-13339.223798832112,754.3265858974455,-5266.56518486948
56694,-6668,13048,17899,27432,23562,19440,16427,-1037,-24797,49,-1,38836,2020-11-02 16:01:59,2020-11-02 16:02:29,3,DF:DC:EF:28:D6:3E,49,49,20785.19546033562,9141.236272267892,4415.900597864193
56695,20468,-15874,-17438,-3038,-1532,-16141,3888,27637,-11483,49,-1,38861,2020-11-02 16:01:59,2020-11-02 16:02:29,3,DF:DC:EF:28:D6:3E,49,49,-14358.591900771164,6771.093960892098,26888.47093458234
56696,-10508,-258,-14363,-17640,9458,23024,18740,-15369,31270,49,-1,38887,2020-11-02 16:01:59,2020-11-02 16:02:29,3,DF:DC:EF:28:D6:3E,49,49,-229.2353516657863,8820.858794146276,-15457.046881189142
56697,27883,-21763,-22307,-12783,-25102,6126,28983,-28677,-10714,49,-1,38913,2020-11-02 16:01:59,2020-11-02 16:02:29,3,DF:DC:EF:28:D6:3E,49,49,-11386.879739917666,-33281.98831136914,-22612.8355327354
56698,-12562,-7170,-23345,-2032,-32760,15867,826,-1540,-1753,49,-1,38938,2020-11-02 16:01:59,2020-11-02 16:02:29,3,DF:DC:EF:28:D6:3E,49,49,-12562.0,-7170.0,-23345.0
56699,11251,-18949,-8229,-19695,26116,-23038,-15044,-30981,-26328,49,-1,38964,2020-11-02 16:01:59,2020-11-02 16:02:29,3,DF:DC:EF:28:D6:3E,49,49,-15337.340284664402,17141.419514863508,-4929.88569927001
56700,9456,20718,22761,-22766,-9234,-29186,-22721,1533,5928,49,-1,38989,2020-11-02 16:01:59,2020-11-02 16:02:29,3,DF:DC:EF:28:D6:3E,49,49,19665.395543757615,-1389.5411478367423,-25456.943542107067
56701,-23570,18658,-26,17692,25066,-1019,-28861,28928,3879,49,-1,39015,2020-11-02 16:01:59,2020-11-02 16:02:29,3,DF:DC:EF:28:D6:3E,49,49,-23835.543731680904,5317.501087514116,-17528.764280445248
56702,9463,12764,1498,-11230,3073,-3565,1980,-1535,-11228,49,-1,39041,2020-11-02 16:01:59,2020-11-02 16:02:29,3,DF:DC:EF:28:D6:3E,49,49,15853.416370518198,-1066.4212971361894,1498.0
56703,-29702,-17441,14036,-2529,3603,-10206,3521,513,1056,49,-1,39066,2020-11-02 16:01:59,2020-11-02 16:02:29,3,DF:DC:EF:28:D6:3E,49,49,-29702.0,-17441.0,14036.0
56704,15617,14826,18388,-3053,-26099,-6617,-17980,5377,-27623,49,-1,39092,2020-11-02 16:01:59,2020-11-02 16:02:29,3,DF:DC:EF:28:D6:3E,49,49,-1063.7242866243755,19716.773528368096,-20296.22726698458
56705,18180,16116,28125,24582,1040,-19928,-2875,20226,13843,49,-1,39117,2020-11-02 16:01:59,2020-11-02 16:02:29,3,DF:DC:EF:28:D6:3E,49,49,-8816.08699310991,-19463.21363319136,-30409.100713415915
56706,30725,-4878,-6943,24059,-18664,301,1733,-12286,-13045,49,-1,39143,2020-11-02 16:01:59,2020-11-02 16:02:29,3,DF:DC:EF:28:D6:3E,49,49,-1741.8928360343857,7915.718773016979,30827.47092536588
56707,-23035,-20244,-14618,17901,-29412,-725,9410,-6911,-16125,49,-1,39169,2020-11-02 16:01:59,2020-11-02 16:02:29,3,DF:DC:EF:28:D6:3E,49,49,-2312.4371802475434,-8327.43601363352,-32854.57546105639
56708,21513,-20761,-26642,-7198,22807,12068,1982,-10497,-11268,49,-1,39194,2020-11-02 16:01:59,2020-11-02 16:02:29,3,DF:DC:EF:28:D6:3E,49,49,923.1884598288325,-39862.56595342338,3707.831263233298
56709,25866,32743,23280,23522,-17900,-16357,-4679,2557,-13833,49,-1,39220,2020-11-02 16:01:59,2020-11-02 16:02:29,3,DF:DC:EF:28:D6:3E,49,49,19009.07157242491,-37145.78311133617,23280.0
56710,-13811,1256,25064,25569,26390,13331,-10942,30713,30196,49,-1,39245,2020-11-02 16:01:59,2020-11-02 16:02:29,3,DF:DC:EF:28:D6:3E,49,49,16367.649598603093,21412.48376196424,-9702.110015917457
56711,32269,-16158,-28697,10209,22294,-17911,-15810,-24843,8179,49,1,39271,2020-11-02 16:01:59,2020-11-02 16:02:29,3,DF:DC:EF:28:D6:3E,49,49,15793.955166029138,-11252.686873783841,-41830.79191617144
56712,-14346,8417,10744,20714,-12780,-18427,-24518,16626,-25101,49,1,39297,2020-11-02 16:01:59,2020-11-02 16:02:29,3,DF:DC:EF:28:D6:3E,49,49,6803.020665421822,12979.94974687449,13316.416762570047
56713,21518,12017,6387,5367,-1254,-24304,12601,4590,27123,49,1,39322,2020-11-02 16:01:59,2020-11-02 16:02:29,3,DF:DC:EF:28:D6:3E,49,49,-22245.017734828307,-9219.956468024695,8269.097333137619
56714,-10475,18417,17911,26872,-28914,15369,-5577,-28438,31475,49,1,39348,2020-11-02 16:01:59,2020-11-02 16:02:29,3,DF:DC:EF:28:D6:3E,49,49,23447.786095972202,-14339.772740219169,-3779.9047549376055
56715,-24794,-17166,11266,-5379,278,4613,-16075,-27929,11509,49,1,39374,2020-11-02 16:01:59,2020-11-02 16:02:29,3,DF:DC:EF:28:D6:3E,49,49,-25994.2414851172,15015.79476072311,11625.922127610025
56716,-30689,-27667,-30720,27146,-3573,20458,22320,-7450,10748,49,1,39399,2020-11-02 16:01:59,2020-11-02 16:02:29,3,DF:DC:EF:28:D6:3E,49,49,-47706.79878646551,-15581.199292327621,-11501.46026209119
56717,25337,-30991,-17154,-4592,-31988,26856,-21204,-30743,-10238,49,1,39425,2020-11-02 16:01:59,2020-11-02 16:02:29,3,DF:DC:EF:28:D6:3E,49,49,38727.89699515425,-8010.916727832913,-18238.436706923356
56718,-2319,-27912,24563,-14320,14618,5632,1578,-18455,26377,49,1,39450,2020-11-02 16:01:59,2020-11-02 16:02:29,3,DF:DC:EF:28:D6:3E,49,49,-20358.75644884669,19130.366944643683,-24644.44299268757
56719,-3310,7154,8445,22546,17159,28923,-28120,-18968,3854,49,1,39476,2020-11-02 16:01:59,2020-11-02 16:02:29,3,DF:DC:EF:28:D6:3E,49,49,3291.8134683130656,-11067.363536533734,-362.31124746029036
56720,271,12276,-2573,-29418,31742,28903,-8150,9707,15887,49,1,39502,2020-11-02 16:01:59,2020-11-02 16:02:29,3,DF:DC:EF:28:D6:3E,49,49,-19.262056287967425,-10693.656502671556,-6560.433337521075
56721,-250,-19721,-6170,-21996,-2043,8163,10796,-8978,9234,49,1,39527,2020-11-02 16:01:59,2020-11-02 16:02:29,3,DF:DC:EF:28:D6:3E,49,49,13584.715197404366,11045.146046795144,-10977.682032668676
56722,31490,-29701,-6940,-9200,-12029,-5406,7469,-23822,16917,49,1,39553,2020-11-02 16:01:59,2020-11-02 16:02:29,3,DF:DC:EF:28:D6:3E,49,49,26899.59871233218,-34247.58880302034,-5044.536777022513
56723,6143,22270,5609,-30962,24837,25062,13870,2806,536,49,1,39578,2020-11-02 16:01:59,2020-11-02 16:02:29,3,DF:DC:EF:28:D6:3E,49,49,6143.0,-14367.839316970112,17915.88608921501
56724,-17668,-11778,-1301,-16370,-5369,27624,29999,-17928,-3558,49,1,39604,2020-11-02 16:01:59,2020-11-02 16:02:29,3,DF:DC:EF:28:D6:3E,49,49,15949.427971887877,-4588.533701722622,-13309.140274176849
56725,-26888,-2562,2539,8463,-23546,20969,4401,7931,-7651,49,1,39630,2020-11-02 16:01:59,2020-11-02 16:02:29,3,DF:DC:EF:28:D6:3E,49,49,-8850.817509182847,9042.541689613696,23997.29939411393
56726,-4620,23296,-1559,-7155,4359,5614,-4558,-260,-26336,49,1,39655,2020-11-02 16:01:59,2020-11-02 16:02:29,3,DF:DC:EF:28:D6:3E,49,49,-14610.63740230361,-18723.70931996133,-1559.0
56727,-12556,24576,-7954,5134,5639,-30478,-10188,254,-1758,49,-1,39681,2020-11-02 16:01:59,2020-11-02 16:02:29,3,DF:DC:EF:28:D6:3E,49,49,-12556.0,6585.409255853394,-24977.555463514047
56728,-3340,-16899,-4370,-9710,-12281,23029,19767,26878,6181,49,-1,39706,2020-11-02 16:01:59,2020-11-02 16:02:29,3,DF:DC:EF:28:D6:3E,49,49,-14210.945539265307,9973.082177832937,-3796.7564781305728
56729,-24590,-21512,8169,22295,32520,24314,-28102,8958,-14042,49,-1,39732,2020-11-02 16:01:59,2020-11-02 16:02:29,3,DF:DC:EF:28:D6:3E,49,49,20263.946383057726,25344.641336485583,9010.462669001417
56730,-16146,-1034,-12836,-18922,8,-22273,16702,19197,-23001,49,-1,39759,2020-11-02 16:01:59,2020-11-02 16:02:29,3,DF:DC:EF:28:D6:3E,49,49,-20012.964815701147,4656.702848697,-2078.876106083565
56731,-21522,27120,-9248,22293,19717,1542,-24255,20732,27431,49,-1,39783,2020-11-02 16:01:59,2020-11-02 16:02:29,3,DF:DC:EF:28:D6:3E,49,49,-24496.65880814385,-11950.28413369407,-23266.301905575114
56732,24817,-7958,-4918,25114,-11520,3597,-7611,-1797,-9179,49,-1,39809,2020-11-02 16:01:59,2020-11-02 16:02:29,3,DF:DC:EF:28:D6:3E,49,49,6308.282792320815,-25441.89953992084,4039.2193568417288
56733,17648,-7957,29121,11278,5118,3857,-11332,23292,27939,49,-1,39835,2020-11-02 16:01:59,2020-11-02 16:02:29,3,DF:DC:EF:28:D6:3E,49,49,33927.04064559005,8369.664666764347,-1304.9982369326426
56734,-22546,9701,26577,-17145,26355,-13548,-25666,23806,-13792,49,-1,39860,2020-11-02 16:01:59,2020-11-02 16:02:29,3,DF:DC:EF:28:D6:3E,49,49,-33346.722184912454,-9293.719553667517,-10506.72843372502
56735,14069,-7192,-8754,-24567,-5129,-18918,11712,7681,-25571,49,-1,39886,2020-11-02 16:01:59,2020-11-02 16:02:29,3,DF:DC:EF:28:D6:3E,49,49,-11664.617172370468,-3251.1697080584036,-13403.758530779472
56736,28152,6389,-13357,22532,-11779,20253,-12608,-1278,-26087,49,-1,39911,2020-11-02 16:01:59,2020-11-02 16:02:29,3,DF:DC:EF:28:D6:3E,49,49,-7197.483486279674,30982.206029040386,-251.02796422909978
56737,14331,-17925,20442,-24576,-32513,-994,21696,-22012,15381,49,-1,39937,2020-11-02 16:01:59,2020-11-02 16:02:29,3,DF:DC:EF:28:D6:3E,49,49,-8945.835966867106,-16163.56074489658,24561.55273796722
56738,-25346,30457,14047,-9733,20743,26659,-12866,23045,1040,49,-1,39962,2020-11-02 16:01:59,2020-11-02 16:02:29,3,DF:DC:EF:28:D6:3E,49,49,41950.47225073238,98.31675390403507,2741.34743446248
56739,10759,-8975,739,31986,29962,1318,-69,-13052,-2039,49,-1,39988,2020-11-02 16:01:59,2020-11-02 16:02:29,3,DF:DC:EF:28:D6:3E,49,49,-5149.294612834884,-8975.0,9475.598503009172
56740,18448,24042,13545,2282,18440,29728,-11196,22787,32004,49,-1,40014,2020-11-02 16:01:59,2020-11-02 16:02:29,3,DF:DC:EF:28:D6:3E,49,49,17688.4177688349,26178.390101097477,10179.649382465359
56741,-27628,-28701,-8474,-15389,-25595,-24554,-23488,-23039,-24832,49,-1,40039,2020-11-02 16:01:59,2020-11-02 16:02:29,3,DF:DC:EF:28:D6:3E,49,49,-22850.427999480573,-12055.665698035034,31486.208501783378
56742,-1006,-14881,-4889,31969,-16634,-1009,14908,-18177,22270,49,-1,40065,2020-11-02 16:01:59,2020-11-02 16:02:29,3,DF:DC:EF:28:D6:3E,49,49,-4093.4135443789173,-10162.272619823747,11239.693000926485
56743,16913,3297,21228,-27421,-25330,31243,312,6141,32509,49,-1,40090,2020-11-02 16:01:59,2020-11-02 16:02:29,3,DF:DC:EF:28:D6:3E,49,49,10820.701670105005,-24956.564050971814,-2762.261417087082
56744,23052,12515,9194,14057,-2538,-8954,13108,-4103,30462,49,-1,40116,2020-11-02 16:01:59,2020-11-02 16:02:29,3,DF:DC:EF:28:D6:3E,49,49,-6471.85556270757,-25953.89578771779,7553.803281508979
56745,13,-19488,-9751,-27923,-32481,5379,19504,-26634,31489,49,-1,40142,2020-11-02 16:01:59,2020-11-02 16:02:29,3,DF:DC:EF:28:D6:3E,49,49,21299.597127142522,861.3564271178129,-4522.116907697637
56746,8464,-25381,-20237,-20746,7206,18170,-9173,10484,-4858,49,-1,40167,2020-11-02 16:01:59,2020-11-02 16:02:29,3,DF:DC:EF:28:D6:3E,49,49,13344.004132733786,-30742.261144796656,-1490.489654680462
56747,24590,-22303,26361,16644,-2774,1783,-3545,-24589,20238,49,1,40219,2020-11-02 16:01:59,2020-11-02 16:02:29,3,DF:DC:EF:28:D6:3E,49,49,-690.7755721145513,22626.921245591067,-35840.472849207625
56748,-16370,-29467,-11525,25357,-23257,-10772,-22747,-12300,-3819,49,1,40221,2020-11-02 16:01:59,2020-11-02 16:02:29,3,DF:DC:EF:28:D6:3E,49,49,-7343.6611824109095,27545.700804435353,-21363.792304515613
56749,-23302,-25622,24324,-25323,30490,-26144,2854,16376,-12773,49,1,40244,2020-11-02 16:01:59,2020-11-02 16:02:29,3,DF:DC:EF:28:D6:3E,49,49,-36537.6487913807,-18266.60534376504,11066.092987719343
56750,7392,21996,16899,25885,-21760,-3109,21289,23805,-27618,49,1,40270,2020-11-02 16:01:59,2020-11-02 16:02:29,3,DF:DC:EF:28:D6:3E,49,49,14702.678633428568,19939.97597148946,14500.7061986148
56751,-1563,18926,-30235,-14296,-744,-10514,-11730,-31488,-27871,49,1,40295,2020-11-02 16:01:59,2020-11-02 16:02:29,3,DF:DC:EF:28:D6:3E,49,49,29957.13056624159,19424.91467597139,186.24733121543431
56752,4589,20981,-9772,29485,-14808,7683,-14539,20989,-26330,49,1,40321,2020-11-02 16:01:59,2020-11-02 16:02:29,3,DF:DC:EF:28:D6:3E,49,49,17686.697035164925,6473.7031732631895,14213.556247849107
56753,27129,-18948,-6703,10016,-25341,-30211,-30149,-5638,8744,49,1,40347,2020-11-02 16:01:59,2020-11-02 16:02:29,3,DF:DC:EF:28:D6:3E,49,49,13771.928355474352,23397.117320427937,-20071.084785477153
56754,-14864,-2310,-3880,11799,-12810,-21004,22335,-27652,2601,49,1,40372,2020-11-02 16:01:59,2020-11-02 16:02:29,3,DF:DC:EF:28:D6:3E,49,49,12376.058552069682,2834.4282984193137,8951.434909379761
56755,-8190,-20499,-32301,8741,13570,8446,4932,6141,-24535,49,1,40398,2020-11-02 16:01:59,2020-11-02 16:02:29,3,DF:DC:EF:28:D6:3E,49,49,36172.38216354204,-10520.027830326544,-10560.65741627011
56756,-23558,13567,1746,15635,-14069,25855,30395,-5126,-6359,49,1,40423,2020-11-02 16:01:59,2020-11-02 16:02:29,3,DF:DC:EF:28:D6:3E,49,49,-8081.2274854930165,22807.315405800357,-12514.451458536007
56757,31221,-2822,31720,7173,-16897,-18427,2749,21754,24105,49,-1,40449,2020-11-02 16:01:59,2020-11-02 16:02:29,3,DF:DC:EF:28:D6:3E,49,49,15141.561282048537,21848.559222904318,-35808.46976380324
56758,-19202,15093,-17676,9989,-30471,-7670,-67,26107,4904,49,-1,40475,2020-11-02 16:01:59,2020-11-02 16:02:29,3,DF:DC:EF:28:D6:3E,49,49,25928.505714886014,15093.0,-2978.316872517633
56759,8195,29426,-12815,-9205,5637,-20978,-12353,764,7206,49,-1,40500,2020-11-02 16:01:59,2020-11-02 16:02:29,3,DF:DC:EF:28:D6:3E,49,49,24537.405264300618,-6016.388842543901,-21424.064371420878
56760,31746,26355,12529,-9969,-32496,13586,-19262,507,-4062,49,-1,40526,2020-11-02 16:01:59,2020-11-02 16:02:29,3,DF:DC:EF:28:D6:3E,49,49,31746.0,-24323.159666922664,-16122.833802324782
56761,22787,-25355,-17173,30478,32010,14865,-1851,28666,28959,49,-1,40551,2020-11-02 16:01:59,2020-11-02 16:02:29,3,DF:DC:EF:28:D6:3E,49,49,-17808.749181964864,-29181.746923753097,16979.67673578895
56762,-17921,20982,21736,-11256,-19964,-29170,17864,763,-6372,49,-1,40577,2020-11-02 16:01:59,2020-11-02 16:02:29,3,DF:DC:EF:28:D6:3E,49,49,-29742.926958518023,2199.5149143111457,-18557.496896995148
56763,-14598,26100,-29465,4611,19203,23823,29897,3324,-15078,49,-1,40603,2020-11-02 16:01:59,2020-11-02 16:02:29,3,DF:DC:EF:28:D6:3E,49,49,-12884.958890264686,21951.051759712165,-33386.029863381875
56764,30971,-19986,-15901,5375,7938,-17134,-11575,-29443,-30952,49,-1,40628,2020-11-02 16:01:59,2020-11-02 16:02:29,3,DF:DC:EF:28:D6:3E,49,49,15124.65583366577,29477.922488852822,-22666.753399072055
56765,24066,4332,6112,-19718,-8954,-31210,29385,11775,-24555,49,-1,40679,2020-11-02 16:01:59,2020-11-02 16:02:29,3,DF:DC:EF:28:D6:3E,49,49,2619.209594235601,-13879.113665690793,-20875.94474404211
56766,5383,-16150,-26655,-15881,27406,-10477,24008,-8193,-3055,49,-1,40681,2020-11-02 16:01:59,2020-11-02 16:02:29,3,DF:DC:EF:28:D6:3E,49,49,-22037.15442316681,-9616.226035485493,20547.024985723612
56767,-7425,-2329,11743,-29192,-31220,9483,12231,28159,-7154,49,-1,40705,2020-11-02 16:01:59,2020-11-02 16:02:29,3,DF:DC:EF:28:D6:3E,49,49,-2683.1339563851398,-13790.23233349509,-1040.7686391891343
56768,19193,18664,31443,9208,-12025,-18936,8646,1791,-3316,49,-1,40731,2020-11-02 16:01:59,2020-11-02 16:02:29,3,DF:DC:EF:28:D6:3E,49,49,19193.0,-16374.169938591729,32693.9398638665
56769,-14340,8933,-5680,27125,-19191,-10232,-16700,-18178,11787,49,-1,40757,2020-11-02 16:01:59,2020-11-02 16:02:29,3,DF:DC:EF:28:D6:3E,49,49,1830.5717354109547,17344.154208892676,3677.7453554678013
56770,-12285,19176,30676,26611,-19704,23558,7875,-3075,31753,49,-1,40783,2020-11-02 16:01:59,2020-11-02 16:02:29,3,DF:DC:EF:28:D6:3E,49,49,-18302.20954012141,7397.200624142176,32710.36113948728
56771,-16119,1771,-8740,13806,24580,9221,-7744,30205,28936,49,-1,40807,2020-11-02 16:01:59,2020-11-02 16:02:29,3,DF:DC:EF:28:D6:3E,49,49,-5741.936641700397,-3142.817900695696,-17219.148098723268
56772,7445,-786,-7199,28139,27396,-21501,3006,-3076,-27641,49,-1,40833,2020-11-02 16:01:59,2020-11-02 16:02:29,3,DF:DC:EF:28:D6:3E,49,49,-4271.529996017559,6148.158463566325,-7199.0
56773,-12007,-8465,-28951,-13847,-8954,3072,-6470,-4357,14599,49,-1,40859,2020-11-02 16:01:59,2020-11-02 16:02:29,3,DF:DC:EF:28:D6:3E,49,49,31307.273856868356,1123.3100922946214,-8519.240170789672
56774,-13796,19691,-9996,32230,-763,-21765,-7869,-10246,-26105,49,1,40884,2020-11-02 16:01:59,2020-11-02 16:02:29,3,DF:DC:EF:28:D6:3E,49,49,-8897.832627508566,6893.899138290868,-23479.519633159372
56775,3859,-8477,512,28387,-10488,248,-24513,-9735,-9208,49,1,40910,2020-11-02 16:01:59,2020-11-02 16:02:29,3,DF:DC:EF:28:D6:3E,49,49,8531.942090334918,-3749.6186757146893,-399.84741327542065
56776,517,-30244,-29424,13534,31757,15353,23098,-31496,-19958,49,1,40935,2020-11-02 16:01:59,2020-11-02 16:02:29,3,DF:DC:EF:28:D6:3E,49,49,-40485.050056113934,-3246.379794511344,11452.52553735362
56777,26627,-16159,-5598,-32279,16397,24316,25909,11255,-24308,49,1,40961,2020-11-02 16:01:59,2020-11-02 16:02:29,3,DF:DC:EF:28:D6:3E,49,49,-22929.893425386857,16871.20214851349,-13821.379799585653
56778,-2807,16869,21524,31745,27666,-24579,14643,-23563,-3314,49,1,40987,2020-11-02 16:01:59,2020-11-02 16:02:29,3,DF:DC:EF:28:D6:3E,49,49,6664.535103492396,-26591.698800709717,-2047.074191779804
56779,-22513,-27159,-22535,-15090,3609,-22788,18227,31731,17170,49,1,41012,2020-11-02 16:01:59,2020-11-02 16:02:29,3,DF:DC:EF:28:D6:3E,49,49,-17309.38105229336,-34430.082575869645,-16347.091986200623
56780,11020,-16399,494,-5365,28942,4848,31283,-28942,-1515,49,1,41038,2020-11-02 16:01:59,2020-11-02 16:02:29,3,DF:DC:EF:28:D6:3E,49,49,18339.7975008568,-4178.067587727857,-6066.895075732282
56781,-16637,-783,27132,4106,20744,-1054,-14542,10228,12826,49,1,41063,2020-11-02 16:01:59,2020-11-02 16:02:29,3,DF:DC:EF:28:D6:3E,49,49,-15284.392579762316,-26670.494497492313,8283.740020482242
56782,748,8173,6657,-8686,-20989,-28193,14387,32759,25118,49,1,41089,2020-11-02 16:01:59,2020-11-02 16:02:29,3,DF:DC:EF:28:D6:3E,49,49,-4372.033739916693,9402.057673903744,2039.5378088228185
56783,24548,30966,-8467,-11495,-28667,-28954,-6859,23034,3362,49,1,41115,2020-11-02 16:01:59,2020-11-02 16:02:29,3,DF:DC:EF:28:D6:3E,49,49,7136.526200096831,9606.266375144358,38600.22265641874
56784,-32032,-27911,6119,26651,18191,505,26169,-25862,-6108,49,1,41140,2020-11-02 16:01:59,2020-11-02 16:02:29,3,DF:DC:EF:28:D6:3E,49,49,37562.8238074644,-16163.737736944695,13049.2511655135
56785,2540,6129,-17183,-24034,27150,9227,-6851,22008,29221,49,1,41166,2020-11-02 16:01:59,2020-11-02 16:02:29,3,DF:DC:EF:28:D6:3E,49,49,-11980.97843937605,1203.431327611262,13938.42310575088
56786,-2041,-14092,-3370,29209,18687,-8179,11075,4087,23331,49,1,41192,2020-11-02 16:01:59,2020-11-02 16:02:29,3,DF:DC:EF:28:D6:3E,49,49,-2282.0540930267307,4667.8626488080645,-13678.82788868851
56787,-16121,-3599,-7204,2578,23543,7940,17594,4344,-735,49,1,41217,2020-11-02 16:01:59,2020-11-02 16:02:29,3,DF:DC:EF:28:D6:3E,49,49,-16121.0,4579.611533328286,6624.015036502146
56788,22781,-31247,-7703,1300,-21765,-10494,16573,6905,-24287,49,-1,41243,2020-11-02 16:01:59,2020-11-02 16:02:29,3,DF:DC:EF:28:D6:3E,49,49,-9322.762310588629,-19815.33680922005,-32789.079112372725
56789,26624,13811,30690,31767,-30717,8199,705,23545,-15328,49,-1,41268,2020-11-02 16:01:59,2020-11-02 16:02:29,3,DF:DC:EF:28:D6:3E,49,49,29465.88512444117,31196.328753840757,88.78691077402982
56790,3839,-9223,13783,-10994,-5621,-2039,-31804,-19208,-5858,49,-1,41294,2020-11-02 16:01:59,2020-11-02 16:02:29,3,DF:DC:EF:28:D6:3E,49,49,-15000.292714291145,-5942.522355793299,5426.820941995493
56791,-11017,-7691,19426,6147,10766,-1519,-28218,6392,-13541,49,-1,41320,2020-11-02 16:01:59,2020-11-02 16:02:29,3,DF:DC:EF:28:D6:3E,49,49,164.7826282234655,23607.79355463397,-734.9667796700942
56792,-28416,-3600,-1559,26111,1548,16665,3272,-27400,-27625,49,-1,41345,2020-11-02 16:01:59,2020-11-02 16:02:29,3,DF:DC:EF:28:D6:3E,49,49,-8645.041783295752,15517.001726780198,22524.33011159646
56793,-7673,-5136,-1045,7933,19978,-17383,5065,-16135,13843,49,-1,41371,2020-11-02 16:01:59,2020-11-02 16:02:29,3,DF:DC:EF:28:D6:3E,49,49,2945.9260318215556,5904.831717656227,-6542.1657118416915
56794,25608,18162,3052,18938,6921,9494,20937,-3590,25615,49,-1,41396,2020-11-02 16:01:59,2020-11-02 16:02:29,3,DF:DC:EF:28:D6:3E,49,49,-30671.95268045431,-7346.003515393322,-458.4355132412511
56795,-16634,8689,-25364,-23048,-27895,7187,-3896,-11781,4620,49,-1,41422,2020-11-02 16:01:59,2020-11-02 16:02:29,3,DF:DC:EF:28:D6:3E,49,49,29985.606413131754,8689.0,-4570.105035636669
56796,18182,15599,-9749,-11017,-5108,-6895,21960,10236,-16632,49,-1,41448,2020-11-02 16:01:59,2020-11-02 16:02:29,3,DF:DC:EF:28:D6:3E,49,49,-21029.872855515703,-12147.864249171816,-8895.547642755733
56797,28166,-15123,-21014,2039,13841,-4079,-22329,-8197,6405,49,-1,41473,2020-11-02 16:01:59,2020-11-02 16:02:29,3,DF:DC:EF:28:D6:3E,49,49,-12309.10037834551,3050.902876685357,36094.2505187855
56798,-6905,11760,12263,18935,25369,-4334,12231,-12294,-11776,49,-1,41499,2020-11-02 16:01:59,2020-11-02 16:02:29,3,DF:DC:EF:28:D6:3E,49,49,-13669.798113191036,8686.090043116496,-8605.013265967187
56799,-32763,27121,992,27381,-10200,17172,25543,11000,6651,49,-1,41524,2020-11-02 16:01:59,2020-11-02 16:02:29,3,DF:DC:EF:28:D6:3E,49,49,-4905.54780350726,-39060.71930125462,16128.939283663394
56800,-16115,-25878,6369,20202,31000,6669,5575,24053,26869,49,-1,41550,2020-11-02 16:01:59,2020-11-02 16:02:29,3,DF:DC:EF:28:D6:3E,49,49,-23319.057114793504,12591.08040620418,-16358.928433167606
56801,-26088,-29209,3552,3039,-8705,20736,20419,-12556,1780,49,-1,41576,2020-11-02 16:01:59,2020-11-02 16:02:29,3,DF:DC:EF:28:D6:3E,49,49,17802.04129111597,28415.432564573763,-20543.043762732996
56802,13594,2791,-29725,-11297,20746,-30466,16574,11252,2548,49,-1,41601,2020-11-02 16:01:59,2020-11-02 16:02:29,3,DF:DC:EF:28:D6:3E,49,49,19889.36233473399,25867.400191590314,-3384.2303771726847
56803,32533,-12314,-25111,7657,-10471,-12037,18618,-10512,244,49,-1,41627,2020-11-02 16:01:59,2020-11-02 16:02:29,3,DF:DC:EF:28:D6:3E,49,49,-1878.7949545038427,15734.43212552921,39868.41834342122
56804,23312,-24855,6377,-7184,18710,5621,-446,15085,-6667,49,-1,41652,2020-11-02 16:01:59,2020-11-02 16:02:29,3,DF:DC:EF:28:D6:3E,49,49,-23023.35880981716,-10145.267805048668,-23851.309990821417
56805,-3316,29164,-16916,-29963,-8175,9457,-3011,-3862,5626,49,-1,41678,2020-11-02 16:01:59,2020-11-02 16:02:29,3,DF:DC:EF:28:D6:3E,49,49,-3316.0,29164.0,-16916.0
56806,12813,-23825,-21004,6906,8719,10734,5944,-3607,-8449,49,1,41704,2020-11-02 16:01:59,2020-11-02 16:02:29,3,DF:DC:EF:28:D6:3E,49,49,10963.26192544563,-8187.4769614524375,-31396.555845502546
56807,-17415,15346,7686,23297,24588,-6674,-15310,25578,-5883,49,1,41729,2020-11-02 16:01:59,2020-11-02 16:02:29,3,DF:DC:EF:28:D6:3E,49,49,13671.22880405707,-20176.244998322636,-1968.0390633270667
56808,-21999,-28431,10244,-30710,-16886,21744,-5585,-15126,-8438,49,1,41755,2020-11-02 16:01:59,2020-11-02 16:02:29,3,DF:DC:EF:28:D6:3E,49,49,-24010.325381581995,-15226.675448632936,-24266.6422863271
56809,-24302,30449,-23548,-27376,-17919,-17433,17455,749,30478,49,1,41781,2020-11-02 16:01:59,2020-11-02 16:02:29,3,DF:DC:EF:28:D6:3E,49,49,-32613.04627610915,15695.621037430505,27609.30643536219
56810,18698,29933,22789,-998,780,-6422,-9681,20719,29458,49,1,41807,2020-11-02 16:01:59,2020-11-02 16:02:29,3,DF:DC:EF:28:D6:3E,49,49,28130.93898702074,29520.01133651942,10107.295206942434
56811,-27640,-6676,-14085,31779,-11758,-21260,-4047,-21521,-4074,49,1,41832,2020-11-02 16:01:59,2020-11-02 16:02:29,3,DF:DC:EF:28:D6:3E,49,49,29351.06791955954,-6676.0,10043.487291842543
56812,24080,19954,-24076,-2530,-15595,-15882,6196,30190,27163,49,1,41857,2020-11-02 16:01:59,2020-11-02 16:02:29,3,DF:DC:EF:28:D6:3E,49,49,21397.504106356442,-22713.849973567594,24163.81860130395
56813,-3063,31980,-27139,-22504,20238,14315,-25548,16366,30240,49,1,41883,2020-11-02 16:01:59,2020-11-02 16:02:29,3,DF:DC:EF:28:D6:3E,49,49,10830.071826413418,-37896.763815010614,-14668.760226550457
56814,22263,5095,7932,-23266,17675,-10518,22837,18927,32037,49,1,41909,2020-11-02 16:01:59,2020-11-02 16:02:29,3,DF:DC:EF:28:D6:3E,49,49,-12447.74417929783,20351.91393166417,3920.4696357567636
56815,30962,26352,-10526,22304,-7156,24815,-22985,-17937,-11479,49,1,41934,2020-11-02 16:01:59,2020-11-02 16:02:29,3,DF:DC:EF:28:D6:3E,49,49,5912.124680935294,35166.89808880924,-22185.718031390832
56816,-7700,20218,-18458,-29421,14345,-15883,16953,-32529,16941,49,1,41960,2020-11-02 16:01:59,2020-11-02 16:02:29,3,DF:DC:EF:28:D6:3E,49,49,-17103.50255422103,17258.36908628704,14777.48912566836
56817,-29455,-20229,6126,-17909,-15614,3326,-24518,-31505,-28626,49,1,41985,2020-11-02 16:01:59,2020-11-02 16:02:29,3,DF:DC:EF:28:D6:3E,49,49,11068.82065797563,-25951.90295264132,22766.58262406237
56818,-30220,14330,29172,25098,-14333,14083,20284,6127,-30930,49,1,42011,2020-11-02 16:01:59,2020-11-02 16:02:29,3,DF:DC:EF:28:D6:3E,49,49,6509.119279500528,-42520.97560314253,10917.915733426074
56819,20226,-29202,-3065,20241,21251,13575,-2498,18158,-22739,49,1,42037,2020-11-02 16:01:59,2020-11-02 16:02:29,3,DF:DC:EF:28:D6:3E,49,49,16130.419884520763,31796.528854720254,180.03371906149096
56820,9715,-26891,28383,27915,515,23041,-3007,-17683,23341,49,1,42062,2020-11-02 16:01:59,2020-11-02 16:02:29,3,DF:DC:EF:28:D6:3E,49,49,-11446.467084914839,27887.191989409563,-26727.976152708834
56821,2803,-10521,28644,-11262,31996,6673,-18108,-5395,-16342,49,1,42088,2020-11-02 16:01:59,2020-11-02 16:02:29,3,DF:DC:EF:28:D6:3E,49,49,11980.11948404491,-8565.391911347811,-26872.621467825295
56822,-29442,-23838,8938,18948,28671,9241,21692,-32018,-21467,49,1,42113,2020-11-02 16:01:59,2020-11-02 16:02:29,3,DF:DC:EF:28:D6:3E,49,49,23014.092172802313,-19283.33971677634,24768.403719843463
56823,29962,7139,25571,-6137,-251,-19426,-9791,12783,25631,49,-1,42139,2020-11-02 16:01:59,2020-11-02 16:02:29,3,DF:DC:EF:28:D6:3E,49,49,22712.263537252733,-12523.299751959574,-30493.98062465688
56824,16145,1512,23002,14595,777,28959,10951,27120,-12776,49,-1,42165,2020-11-02 16:01:59,2020-11-02 16:02:29,3,DF:DC:EF:28:D6:3E,49,49,-8150.654843360345,26738.660618909307,3263.4379006187473
56825,1299,5102,27360,1532,31750,27419,7626,23282,-29421,49,-1,42190,2020-11-02 16:01:59,2020-11-02 16:02:29,3,DF:DC:EF:28:D6:3E,49,49,15097.596157053722,-20406.570323401458,-11485.72518017855
56826,-17907,-28435,-5412,1273,268,9755,-26165,18420,5647,49,-1,42216,2020-11-02 16:01:59,2020-11-02 16:02:29,3,DF:DC:EF:28:D6:3E,49,49,15190.153117935646,22682.171463863313,20329.239138186524
56827,-22002,-29464,-13857,-528,18966,9756,29132,-31243,27145,49,-1,42241,2020-11-02 16:01:59,2020-11-02 16:02:29,3,DF:DC:EF:28:D6:3E,49,49,-27547.545336163737,1220.2142436956947,27997.777985966768
56828,27407,8933,30187,12012,29976,17687,12236,-1035,-32765,49,-1,42267,2020-11-02 16:01:59,2020-11-02 16:02:29,3,DF:DC:EF:28:D6:3E,49,49,37660.548099537,17440.50814254068,-4439.470641014774
56829,-10997,28130,12523,8685,-19172,11282,-16949,28661,-7683,49,-1,42293,2020-11-02 16:01:59,2020-11-02 16:02:29,3,DF:DC:EF:28:D6:3E,49,49,13998.614257197376,-22392.106103347756,-19279.232897981357
56830,-4854,24799,-24091,-7192,23329,-7923,30923,-12557,-5385,49,-1,42318,2020-11-02 16:01:59,2020-11-02 16:02:29,3,DF:DC:EF:28:D6:3E,49,49,29857.270726708903,-16066.906163607122,8326.218174048481
56831,15625,-20260,23022,-7197,31002,-8955,18122,-24335,-9230,49,-1,42344,2020-11-02 16:01:59,2020-11-02 16:02:29,3,DF:DC:EF:28:D6:3E,49,49,-1863.0642152198598,34010.7703334452,4941.376534490215
56832,-29177,-18977,11510,23268,-9456,31231,-5433,-32529,-3601,49,-1,42370,2020-11-02 16:01:59,2020-11-02 16:02:29,3,DF:DC:EF:28:D6:3E,49,49,2760.806816112172,-18977.0,31243.485316528124
56833,13067,-4892,2550,-28184,4622,-28929,23493,-22547,16110,49,-1,42395,2020-11-02 16:01:59,2020-11-02 16:02:29,3,DF:DC:EF:28:D6:3E,49,49,840.5131547035526,-14157.857005402582,-171.10128971839617
56834,-15087,14569,-15371,11244,-8946,17406,22211,-23317,-18964,49,-1,42421,2020-11-02 16:01:59,2020-11-02 16:02:29,3,DF:DC:EF:28:D6:3E,49,49,-24433.665884494967,8894.9824799386,127.39358873955462
56835,18452,748,30965,-23568,-29170,-16904,5057,20969,21484,49,1,42446,2020-11-02 16:01:59,2020-11-02 16:02:29,3,DF:DC:EF:28:D6:3E,49,49,13652.922847742622,-2701.738236904715,-33259.06404595346
56836,7439,32749,7416,31734,-3570,-14350,30141,-15642,26862,49,1,42472,2020-11-02 16:01:59,2020-11-02 16:02:29,3,DF:DC:EF:28:D6:3E,49,49,-2978.907073305527,-28540.75071421482,18957.437572563875
56837,14863,19180,-15630,-10246,29713,19441,31300,11236,32755,49,1,42497,2020-11-02 16:01:59,2020-11-02 16:02:29,3,DF:DC:EF:28:D6:3E,49,49,-12325.60049019356,8009.427870465466,-24839.619698053983
56838,-20464,29417,-13068,8186,-10227,31212,17977,-16670,22014,49,1,42523,2020-11-02 16:01:59,2020-11-02 16:02:29,3,DF:DC:EF:28:D6:3E,49,49,10801.802338797672,26014.44219273808,-25719.208242755718
56839,-18160,-24858,-28934,-17672,28940,12006,14380,11492,-6390,49,1,42549,2020-11-02 16:01:59,2020-11-02 16:02:29,3,DF:DC:EF:28:D6:3E,49,49,29737.304213441017,21527.043328009557,20908.401748370496
56840,3083,-10015,-22012,-29957,-14838,3042,-2268,-7961,-18671,49,1,42574,2020-11-02 16:01:59,2020-11-02 16:02:29,3,DF:DC:EF:28:D6:3E,49,49,-21399.49461382076,7065.81430833178,-9298.879310606748
56841,32513,-16156,4363,-6647,-20720,5865,18722,-18197,-29931,49,1,42600,2020-11-02 16:01:59,2020-11-02 16:02:29,3,DF:DC:EF:28:D6:3E,49,49,-23613.165310173023,-25610.129266202934,11121.46469682916
56842,-10234,7650,-12791,-24806,27925,-6168,-11999,1519,16666,49,1,42625,2020-11-02 16:01:59,2020-11-02 16:02:29,3,DF:DC:EF:28:D6:3E,49,49,17729.49404700951,-3140.806357195487,-1633.1911289419668
56843,-17162,31963,6661,13353,9989,8415,-24283,19443,-15588,49,1,42651,2020-11-02 16:01:59,2020-11-02 16:02:29,3,DF:DC:EF:28:D6:3E,49,49,-31816.566607079352,-7202.384850992112,-17215.350005024065
56844,-28448,30419,-31240,5940,-4099,27609,25132,-11528,15390,49,1,42677,2020-11-02 16:01:59,2020-11-02 16:02:29,3,DF:DC:EF:28:D6:3E,49,49,33666.876084693424,31028.69066730563,-24785.150295500705
56845,-10801,22984,-8219,7232,25864,20713,565,-23300,11553,49,1,42728,2020-11-02 16:01:59,2020-11-02 16:02:29,3,DF:DC:EF:28:D6:3E,49,49,-21248.790914752273,-8801.04995738429,13546.52067169896
56846,-23860,-305,31675,-5823,10524,-19699,24639,-25606,-10974,49,1,42730,2020-11-02 16:01:59,2020-11-02 16:02:29,3,DF:DC:EF:28:D6:3E,49,49,20394.192245773032,12974.142870936776,31439.573619993185
56847,-16673,7644,-10576,-9174,-26619,-16349,30652,-10761,22046,49,1,42754,2020-11-02 16:01:59,2020-11-02 16:02:29,3,DF:DC:EF:28:D6:3E,49,49,1438.0662072350833,7848.8771329919155,-19611.18390956561
56848,3055,31460,-23875,18195,27392,-6616,-19774,-27399,14104,49,1,42779,2020-11-02 16:01:59,2020-11-02 16:02:29,3,DF:DC:EF:28:D6:3E,49,49,26169.110811717157,25757.492477909374,-14859.659167508176
56849,502,-24859,13517,-2297,15107,-27608,-10299,28156,28434,49,1,42805,2020-11-02 16:01:59,2020-11-02 16:02:29,3,DF:DC:EF:28:D6:3E,49,49,12618.110713697526,17756.815829994244,-18066.818967281914
56850,21240,28384,-14884,12543,-21245,25639,-20538,23807,13,49,1,42831,2020-11-02 16:01:59,2020-11-02 16:02:29,3,DF:DC:EF:28:D6:3E,49,49,-22003.501374989173,-30200.377223470106,9061.21707062344
56851,-17149,2525,-1308,-16899,12305,6186,22470,26113,-8954,49,1,42856,2020-11-02 16:01:59,2020-11-02 16:02:29,3,DF:DC:EF:28:D6:3E,49,49,3433.1061731118407,-9631.654833400507,-14057.727311851444
56852,3856,23776,30700,22779,2084,-19927,27333,-4096,4607,49,-1,42882,2020-11-02 16:01:59,2020-11-02 16:02:29,3,DF:DC:EF:28:D6:3E,49,49,3856.0,7692.805876300157,-38060.59528895419
56853,-26861,31463,-23310,-28424,17966,-27617,-17980,-16643,247,49,-1,42907,2020-11-02 16:01:59,2020-11-02 16:02:29,3,DF:DC:EF:28:D6:3E,49,49,-5768.152518492221,-34437.64130841532,-32180.227899073965
56854,12557,-7446,21232,-1036,22830,30993,-21820,2553,29424,49,-1,42958,2020-11-02 16:01:59,2020-11-02 16:02:29,3,DF:DC:EF:28:D6:3E,49,49,13503.827592984817,-9100.275155638166,-19968.741107806884
56855,-5880,-10009,-19731,-29456,16177,28682,2757,-27917,-19478,49,-1,42960,2020-11-02 16:01:59,2020-11-02 16:02:29,3,DF:DC:EF:28:D6:3E,49,49,9565.601722589658,11473.721095053623,17347.040955670545
56856,4100,7392,-20491,32751,30261,21764,-10298,21997,3044,49,-1,42984,2020-11-02 16:01:59,2020-11-02 16:02:29,3,DF:DC:EF:28:D6:3E,49,49,-6499.14417176064,-13248.667304721319,16539.851410562253
56857,-27392,-12064,-1282,25846,-20701,-16390,9419,-4889,-30756,49,-1,43010,2020-11-02 16:01:59,2020-11-02 16:02:29,3,DF:DC:EF:28:D6:3E,49,49,-2554.062362091808,-27809.81751445152,-10844.173516845418
56858,-11009,19418,6903,23804,17936,-2320,24781,-26908,8409,49,-1,43035,2020-11-02 16:01:59,2020-11-02 16:02:29,3,DF:DC:EF:28:D6:3E,49,49,2318.239454541451,-10211.899723655846,20886.624520620964
56859,29430,31721,28406,9221,-30710,-29201,-32307,28641,20185,49,-1,43061,2020-11-02 16:01:59,2020-11-02 16:02:29,3,DF:DC:EF:28:D6:3E,49,49,50445.54791662642,11234.710031254157,-2876.727812113075
56860,4602,-14606,28671,-5887,-16128,-18683,22478,-20512,-1320,49,-1,43086,2020-11-02 16:01:59,2020-11-02 16:02:29,3,DF:DC:EF:28:D6:3E,49,49,-259.5081983321711,10413.778654261652,30790.026804714587
56861,13071,-5645,26628,-13562,-12030,14354,12245,-22046,-22318,49,-1,43112,2020-11-02 16:01:59,2020-11-02 16:02:29,3,DF:DC:EF:28:D6:3E,49,49,7460.056982210528,23148.040383493084,17896.45848279333
56862,-13575,8185,10506,20486,-24567,-28390,23259,-22299,20941,49,-1,43138,2020-11-02 16:01:59,2020-11-02 16:02:29,3,DF:DC:EF:28:D6:3E,49,49,-15496.501895804551,-418.21277224067853,11015.190105960979
56863,-6110,23532,-10984,-10226,-15362,276,23774,-6935,-3893,49,-1,43163,2020-11-02 16:01:59,2020-11-02 16:02:29,3,DF:DC:EF:28:D6:3E,49,49,5643.1306995920795,-23694.2602946248,-10884.506649264731
56864,-27367,30952,16646,22296,-25612,14838,-16929,-4887,10702,49,1,43189,2020-11-02 16:01:59,2020-11-02 16:02:29,3,DF:DC:EF:28:D6:3E,49,49,-16684.465129486918,-21809.83699937247,-35071.75419627223
56865,15628,20971,16883,12055,10487,21740,-26655,12007,21712,49,1,43214,2020-11-02 16:01:59,2020-11-02 16:02:29,3,DF:DC:EF:28:D6:3E,49,49,5823.12201369354,25922.315536767055,-16222.75319500124
56866,-17140,4332,13299,29714,7157,-28953,-6942,-29213,13266,49,1,43240,2020-11-02 16:01:59,2020-11-02 16:02:29,3,DF:DC:EF:28:D6:3E,49,49,-11693.433705338786,-6965.096889860391,17440.190896137115
56867,-9715,14828,-14349,-29937,27123,1762,4576,4831,-24617,49,1,43266,2020-11-02 16:01:59,2020-11-02 16:02:29,3,DF:DC:EF:28:D6:3E,49,49,-4871.719623735969,-17044.56385208216,-14349.0
56868,-25078,20973,-28169,-10995,-25355,16863,9007,-17441,27415,49,1,43291,2020-11-02 16:01:59,2020-11-02 16:02:29,3,DF:DC:EF:28:D6:3E,49,49,10510.663339777915,-41430.31359100687,-5943.100698177677
56869,13312,32496,10747,-32496,8697,31968,8493,-23580,-7653,49,1,43317,2020-11-02 16:01:59,2020-11-02 16:02:29,3,DF:DC:EF:28:D6:3E,49,49,16018.808259604055,-9189.27654013933,-31743.540250118385
56870,22785,19438,-4348,-14824,-10246,-26652,-17107,-17944,-18914,49,1,43342,2020-11-02 16:01:59,2020-11-02 16:02:29,3,DF:DC:EF:28:D6:3E,49,49,18415.24018518705,14789.451752692017,18922.162106288673
56871,28151,-20761,-10754,26404,28664,-22812,-6096,-12308,-12768,49,1,43368,2020-11-02 16:01:59,2020-11-02 16:02:29,3,DF:DC:EF:28:D6:3E,49,49,-9141.122296985097,28726.38960563365,20745.622704004454
56872,-5901,30698,17898,-2519,21765,7664,22581,21743,30755,49,1,43394,2020-11-02 16:01:59,2020-11-02 16:02:29,3,DF:DC:EF:28:D6:3E,49,49,-30443.223517099574,-13127.620550735057,14085.564580940088
56873,-2828,6898,-31263,8485,6151,4092,1594,7663,-19163,49,1,43419,2020-11-02 16:01:59,2020-11-02 16:02:29,3,DF:DC:EF:28:D6:3E,49,49,28529.770455207294,-2900.9094243408763,-14511.791043318923
56874,11256,22779,12511,5401,7165,-29954,-31170,21487,1574,49,1,43445,2020-11-02 16:01:59,2020-11-02 16:02:29,3,DF:DC:EF:28:D6:3E,49,49,-7560.003323699627,-5535.560677643694,-26726.567600980405
56875,-5131,-15876,4327,-22255,-12806,-12287,-11455,12784,-21723,49,1,43470,2020-11-02 16:01:59,2020-11-02 16:02:29,3,DF:DC:EF:28:D6:3E,49,49,-16941.03687515317,2571.8126198710715,-1866.685684032627
56876,-9996,29693,30689,15119,20737,29191,3653,-31760,-28380,49,1,43496,2020-11-02 16:01:59,2020-11-02 16:02:29,3,DF:DC:EF:28:D6:3E,49,49,-39854.04199218456,716.9632087482969,18290.715859213684
56877,12274,-29186,8665,-30197,19459,25868,-12869,21744,31010,49,1,43522,2020-11-02 16:01:59,2020-11-02 16:02:29,3,DF:DC:EF:28:D6:3E,49,49,16673.37795765412,14228.956545936373,-24435.44884169448
56878,-14,-28166,-17963,2310,-9212,-13295,4543,25072,18975,49,1,43547,2020-11-02 16:01:59,2020-11-02 16:02:29,3,DF:DC:EF:28:D6:3E,49,49,-9492.670071352184,29803.86798718046,11730.80512663875
56879,30711,-32020,17117,21508,-12536,-19947,-30782,-32528,-1766,49,-1,43573,2020-11-02 16:01:59,2020-11-02 16:02:29,3,DF:DC:EF:28:D6:3E,49,49,-16075.98112520619,-25496.769987941447,-36781.99506611927
56880,14076,-16689,725,14343,-32249,5659,-29754,27889,5910,49,-1,43598,2020-11-02 16:01:59,2020-11-02 16:02:29,3,DF:DC:EF:28:D6:3E,49,49,6057.177870769175,-615.0610142591663,20978.904122727734
56881,30246,10687,-27963,-9218,-13552,-21980,-4918,25331,-27889,49,-1,43624,2020-11-02 16:01:59,2020-11-02 16:02:29,3,DF:DC:EF:28:D6:3E,49,49,-8998.057603808302,-5931.745417159695,41168.084843292774
56882,13887,-16439,-6188,-21514,-248,25358,20940,-12556,-13558,49,-1,43650,2020-11-02 16:01:59,2020-11-02 16:02:29,3,DF:DC:EF:28:D6:3E,49,49,19437.590379758458,1265.9321380114143,11043.474546114157
56883,22054,11991,18651,23286,19984,24064,-15157,-2829,-3832,49,-1,43675,2020-11-02 16:01:59,2020-11-02 16:02:29,3,DF:DC:EF:28:D6:3E,49,49,22054.0,11969.289590689004,-18664.940093507503
56884,-31976,13545,-14336,7414,8471,30461,-9525,25841,2054,49,-1,43701,2020-11-02 16:01:59,2020-11-02 16:02:29,3,DF:DC:EF:28:D6:3E,49,49,35388.75573802332,-4744.933305222051,-11686.491014993166
56885,-10476,31991,-14849,-25362,23301,13555,-18742,495,1797,49,-1,43727,2020-11-02 16:01:59,2020-11-02 16:02:29,3,DF:DC:EF:28:D6:3E,49,49,-10476.0,-33766.34095842582,10185.828404176802
56886,15631,-15115,-23792,20459,13044,-17420,20677,-24594,11016,49,-1,43752,2020-11-02 16:01:59,2020-11-02 16:02:29,3,DF:DC:EF:28:D6:3E,49,49,-12178.095968586884,14943.022308837979,-25831.196504565138
56887,9235,12787,-7667,-26127,-4100,-23563,4033,-10770,-20982,49,-1,43778,2020-11-02 16:01:59,2020-11-02 16:02:29,3,DF:DC:EF:28:D6:3E,49,49,-9522.24994553183,-14273.623322990308,3628.486765609896
56888,-1781,-14096,14597,10992,6146,22773,29117,12014,-14068,49,-1,43803,2020-11-02 16:01:59,2020-11-02 16:02:29,3,DF:DC:EF:28:D6:3E,49,49,2101.8947753752655,-19434.649623594887,-5728.701280513173
56889,-17662,-26899,21516,-13331,27658,-10249,-1211,12269,-17650,49,-1,43829,2020-11-02 16:01:59,2020-11-02 16:02:29,3,DF:DC:EF:28:D6:3E,49,49,-30441.06972113905,22831.643748027676,7106.195817446875
56890,14604,2800,28422,11251,-20968,-17415,31554,10986,29200,49,-1,43855,2020-11-02 16:01:59,2020-11-02 16:02:29,3,DF:DC:EF:28:D6:3E,49,49,30418.44945218824,-3949.0273323351385,-9383.497005548552
56891,-19199,12528,1538,29685,7192,19953,-14533,10727,8214,49,-1,43880,2020-11-02 16:01:59,2020-11-02 16:02:29,3,DF:DC:EF:28:D6:3E,49,49,-7864.6990073051265,-19309.382972068182,9654.639701329988
56892,29192,-19479,-8441,-27653,-31462,-7701,-29904,-8731,14625,49,-1,43906,2020-11-02 16:01:59,2020-11-02 16:02:29,3,DF:DC:EF:28:D6:3E,49,49,-16278.84873471568,29397.054356755296,13178.280047799111
56893,17678,-10006,6668,-6905,-3050,-22554,-16858,-20505,-32468,49,-1,43931,2020-11-02 16:01:59,2020-11-02 16:02:29,3,DF:DC:EF:28:D6:3E,49,49,-15024.603957213047,-14736.884849069942,-3765.5603665524804
56894,-30198,-535,11021,-10224,-27374,4066,19747,-23317,-2766,49,-1,43957,2020-11-02 16:01:59,2020-11-02 16:02:29,3,DF:DC:EF:28:D6:3E,49,49,11424.341562598449,-1025.6376231465583,30034.985555632815
56895,17407,-7700,21259,-231,7185,-25116,-22237,-3345,1847,49,1,43983,2020-11-02 16:01:59,2020-11-02 16:02:29,3,DF:DC:EF:28:D6:3E,49,49,17407.0,10623.012475168147,-19959.62642316789
56896,5881,-14347,24322,18722,18447,14830,25382,4339,26426,49,1,44008,2020-11-02 16:01:59,2020-11-02 16:02:29,3,DF:DC:EF:28:D6:3E,49,49,17183.509159000474,-22612.096619566786,-5040.0747464619235
56897,-21256,-20227,5369,5924,31757,17912,22570,20724,22077,49,1,44034,2020-11-02 16:01:59,2020-11-02 16:02:29,3,DF:DC:EF:28:D6:3E,49,49,-22410.264609034766,-16267.161860836464,11087.59266686828
56898,23545,24322,-6158,18975,1037,-17406,32046,-11533,28479,49,1,44059,2020-11-02 16:01:59,2020-11-02 16:02:29,3,DF:DC:EF:28:D6:3E,49,49,-7743.455768067709,-10486.513476540804,31842.10421555565
56899,12794,-3847,13299,26904,-22513,-29679,9010,14321,30784,49,1,44085,2020-11-02 16:01:59,2020-11-02 16:02:29,3,DF:DC:EF:28:D6:3E,49,49,-13216.08143736806,-2101.246912571236,-13276.641098307406
56900,766,-17431,26094,-4846,13579,-30432,-10442,-7956,32318,49,1,44111,2020-11-02 16:01:59,2020-11-02 16:02:29,3,DF:DC:EF:28:D6:3E,49,49,5275.3361071579275,26371.814493401398,16187.080721431514
56901,26891,-11806,-16407,27664,-28669,-26073,18496,20969,17974,49,1,44136,2020-11-02 16:01:59,2020-11-02 16:02:29,3,DF:DC:EF:28:D6:3E,49,49,22342.852745689168,-17329.657553535304,-18225.725397405906
56902,-17900,-30744,-31007,17680,-3583,-31970,23231,4841,-23509,49,1,44162,2020-11-02 16:01:59,2020-11-02 16:02:29,3,DF:DC:EF:28:D6:3E,49,49,14251.065620515867,-11343.622569780307,43534.66366786496
56903,-9717,-24339,-21541,17164,12036,27155,-3898,15850,17957,49,1,44187,2020-11-02 16:01:59,2020-11-02 16:02:29,3,DF:DC:EF:28:D6:3E,49,49,18822.64553716845,21901.931766698814,17799.862102527142
56904,29704,20973,11489,-30208,22791,-15595,-16437,-19477,19744,49,1,44213,2020-11-02 16:01:59,2020-11-02 16:02:29,3,DF:DC:EF:28:D6:3E,49,49,25537.571730190273,-5376.740612246507,27804.937628306336
56905,-4595,20201,-5140,21496,6662,19479,-28722,-8723,-27877,49,1,44239,2020-11-02 16:01:59,2020-11-02 16:02:29,3,DF:DC:EF:28:D6:3E,49,49,3408.5969931609516,-20253.797126854923,5811.98713715174
56906,-18418,-10262,-27151,10486,13057,-496,11727,7664,-24808,49,1,44264,2020-11-02 16:01:59,2020-11-02 16:02:29,3,DF:DC:EF:28:D6:3E,49,49,-16493.74092242076,-25206.899385893747,16561.30739807376
56907,24330,9452,-15887,-25098,-18942,-29684,-12850,-16399,-8682,49,1,44290,2020-11-02 16:01:59,2020-11-02 16:02:29,3,DF:DC:EF:28:D6:3E,49,49,-19961.82352291036,-2928.236291896377,22948.573089824207
56908,13063,-21013,29427,26103,26120,30989,-12082,-11278,31508,49,1,44316,2020-11-02 16:01:59,2020-11-02 16:02:29,3,DF:DC:EF:28:D6:3E,49,49,34408.478125911286,8838.907880224071,14699.211119770931
56909,27144,6125,1008,19958,15114,12557,-1074,-21261,-26607,49,1,44341,2020-11-02 16:01:59,2020-11-02 16:02:29,3,DF:DC:EF:28:D6:3E,49,49,13022.50913801757,-24448.287875445283,2832.6490622037863
56910,5639,1008,-21267,-27404,-3319,-7670,-20786,17908,-4338,49,1,44367,2020-11-02 16:01:59,2020-11-02 16:02:29,3,DF:DC:EF:28:D6:3E,49,49,-2631.477163759849,-3999.111647982445,-21498.421057453997
56911,-24061,-12817,-8471,-12046,12044,27402,1998,-27916,22284,49,1,44392,2020-11-02 16:01:59,2020-11-02 16:02:29,3,DF:DC:EF:28:D6:3E,49,49,-7414.475723293186,14003.470654006354,23746.439951939716
56912,15617,-29718,-31511,-3601,-8943,26894,26317,-22540,-7672,49,-1,44418,2020-11-02 16:01:59,2020-11-02 16:02:29,3,DF:DC:EF:28:D6:3E,49,49,-15360.289016354964,15736.773891869854,-40452.550016163485
56913,20741,23270,4843,-275,-24554,7699,2509,-17420,9220,49,-1,44444,2020-11-02 16:01:59,2020-11-02 16:02:29,3,DF:DC:EF:28:D6:3E,49,49,-31044.55823172822,-5280.55304815732,-1867.5635738662513
56914,-20982,1508,-18965,-17427,-7399,-15085,-4660,-22284,-25346,49,-1,44469,2020-11-02 16:01:59,2020-11-02 16:02:29,3,DF:DC:EF:28:D6:3E,49,49,-16468.13139519258,16760.08543993188,15814.227688915313
56915,26636,22243,-15127,-14352,25883,22799,9421,2804,3321,49,-1,44495,2020-11-02 16:01:59,2020-11-02 16:02:29,3,DF:DC:EF:28:D6:3E,49,49,26636.0,24746.875776614084,10543.686134214691
56916,-31218,12514,-22048,6388,-14304,30987,11982,-16142,24819,49,-1,44520,2020-11-02 16:01:59,2020-11-02 16:02:29,3,DF:DC:EF:28:D6:3E,49,49,14956.180641411956,-5387.726908054399,-36939.99300738538
56917,3351,-12578,479,-12048,-6624,8705,-22833,-29456,24813,49,-1,44546,2020-11-02 16:01:59,2020-11-02 16:02:29,3,DF:DC:EF:28:D6:3E,49,49,8038.299437247899,-9846.829110725068,-2844.3671741386447
56918,-4585,-22309,-18717,-14101,-7664,-25619,-24882,21485,-18966,49,-1,44571,2020-11-02 16:01:59,2020-11-02 16:02:29,3,DF:DC:EF:28:D6:3E,49,49,212.65336035392306,-29007.49076100097,5249.766975664103
56919,-30445,-21281,-32275,9707,30983,24548,-28471,-28183,-2324,49,-1,44597,2020-11-02 16:01:59,2020-11-02 16:02:29,3,DF:DC:EF:28:D6:3E,49,49,23677.25563233694,38335.99043166191,19778.625188432467
56920,11281,-7444,-2319,15344,26373,-25112,-23359,-6426,-3854,49,-1,44623,2020-11-02 16:01:59,2020-11-02 16:02:29,3,DF:DC:EF:28:D6:3E,49,49,9560.191693322146,6620.748100327813,7267.756695084111
56921,-30695,-15372,-22533,-783,-30710,6383,18758,7653,17913,49,-1,44648,2020-11-02 16:01:59,2020-11-02 16:02:29,3,DF:DC:EF:28:D6:3E,49,49,-2953.8501326098103,-18162.940129929677,36709.670023451195
56922,30999,8937,30724,20208,-21750,26347,29243,3044,28418,49,-1,44674,2020-11-02 16:01:59,2020-11-02 16:02:29,3,DF:DC:EF:28:D6:3E,49,49,3953.1701469789587,-44374.806712413134,145.33074350769493
56923,24852,-6947,29963,30960,-17147,17125,-18641,-29211,18700,49,1,44699,2020-11-02 16:01:59,2020-11-02 16:02:29,3,DF:DC:EF:28:D6:3E,49,49,18683.083146717363,-13881.330986668447,-31967.407404595768
56924,-15859,3553,-1013,15609,-12536,4837,-12760,-15128,10770,49,1,44725,2020-11-02 16:01:59,2020-11-02 16:02:29,3,DF:DC:EF:28:D6:3E,49,49,6965.222209780139,6406.310598807347,-13251.517765146531
56925,19466,-1049,-25340,23298,18701,14825,8229,-2325,30742,49,1,44751,2020-11-02 16:01:59,2020-11-02 16:02:29,3,DF:DC:EF:28:D6:3E,49,49,25425.293972834916,-12778.699913426746,-14573.963493762145
56926,23302,21225,14852,4360,6923,31467,-16349,-3858,-31719,49,1,44776,2020-11-02 16:01:59,2020-11-02 16:02:29,3,DF:DC:EF:28:D6:3E,49,49,2129.6401895943,23670.171054479695,-25480.450700773254
56927,10499,-26646,12545,10253,-14586,25326,15652,-21263,27419,49,1,44802,2020-11-02 16:01:59,2020-11-02 16:02:29,3,DF:DC:EF:28:D6:3E,49,49,3836.389586278252,4929.103141104505,30636.602278429134
56928,4097,3560,-24066,-29937,28936,-12046,-21211,-13069,-10724,49,1,44828,2020-11-02 16:01:59,2020-11-02 16:02:29,3,DF:DC:EF:28:D6:3E,49,49,-18203.019966300904,15540.828984919954,-5980.306310543178
56929,3845,22757,-1793,11027,-13041,6390,7463,-1036,27935,49,1,44853,2020-11-02 16:01:59,2020-11-02 16:02:29,3,DF:DC:EF:28:D6:3E,49,49,7933.957547794816,-11933.074739195008,18180.593166851726
56930,19204,229,29179,7450,3848,13038,-24279,-28170,-7135,49,1,44879,2020-11-02 16:01:59,2020-11-02 16:02:29,3,DF:DC:EF:28:D6:3E,49,49,-33218.11209564685,10586.023854969668,-2180.189382382596
56931,21498,-7703,27634,-23269,-23288,-31256,4909,16633,20004,49,1,44930,2020-11-02 16:01:59,2020-11-02 16:02:29,3,DF:DC:EF:28:D6:3E,49,49,-14932.219560705276,9909.403332293925,-31047.877763042237
56932,14835,32493,-11541,30493,-6645,-14354,-11216,12027,20007,49,1,44932,2020-11-02 16:01:59,2020-11-02 16:02:29,3,DF:DC:EF:28:D6:3E,49,49,35231.14988415436,-12946.003518740225,483.76206239863996
56933,1268,753,-285,23839,8203,-25100,12853,-23301,-1239,49,1,44956,2020-11-02 16:01:59,2020-11-02 16:02:29,3,DF:DC:EF:28:D6:3E,49,49,-220.87853954188526,-54.20880127467893,-1484.699321961927
56934,-1815,-783,28896,10527,17672,-776,-16327,-29445,-4053,49,1,44981,2020-11-02 16:01:59,2020-11-02 16:02:29,3,DF:DC:EF:28:D6:3E,49,49,-11363.156326359303,26600.901418571313,-1468.6224913746064
56935,24557,25073,-28970,-6624,9999,-11000,-14018,4602,27180,49,1,45007,2020-11-02 16:01:59,2020-11-02 16:02:29,3,DF:DC:EF:28:D6:3E,49,49,-43883.994725292956,5453.85782392371,-10743.0405280296
56936,-20229,23279,20692,25370,32276,20759,15428,-19978,8234,49,1,45032,2020-11-02 16:01:59,2020-11-02 16:02:29,3,DF:DC:EF:28:D6:3E,49,49,33847.15000832915,-39.36669005036492,-15285.680638341852
56937,26893,29425,-15913,-9969,12548,15895,-21060,10997,-7899,49,1,45058,2020-11-02 16:01:59,2020-11-02 16:02:29,3,DF:DC:EF:28:D6:3E,49,49,-13276.843151173875,-37394.05403185029,-16361.473100005041
56938,-12787,15092,23775,-4343,-17157,-244,-16961,3062,5155,49,1,45084,2020-11-02 16:01:59,2020-11-02 16:02:29,3,DF:DC:EF:28:D6:3E,49,49,-12787.0,15338.058265611107,-23617.0078045615
56939,2565,20727,14051,32523,-2305,-249,-5951,-8970,-18143,49,1,45109,2020-11-02 16:01:59,2020-11-02 16:02:29,3,DF:DC:EF:28:D6:3E,49,49,-6328.1181743978395,-24157.131363281023,-3163.2704070376467
56940,-14081,-24326,1504,-8437,-5110,-1525,-31548,-21514,-12769,49,1,45135,2020-11-02 16:01:59,2020-11-02 16:02:29,3,DF:DC:EF:28:D6:3E,49,49,-14731.86599486342,-12142.491459804332,20683.879676162436
56941,23553,-2824,9187,20229,-16368,23570,14791,2806,13340,49,1,45160,2020-11-02 16:01:59,2020-11-02 16:02:29,3,DF:DC:EF:28:D6:3E,49,49,-3274.0995921326376,24403.99934888167,-6390.996920714322
56942,-20990,-12,-17176,-17666,10001,27156,17353,-7179,-12265,49,1,45186,2020-11-02 16:01:59,2020-11-02 16:02:29,3,DF:DC:EF:28:D6:3E,49,49,12888.156192492406,22308.015533631675,-8476.030492463295
56943,-16638,8690,-28436,9721,-29423,12052,32458,2294,19987,49,1,45212,2020-11-02 16:01:59,2020-11-02 16:02:29,3,DF:DC:EF:28:D6:3E,49,49,19971.687137753608,22206.776019302954,-16399.269852654976
56944,-4608,5868,7923,-15883,-3313,28947,-2102,21494,-2034,49,1,45237,2020-11-02 16:01:59,2020-11-02 16:02:29,3,DF:DC:EF:28:D6:3E,49,49,5679.97924819318,5868.0,-7193.429553425461
56945,-18686,23019,-6414,-13326,-12277,25618,-15670,-8714,3595,49,-1,45263,2020-11-02 16:01:59,2020-11-02 16:02:29,3,DF:DC:EF:28:D6:3E,49,49,5270.813559129194,-15411.517726138594,-25590.701412853377
56946,17924,23532,-11019,4592,7685,19216,-24631,-14857,3336,49,-1,45288,2020-11-02 16:01:59,2020-11-02 16:02:29,3,DF:DC:EF:28:D6:3E,49,49,-30201.97703023594,-7042.334990364456,5889.759107857399
56947,14086,-16916,8439,-17679,-14081,19469,2504,-520,1798,49,-1,45314,2020-11-02 16:01:59,2020-11-02 16:02:29,3,DF:DC:EF:28:D6:3E,49,49,14086.0,-16916.0,8439.0
56948,-10746,12271,13813,-25868,-5887,-2037,-23866,-1031,24068,49,-1,45340,2020-11-02 16:01:59,2020-11-02 16:02:29,3,DF:DC:EF:28:D6:3E,49,49,-6957.549155856574,20208.386887450637,257.94408493451374
56949,-13306,-15630,31475,-23817,4620,26892,-11579,-1799,5378,49,-1,45365,2020-11-02 16:01:59,2020-11-02 16:02:29,3,DF:DC:EF:28:D6:3E,49,49,-13306.0,35124.511564570166,1114.097100964098
56950,-7677,21747,-26637,18427,-2285,-31477,-13371,-21768,2303,49,-1,45391,2020-11-02 16:01:59,2020-11-02 16:02:29,3,DF:DC:EF:28:D6:3E,49,49,8826.447104687406,-33270.90081274639,7519.248474185899
56951,-19967,-2828,1771,-21252,3094,1291,-27962,-13066,-26373,49,-1,45416,2020-11-02 16:01:59,2020-11-02 16:02:29,3,DF:DC:EF:28:D6:3E,49,49,-7775.963095047778,8225.677053252308,-16783.555909283747
56952,-4606,8180,-5146,-5637,29971,6924,-30521,19701,2296,49,-1,45442,2020-11-02 16:01:59,2020-11-02 16:02:29,3,DF:DC:EF:28:D6:3E,49,49,5460.854373202752,7254.9809945057,-5670.385549857561
56953,-15355,7667,6115,-12807,8721,-3061,27080,16628,32756,49,-1,45468,2020-11-02 16:01:59,2020-11-02 16:02:29,3,DF:DC:EF:28:D6:3E,49,49,-1082.89800654878,2308.304866372473,18040.26606098962
56954,3336,18159,-31263,8183,29198,-30196,-4920,-24077,6385,49,-1,45493,2020-11-02 16:01:59,2020-11-02 16:02:29,3,DF:DC:EF:28:D6:3E,49,49,-29241.93796551251,-11932.657454000704,17910.16739471185
56955,-26870,-14615,-6945,-2317,-10995,-8691,5065,22515,-20755,49,-1,45519,2020-11-02 16:01:59,2020-11-02 16:02:29,3,DF:DC:EF:28:D6:3E,49,49,-27427.086401446853,10853.101799119546,10667.392505458725
56956,-6128,-31262,-7196,-25615,1291,-31731,-11320,17395,17898,49,1,45544,2020-11-02 16:01:59,2020-11-02 16:02:29,3,DF:DC:EF:28:D6:3E,49,49,-5899.775433080427,24019.103509419896,-21328.918407715693
56957,4377,-16159,20458,28915,5126,-26104,8136,24563,-12825,49,1,45570,2020-11-02 16:01:59,2020-11-02 16:02:29,3,DF:DC:EF:28:D6:3E,49,49,-23202.788861384717,11648.105272421997,4975.279551600709
56958,16411,-15644,15856,24055,6663,28416,18119,-5134,-29722,49,1,45621,2020-11-02 16:01:59,2020-11-02 16:02:29,3,DF:DC:EF:28:D6:3E,49,49,-8050.416699970511,19495.385912063324,-17905.002432185225
56959,15127,-10266,-31505,6397,25098,-24839,-10554,26865,7910,49,1,45623,2020-11-02 16:01:59,2020-11-02 16:02:29,3,DF:DC:EF:28:D6:3E,49,49,25061.053296623977,-20301.852373102312,16928.09226949489
56960,15890,28135,25585,-19204,1291,15092,17606,12271,29926,49,1,45647,2020-11-02 16:01:59,2020-11-02 16:02:29,3,DF:DC:EF:28:D6:3E,49,49,-37556.40519267582,16039.340255545558,-5560.4445119422
56961,-29420,-1054,22007,-7174,-22264,2027,12484,-20244,31976,49,1,45672,2020-11-02 16:01:59,2020-11-02 16:02:29,3,DF:DC:EF:28:D6:3E,49,49,-10101.548887466444,-34850.148427082706,5863.550944984629
56962,30219,15063,28156,-14088,15112,-10022,13246,-3095,-9746,49,1,45698,2020-11-02 16:01:59,2020-11-02 16:02:29,3,DF:DC:EF:28:D6:3E,49,49,-10490.78822950121,-42648.16935900257,1979.7168104539014
56963,9467,-13361,-510,-6150,-10747,8400,-31681,16873,12539,49,1,45724,2020-11-02 16:01:59,2020-11-02 16:02:29,3,DF:DC:EF:28:D6:3E,49,49,9543.921596179393,-12921.651198775488,-3216.3645413983436
56964,-21520,-14634,29698,2307,-19959,8659,7734,-8725,-20218,49,1,45749,2020-11-02 16:01:59,2020-11-02 16:02:29,3,DF:DC:EF:28:D6:3E,49,49,9977.335572290498,34651.56659780432,-16092.149241037965
56965,-22286,-13600,510,10250,21782,22752,305,21230,14095,49,1,45775,2020-11-02 16:01:59,2020-11-02 16:02:29,3,DF:DC:EF:28:D6:3E,49,49,3155.058089010774,25786.84458403013,2640.104326355973
56966,30195,19432,-23811,16913,-10469,10219,5934,29679,-20458,49,1,45801,2020-11-02 16:01:59,2020-11-02 16:02:29,3,DF:DC:EF:28:D6:3E,49,49,-860.6386120016014,-30966.773445279687,29943.657317840334
56967,-2577,-26386,-21253,22040,30489,-6155,19245,-28945,-7396,49,1,45852,2020-11-02 16:01:59,2020-11-02 16:02:29,3,DF:DC:EF:28:D6:3E,49,49,33081.60363117047,2376.365871671038,7383.24592805129
56968,15093,-20495,-8711,-16100,-18157,-7172,23342,-17938,29985,49,1,45854,2020-11-02 16:01:59,2020-11-02 16:02:29,3,DF:DC:EF:28:D6:3E,49,49,1437.148341014462,19127.692447342914,-18862.42776754308
56969,-18181,-7437,23286,7456,-20978,15611,-17616,-7955,-12252,49,1,45877,2020-11-02 16:01:59,2020-11-02 16:02:29,3,DF:DC:EF:28:D6:3E,49,49,6065.668500828804,-12335.064199236936,-27187.301867577014
56970,-27403,-18444,14832,1827,-18167,-521,-9933,-25363,-16857,49,1,45903,2020-11-02 16:01:59,2020-11-02 16:02:29,3,DF:DC:EF:28:D6:3E,49,49,-12578.500058437436,-33528.93360784196,5355.904816257979
56971,-1299,19191,29664,6691,22790,19965,-1737,-30483,-24535,49,1,45929,2020-11-02 16:01:59,2020-11-02 16:02:29,3,DF:DC:EF:28:D6:3E,49,49,-32876.18294979817,8704.70866844799,9660.197702368561
56972,13300,-28678,3792,1309,-31224,8972,27453,24300,1833,49,1,45954,2020-11-02 16:01:59,2020-11-02 16:02:29,3,DF:DC:EF:28:D6:3E,49,49,-23242.961906669818,21614.98682133433,-2500.802774838356
56973,10747,6906,19404,32530,-1014,-9706,31556,30442,-18396,49,1,45980,2020-11-02 16:01:59,2020-11-02 16:02:29,3,DF:DC:EF:28:D6:3E,49,49,-1177.235081953926,-20941.642662766164,9988.382308804014
56974,760,-10009,-29485,3076,13064,-224,5568,-16407,-21988,49,1,46005,2020-11-02 16:01:59,2020-11-02 16:02:29,3,DF:DC:EF:28:D6:3E,49,49,-27641.690766717024,6169.950173549414,12961.155519980013
56975,-32509,28372,-1060,-27140,-32258,-22742,-19257,25836,8211,49,1,46031,2020-11-02 16:01:59,2020-11-02 16:02:29,3,DF:DC:EF:28:D6:3E,49,49,36450.299802049194,4505.284027931171,-22671.725235817426
56976,17164,9171,-28193,-23298,-16382,2349,18636,13041,9484,49,-1,46082,2020-11-02 16:01:59,2020-11-02 16:02:29,3,DF:DC:EF:28:D6:3E,49,49,14781.105944844665,13579.892029293118,-27760.778546719812
56977,28692,12245,-14367,8187,-16877,-7121,-25393,-11019,4869,49,-1,46084,2020-11-02 16:01:59,2020-11-02 16:02:29,3,DF:DC:EF:28:D6:3E,49,49,-197.765135906875,2869.115312614076,34224.41590844091
56978,-12770,17627,-15890,12019,29970,2082,30416,27641,-25858,49,-1,46108,2020-11-02 16:01:59,2020-11-02 16:02:29,3,DF:DC:EF:28:D6:3E,49,49,-8299.702112623367,25271.30705958428,4330.371039751761
56979,6679,25575,-2060,22001,-30200,2571,10703,-8454,21499,49,-1,46133,2020-11-02 16:01:59,2020-11-02 16:02:29,3,DF:DC:EF:28:D6:3E,49,49,11233.332600948082,-17310.140983203077,16646.456794708905
56980,-13299,20969,-18705,-29203,9738,1,1997,-31750,-7431,49,-1,46159,2020-11-02 16:01:59,2020-11-02 16:02:29,3,DF:DC:EF:28:D6:3E,49,49,5915.327232014904,29597.178459049814,7446.832749655431
56981,-10233,30697,-9738,-25876,30728,-23045,21194,14329,6905,49,-1,46185,2020-11-02 16:01:59,2020-11-02 16:02:29,3,DF:DC:EF:28:D6:3E,49,49,33581.23283842632,-1402.807194807705,3490.225641071599
56982,4354,13291,10234,-18963,21253,11769,32199,-8969,10745,49,-1,46210,2020-11-02 16:01:59,2020-11-02 16:02:29,3,DF:DC:EF:28:D6:3E,49,49,-5684.631105702535,16287.7946355774,-1653.925059165398
56983,12030,3821,24315,-14096,-15612,22011,-6204,-10506,-29191,49,-1,46236,2020-11-02 16:01:59,2020-11-02 16:02:29,3,DF:DC:EF:28:D6:3E,49,49,-22124.241391213,4616.018788851933,15483.878047966646
56984,8700,14318,7676,-15627,22534,-15360,14275,-1035,19705,49,-1,46261,2020-11-02 16:01:59,2020-11-02 16:02:29,3,DF:DC:EF:28:D6:3E,49,49,-6787.101836236139,14036.422869411927,9824.977439954248
56985,-20485,-8978,-24582,26105,-12540,-24316,-30270,26613,22008,49,-1,46313,2020-11-02 16:01:59,2020-11-02 16:02:29,3,DF:DC:EF:28:D6:3E,49,49,-27897.65440049229,-17261.383559484115,-5317.889577930757
56986,-13315,23024,-27908,24316,-13574,24838,18370,-8715,25847,49,-1,46315,2020-11-02 16:01:59,2020-11-02 16:02:29,3,DF:DC:EF:28:D6:3E,49,49,7416.229417050774,37432.98366939831,5479.191531624903
56987,-9726,8434,5368,2048,-14094,-8187,20930,-14601,2295,49,-1,46338,2020-11-02 16:01:59,2020-11-02 16:02:29,3,DF:DC:EF:28:D6:3E,49,49,7797.453620930245,-9107.128919593524,-7127.606601892749
56988,14084,11509,8181,17411,-30481,15875,-28478,12538,20983,49,-1,46364,2020-11-02 16:01:59,2020-11-02 16:02:29,3,DF:DC:EF:28:D6:3E,49,49,4710.7160802667,13181.32147488906,-14205.872595048331
56989,27908,-32523,242,-31482,-27152,9474,18627,-29956,-5897,49,-1,46390,2020-11-02 16:01:59,2020-11-02 16:02:29,3,DF:DC:EF:28:D6:3E,49,49,28839.755358633975,14613.222072134115,-28131.526949752213
56990,11013,-1545,-17,-20476,-9739,-13054,5572,18942,12024,49,-1,46415,2020-11-02 16:01:59,2020-11-02 16:02:29,3,DF:DC:EF:28:D6:3E,49,49,5943.023348925614,-9273.11107483536,-1537.3247763211102
56991,-22270,-16649,14836,-15105,17397,-11522,24772,-20993,-16648,49,-1,46441,2020-11-02 16:01:59,2020-11-02 16:02:29,3,DF:DC:EF:28:D6:3E,49,49,11100.573458186813,-28876.133438939847,-6016.2433059126415
56992,32510,-19212,13557,-12291,-32520,-24324,9156,-30976,-20999,49,1,46466,2020-11-02 16:01:59,2020-11-02 16:02:29,3,DF:DC:EF:28:D6:3E,49,49,-3810.8619589722803,21465.13356816949,-33682.616659492196
56993,29179,-14859,249,13568,3580,31743,3012,13569,24058,49,1,46492,2020-11-02 16:01:59,2020-11-02 16:02:29,3,DF:DC:EF:28:D6:3E,49,49,-3456.2929116650866,18730.801478274374,-26636.010179646804
56994,-15874,-24329,7930,-24574,-23554,24836,26308,-17919,15354,49,1,46517,2020-11-02 16:01:59,2020-11-02 16:02:29,3,DF:DC:EF:28:D6:3E,49,49,-25680.115726279288,3476.9547276010126,-15336.605201514318
56995,23549,3319,-21514,-6141,9982,-31994,-5948,23554,-27143,49,1,46543,2020-11-02 16:01:59,2020-11-02 16:02:29,3,DF:DC:EF:28:D6:3E,49,49,15273.124662029306,7269.105682283269,27245.460606088294
56996,17408,-13324,-18175,-23802,-29185,-18171,-30267,7427,-10248,49,1,46569,2020-11-02 16:01:59,2020-11-02 16:02:29,3,DF:DC:EF:28:D6:3E,49,49,8414.157407786664,12157.387339069932,-24337.172251615655
56997,-8715,3067,-23056,28166,-27139,17930,-25914,8452,8440,49,1,46594,2020-11-02 16:01:59,2020-11-02 16:02:29,3,DF:DC:EF:28:D6:3E,49,49,-7632.880972966575,16696.69993892065,16730.098302226797
56998,-4102,-30481,-26645,-30972,25603,24593,-3898,18693,7926,49,1,46620,2020-11-02 16:01:59,2020-11-02 16:02:29,3,DF:DC:EF:28:D6:3E,49,49,25811.403590933678,-16215.8345539269,26957.22434498044
56999,22786,29410,-21528,-11514,-12533,1298,1735,-19707,-5646,49,1,46646,2020-11-02 16:01:59,2020-11-02 16:02:29,3,DF:DC:EF:28:D6:3E,49,49,-19519.93749402493,29410.0,24528.118970466523
57000,-4863,-25898,-9246,27149,-11256,23304,712,21765,16624,49,1,46671,2020-11-02 16:01:59,2020-11-02 16:02:29,3,DF:DC:EF:28:D6:3E,49,49,22088.50165826007,13968.584569669798,9839.737222762853
57001,-6150,-32555,28878,31003,-15614,1020,18123,-11260,-11537,49,1,46697,2020-11-02 16:01:59,2020-11-02 16:02:29,3,DF:DC:EF:28:D6:3E,49,49,15363.173401587283,-34084.71925396398,-23103.98721890268
57002,23802,8937,-28999,25117,28683,-8708,-19761,-32765,18415,49,1,46722,2020-11-02 16:01:59,2020-11-02 16:02:29,3,DF:DC:EF:28:D6:3E,49,49,-30914.85380306303,17477.512741884304,-15038.468562074762
57003,29943,-24584,26558,28938,-23030,24579,4818,-20990,-11795,49,1,46748,2020-11-02 16:01:59,2020-11-02 16:02:29,3,DF:DC:EF:28:D6:3E,49,49,-8458.521323127256,40593.0956157024,-22066.664323378027
57004,-26365,21233,-27687,29176,-23279,2829,13265,-5374,4587,49,1,46774,2020-11-02 16:01:59,2020-11-02 16:02:29,3,DF:DC:EF:28:D6:3E,49,49,-26365.0,16339.672076117175,30828.96972727043
57005,-2028,1007,-27415,31215,6168,-22768,32718,2563,-4378,49,1,46799,2020-11-02 16:01:59,2020-11-02 16:02:29,3,DF:DC:EF:28:D6:3E,49,49,-2028.0,-26003.261169128473,-8742.23555906013
57006,-19672,9955,24559,-536,10268,31237,-8758,-28159,-12318,49,1,46825,2020-11-02 16:01:59,2020-11-02 16:02:29,3,DF:DC:EF:28:D6:3E,49,49,16790.25705433484,-25897.24801222941,11689.906049341838
57007,21542,-16944,21747,-17936,-7128,-2837,-1593,13820,21984,49,-1,46850,2020-11-02 16:01:59,2020-11-02 16:02:29,3,DF:DC:EF:28:D6:3E,49,49,-8310.538901161763,18299.91982658996,-28638.03042306954
57008,-12016,-30534,-12073,31740,-22745,-12086,20678,-25101,-2591,49,-1,46876,2020-11-02 16:01:59,2020-11-02 16:02:29,3,DF:DC:EF:28:D6:3E,49,49,13638.590537885655,31932.172748504778,4097.796078326084
57009,17136,7336,31174,7167,-25054,-23112,-10817,30442,8683,49,-1,46902,2020-11-02 16:01:59,2020-11-02 16:02:29,3,DF:DC:EF:28:D6:3E,49,49,-28310.869086410046,11795.062201523246,19458.90200484986
57010,6364,-13388,9168,-28164,-13283,-1088,-16327,6631,22784,49,-1,46927,2020-11-02 16:01:59,2020-11-02 16:02:29,3,DF:DC:EF:28:D6:3E,49,49,-12329.741780422408,-12290.840020692158,-839.0370753775314
57011,-9753,30413,-7968,23801,-30185,6352,9003,-15126,32016,49,-1,46953,2020-11-02 16:01:59,2020-11-02 16:02:29,3,DF:DC:EF:28:D6:3E,49,49,17847.473204767226,21231.87314527201,-17726.69921187227
57012,-17164,-1320,-1565,5111,-13034,-21023,29733,32751,-25834,49,-1,46978,2020-11-02 16:01:59,2020-11-02 16:02:29,3,DF:DC:EF:28:D6:3E,49,49,5116.694604642055,-3055.4519406518884,-16225.8488456288
57013,-31001,4316,-18699,31994,28981,6126,32544,1779,-5092,49,-1,47004,2020-11-02 16:01:59,2020-11-02 16:02:29,3,DF:DC:EF:28:D6:3E,49,49,-31001.0,-16706.63901946674,-9442.916375422974
57014,-15885,24538,-7943,5130,-17896,28147,-26851,27126,-13533,49,-1,47030,2020-11-02 16:01:59,2020-11-02 16:02:29,3,DF:DC:EF:28:D6:3E,49,49,-5955.456562361714,11083.932919120689,-27553.890581517804
57015,-10266,21219,255,29460,18216,32242,23838,-13831,7465,49,-1,47055,2020-11-02 16:01:59,2020-11-02 16:02:29,3,DF:DC:EF:28:D6:3E,49,49,21788.191298603204,8620.08431915459,-2582.752072138722
57016,-16392,-6673,-22273,20760,-22776,5101,-2016,-15364,19756,49,-1,47081,2020-11-02 16:01:59,2020-11-02 16:02:29,3,DF:DC:EF:28:D6:3E,49,49,-25861.62096426756,10426.939794357655,-5636.364930112073
57017,-14864,-25878,-9229,22561,30983,-21785,30245,25088,20269,49,-1,47106,2020-11-02 16:01:59,2020-11-02 16:02:29,3,DF:DC:EF:28:D6:3E,49,49,9297.002774764404,15028.931139243765,-25758.120840191197
57018,-32286,-1810,-8990,19752,-491,-11534,-22229,-15614,23344,49,1,47132,2020-11-02 16:01:59,2020-11-02 16:02:29,3,DF:DC:EF:28:D6:3E,49,49,-2944.5915352718976,-4209.77376679568,-33167.592338347444
57019,20193,16633,29137,32550,12566,32521,23602,15105,20019,49,1,47158,2020-11-02 16:01:59,2020-11-02 16:02:29,3,DF:DC:EF:28:D6:3E,49,49,35217.64175446041,-16312.056812203467,-5197.424247637761
57020,-13329,-14346,19150,11290,29450,22812,31543,27133,-26318,49,1,47183,2020-11-02 16:01:59,2020-11-02 16:02:29,3,DF:DC:EF:28:D6:3E,49,49,-7020.208683405011,-13740.011240520213,-22630.09540748388
57021,-22784,-16143,22479,30488,9468,20512,9020,-16390,-28114,49,1,47209,2020-11-02 16:01:59,2020-11-02 16:02:29,3,DF:DC:EF:28:D6:3E,49,49,13863.705172878523,26230.56230461664,-20118.842562710368
57022,3590,-7440,28354,27162,-7437,-8416,-25023,-26118,17193,49,1,47234,2020-11-02 16:01:59,2020-11-02 16:02:29,3,DF:DC:EF:28:D6:3E,49,49,22769.402589517827,13517.32581987994,13077.737739978806
57023,-18169,25075,30923,5393,23033,-9438,17478,-28677,-16349,49,1,47260,2020-11-02 16:01:59,2020-11-02 16:02:29,3,DF:DC:EF:28:D6:3E,49,49,-13591.385240332324,40440.78377501792,9742.554588562709
57024,-18169,32241,-30496,-5879,-18946,-7135,31420,22268,25630,49,1,47286,2020-11-02 16:01:59,2020-11-02 16:02:29,3,DF:DC:EF:28:D6:3E,49,49,-23317.499202517633,3749.8424211083257,41735.27968945992
57025,28163,-25608,7143,19721,5890,13085,-22082,2045,-25063,49,1,47311,2020-11-02 16:01:59,2020-11-02 16:02:29,3,DF:DC:EF:28:D6:3E,49,49,-38357.68840983663,4083.9475014926034,-3457.7152368199017
57026,17143,-17417,6627,5639,28167,-25061,25536,22781,16149,49,1,47337,2020-11-02 16:01:59,2020-11-02 16:02:29,3,DF:DC:EF:28:D6:3E,49,49,-8369.425027503474,-21121.257372509415,-11180.191354051822
57027,-21518,6640,3046,-20740,-12532,25888,10433,25085,17168,49,1,47362,2020-11-02 16:01:59,2020-11-02 16:02:29,3,DF:DC:EF:28:D6:3E,49,49,-4506.703053227803,7385.486392324695,-21012.764176538363
57028,-25353,14057,-22552,-23047,-16376,-8926,2241,-20739,-10230,49,1,47388,2020-11-02 16:01:59,2020-11-02 16:02:29,3,DF:DC:EF:28:D6:3E,49,49,27109.289214606215,-16203.299889290776,18748.49521899143
57029,7417,9447,-11794,22520,-5624,-19678,31168,6654,20997,49,1,47414,2020-11-02 16:01:59,2020-11-02 16:02:29,3,DF:DC:EF:28:D6:3E,49,49,7584.061784587097,7635.950166387447,-12943.353734794284
57030,13564,-9496,10734,1532,-11772,-10977,6080,-16898,13568,49,1,47439,2020-11-02 16:01:59,2020-11-02 16:02:29,3,DF:DC:EF:28:D6:3E,49,49,14398.344736498746,2572.8476921465644,13245.489481402905
57031,12284,2792,750,3839,16390,-25315,6848,16639,-31237,49,1,47465,2020-11-02 16:01:59,2020-11-02 16:02:29,3,DF:DC:EF:28:D6:3E,49,49,-1580.9397776637072,-2251.2014746044983,-12316.133376191538
57032,22781,7143,12785,-19455,-13816,15645,29120,27903,-8458,49,1,47491,2020-11-02 16:01:59,2020-11-02 16:02:29,3,DF:DC:EF:28:D6:3E,49,49,5293.719029605607,18196.359279637974,19347.39472905653
57033,-14079,32489,-29965,8708,30471,-487,10689,-27649,31986,49,1,47516,2020-11-02 16:01:59,2020-11-02 16:02:29,3,DF:DC:EF:28:D6:3E,49,49,46015.54849629404,-4783.389748269845,3367.946867359846
57034,-7165,-25875,6644,-250,26629,-5612,12482,-4097,-6418,49,1,47542,2020-11-02 16:01:59,2020-11-02 16:02:29,3,DF:DC:EF:28:D6:3E,49,49,105.88540633176672,8582.839170441073,-26292.950501133728
57035,-23548,-10511,13553,20744,-28665,21265,32707,4096,-9237,49,1,47567,2020-11-02 16:01:59,2020-11-02 16:02:29,3,DF:DC:EF:28:D6:3E,49,49,-4295.936117620846,25225.939091213262,13923.726650567354
57036,12293,-5645,-13583,22791,17669,-30451,-19516,13312,25065,49,1,47593,2020-11-02 16:01:59,2020-11-02 16:02:29,3,DF:DC:EF:28:D6:3E,49,49,-2343.256899147367,-8330.314973563763,-17105.4600214615
57037,12041,-28940,3826,1798,-20478,-10488,-19515,31744,-21273,49,1,47619,2020-11-02 16:01:59,2020-11-02 16:02:29,3,DF:DC:EF:28:D6:3E,49,49,1019.2290086468383,-29340.095502018557,11630.45679070101
57038,19213,-20495,25841,-15868,-4607,-509,32454,-26368,-16922,49,1,47644,2020-11-02 16:01:59,2020-11-02 16:02:29,3,DF:DC:EF:28:D6:3E,49,49,13973.674214645274,-15041.997521264098,-32177.887042396713
57039,-7919,2800,25070,-252,-2044,1537,15815,18944,14310,49,1,47670,2020-11-02 16:01:59,2020-11-02 16:02:29,3,DF:DC:EF:28:D6:3E,49,49,18988.62232481427,16088.05264382948,8925.370879405313
57040,29458,-17166,-19995,25092,-22767,14847,712,-18946,14053,49,1,47695,2020-11-02 16:01:59,2020-11-02 16:02:29,3,DF:DC:EF:28:D6:3E,49,49,26570.93335638156,-16808.6855768325,23952.013166953475
57041,31757,8174,-26656,-7937,-28896,3072,-24888,17147,-23582,49,-1,47721,2020-11-02 16:01:59,2020-11-02 16:02:29,3,DF:DC:EF:28:D6:3E,49,49,-16617.97589638872,-3448.237939899178,-38701.63036897649
57042,18443,31205,-11302,-19464,13859,-22788,-5944,-3594,20959,49,-1,47747,2020-11-02 16:01:59,2020-11-02 16:02:29,3,DF:DC:EF:28:D6:3E,49,49,-19295.63945563539,-4673.5986431261335,-32364.598741852125
57043,-31736,12511,-4138,-21771,-11742,-28171,-15416,9714,-31524,49,-1,47772,2020-11-02 16:01:59,2020-11-02 16:02:29,3,DF:DC:EF:28:D6:3E,49,49,1432.3131384610956,-26776.942349410787,21488.73422260425
57044,-1273,-11040,-16676,24056,-25832,30958,22472,21997,7131,49,-1,47798,2020-11-02 16:01:59,2020-11-02 16:02:29,3,DF:DC:EF:28:D6:3E,49,49,-9356.210835180418,10012.643685896013,-14621.880529772468
57045,-4597,-16159,11750,-2569,5898,10729,30405,-12055,16861,49,-1,47823,2020-11-02 16:01:59,2020-11-02 16:02:29,3,DF:DC:EF:28:D6:3E,49,49,251.11000304421577,-16609.51386621171,-12015.372773846515
57046,-14318,-28705,-9736,-21767,26630,-29466,18879,-29721,6115,49,-1,47849,2020-11-02 16:01:59,2020-11-02 16:02:29,3,DF:DC:EF:28:D6:3E,49,49,-24368.211369966415,17187.667150471883,15314.901813372147
57047,-25838,29406,-11778,-6650,4877,18660,-5565,-18203,13036,49,-1,47875,2020-11-02 16:01:59,2020-11-02 16:02:29,3,DF:DC:EF:28:D6:3E,49,49,-38075.279820703436,12533.446150665566,8013.872856709197
57048,-23538,5849,12273,-14319,2578,5860,7226,-24604,4601,49,-1,47900,2020-11-02 16:01:59,2020-11-02 16:02:29,3,DF:DC:EF:28:D6:3E,49,49,24128.72254759388,-7167.145209524564,10262.141675441038
57049,19983,-26929,22496,11798,-8167,-13855,27439,13285,-2553,49,-1,47926,2020-11-02 16:01:59,2020-11-02 16:02:29,3,DF:DC:EF:28:D6:3E,49,49,-3155.0833101054795,34626.99800068336,-20532.35994149149
57050,-26620,-4668,14040,-18923,-20455,-8236,7207,-3352,789,49,-1,47951,2020-11-02 16:01:59,2020-11-02 16:02:29,3,DF:DC:EF:28:D6:3E,49,49,-26620.0,-14336.383790495343,3657.857817305421
57051,-28431,17094,-11559,15891,25878,-23091,23333,-23313,29979,49,-1,47977,2020-11-02 16:01:59,2020-11-02 16:02:29,3,DF:DC:EF:28:D6:3E,49,49,-14986.719491976699,-19566.002323572884,25034.11412338663
57052,-20764,-12335,20187,-11757,-24549,30676,-19163,19702,-21984,49,-1,48003,2020-11-02 16:01:59,2020-11-02 16:02:29,3,DF:DC:EF:28:D6:3E,49,49,-15676.306669402475,-17447.19038893601,20991.899550518676
57053,20960,6626,737,-8429,-8418,-24608,20263,13051,14374,49,-1,48028,2020-11-02 16:01:59,2020-11-02 16:02:29,3,DF:DC:EF:28:D6:3E,49,49,9611.358727461777,-4988.354706691893,-19144.3659005011
57054,17122,24051,25586,-18157,-32230,-6167,-19159,8958,26923,49,1,48054,2020-11-02 16:01:59,2020-11-02 16:02:29,3,DF:DC:EF:28:D6:3E,49,49,-5535.16140194764,24494.370537018032,-29927.32332250333
57055,-37,15869,-27659,-18411,-11238,-24332,-13780,19711,-1489,49,1,48079,2020-11-02 16:01:59,2020-11-02 16:02:29,3,DF:DC:EF:28:D6:3E,49,49,-375.3610409255007,-31754.091677738135,2895.4406937040167
57056,11226,-27652,16629,-11494,10524,-29178,23344,-26371,-14285,49,1,48105,2020-11-02 16:01:59,2020-11-02 16:02:29,3,DF:DC:EF:28:D6:3E,49,49,27764.567217568365,-13007.842653921807,-15069.991961243395
57057,1760,25329,-9249,-16864,-18152,30748,1589,12537,-9932,49,1,48131,2020-11-02 16:01:59,2020-11-02 16:02:29,3,DF:DC:EF:28:D6:3E,49,49,16373.899159837809,21378.47427888835,2248.5786200113203
57058,-13583,-12317,21456,-16359,-14316,-18125,-29637,-22542,12337,49,1,48156,2020-11-02 16:01:59,2020-11-02 16:02:29,3,DF:DC:EF:28:D6:3E,49,49,15953.31329894219,22978.042372713207,3750.6902702823318
57059,32536,-13609,-22063,-4085,-2055,12079,-24764,-8209,-29401,49,1,48182,2020-11-02 16:01:59,2020-11-02 16:02:29,3,DF:DC:EF:28:D6:3E,49,49,-20538.85007541884,20790.813444854855,29605.233656917997
57060,13077,27875,4057,-27389,14569,-1259,-4932,-14606,26401,49,1,48208,2020-11-02 16:01:59,2020-11-02 16:02:29,3,DF:DC:EF:28:D6:3E,49,49,27064.27105362084,-11309.973656840993,10202.574734727683
57061,23300,21733,-20000,-30968,-9488,28948,9919,30966,-11234,49,1,48233,2020-11-02 16:01:59,2020-11-02 16:02:29,3,DF:DC:EF:28:D6:3E,49,49,23737.078067661358,15912.845749785796,24465.194745868557
57062,8204,26342,23777,6666,29697,-4581,16834,23288,-3046,49,1,48259,2020-11-02 16:01:59,2020-11-02 16:02:29,3,DF:DC:EF:28:D6:3E,49,49,-16001.613786720269,-32582.50488595906,-2980.107477440687
57063,3851,-10001,-11809,-19196,-23299,-19179,-31548,-7431,20503,49,1,48284,2020-11-02 16:01:59,2020-11-02 16:02:29,3,DF:DC:EF:28:D6:3E,49,49,-14037.211630803682,-6571.867813689117,-3750.9900121737055
57064,30209,25330,-17185,-4100,3321,-6642,-3388,-5893,26133,49,1,48310,2020-11-02 16:01:59,2020-11-02 16:02:29,3,DF:DC:EF:28:D6:3E,49,49,-951.0894777197336,-39853.1953170165,16134.901853717765
57065,11258,-22804,-19482,-26632,-23303,-15090,14020,-9731,-6125,49,1,48336,2020-11-02 16:01:59,2020-11-02 16:02:29,3,DF:DC:EF:28:D6:3E,49,49,31919.928693949838,638.6259936254464,2650.209994212446
57066,-13576,-17433,-10515,29690,-3080,-25584,21187,-8705,9746,49,1,48361,2020-11-02 16:01:59,2020-11-02 16:02:29,3,DF:DC:EF:28:D6:3E,49,49,-23348.681821919217,-1674.6591655160273,-7128.608830489461
57067,-12295,25576,-16660,-7682,-6415,-18927,-3646,30210,25872,49,-1,48387,2020-11-02 16:01:59,2020-11-02 16:02:29,3,DF:DC:EF:28:D6:3E,49,49,11193.245194093626,-26168.578045505856,-16515.785966800635
57068,-5119,2793,-24342,-19710,-8472,6408,9155,-19963,-21745,49,-1,48412,2020-11-02 16:01:59,2020-11-02 16:02:29,3,DF:DC:EF:28:D6:3E,49,49,-3422.619913765142,-22702.344997035623,9971.317794628247
57069,-15361,-9487,4073,-4610,-9506,6657,-10301,-2807,17425,49,-1,48438,2020-11-02 16:01:59,2020-11-02 16:02:29,3,DF:DC:EF:28:D6:3E,49,49,15446.972246673415,-486.2059005048036,10183.686524673447
57070,17404,11762,9453,769,5605,-4611,12741,-10483,-4589,49,-1,48464,2020-11-02 16:01:59,2020-11-02 16:02:29,3,DF:DC:EF:28:D6:3E,49,49,3713.966489610915,-13490.307667250658,18298.117962155706
57071,22783,8179,-24848,1036,-28170,-2046,21959,-3569,-25067,49,-1,48489,2020-11-02 16:01:59,2020-11-02 16:02:29,3,DF:DC:EF:28:D6:3E,49,49,-11417.786086158741,20242.84678681416,25753.55410144952
57072,30714,-26382,29930,23314,26634,-28659,-9528,29456,6420,49,-1,48515,2020-11-02 16:01:59,2020-11-02 16:02:29,3,DF:DC:EF:28:D6:3E,49,49,-24371.091960145313,-17724.513678084066,40336.78360436726
57073,10498,13555,-2327,-6640,-31711,4121,26823,23823,-16883,49,-1,48540,2020-11-02 16:01:59,2020-11-02 16:02:29,3,DF:DC:EF:28:D6:3E,49,49,-9554.042084692499,4646.804046469272,13656.077401568922
57074,28933,10483,22510,10505,3376,-12771,16068,-12789,-252,49,-1,48592,2020-11-02 16:01:59,2020-11-02 16:02:29,3,DF:DC:EF:28:D6:3E,49,49,-12190.137375884362,-24830.75236536979,26240.163218370988
57075,19713,-17164,14574,18439,1846,27421,11458,26886,-4868,49,-1,48594,2020-11-02 16:01:59,2020-11-02 16:02:29,3,DF:DC:EF:28:D6:3E,49,49,-7914.111907351989,-21537.346910511034,19212.398647077105
57076,-9986,-25356,-25872,-10231,-1479,-5861,29634,-1281,-24075,49,-1,48617,2020-11-02 16:01:59,2020-11-02 16:02:29,3,DF:DC:EF:28:D6:3E,49,49,30746.347883893985,13360.360492795,16975.57584605395
57077,-27648,19957,13293,6923,5181,-32226,24517,-22279,31469,49,-1,48643,2020-11-02 16:01:59,2020-11-02 16:02:29,3,DF:DC:EF:28:D6:3E,49,49,5854.629576752286,-30313.29881955693,19652.603623827184
57078,28679,-2066,-2319,-9976,22834,24094,30922,-27403,-3613,49,-1,48668,2020-11-02 16:01:59,2020-11-02 16:02:29,3,DF:DC:EF:28:D6:3E,49,49,-17744.349783505808,-2809.791468110843,-22569.32167049619
57079,-13811,26342,-7446,8197,-26593,1558,20175,-18956,732,49,-1,48694,2020-11-02 16:01:59,2020-11-02 16:02:29,3,DF:DC:EF:28:D6:3E,49,49,12107.925316226121,-25027.60276543516,-12926.90393529219
57080,25367,-23336,5610,-20227,-31209,16139,-4655,-12812,-21546,49,-1,48720,2020-11-02 16:01:59,2020-11-02 16:02:29,3,DF:DC:EF:28:D6:3E,49,49,12207.685820532572,25312.059240282735,20731.5640732576
57081,-27117,-7985,-13841,-25088,23318,-3333,-28717,-27149,-4910,49,-1,48745,2020-11-02 16:01:59,2020-11-02 16:02:29,3,DF:DC:EF:28:D6:3E,49,49,8958.675566957972,11007.428334688639,28093.48409405078
57082,8456,17617,6635,-4089,24594,22259,4054,10993,5584,49,-1,48771,2020-11-02 16:01:59,2020-11-02 16:02:29,3,DF:DC:EF:28:D6:3E,49,49,10151.956282621384,17617.0,-3530.5728481004658
57083,6921,-5418,29431,18951,-10742,14063,32472,-27410,7374,49,-1,48822,2020-11-02 16:01:59,2020-11-02 16:02:29,3,DF:DC:EF:28:D6:3E,49,49,-19360.958098939554,19236.516327155037,-14090.722731152036
57084,7683,-8744,-19460,14604,-17660,-540,-31526,9707,28365,49,-1,48824,2020-11-02 16:01:59,2020-11-02 16:02:29,3,DF:DC:EF:28:D6:3E,49,49,17179.94473203826,-4862.740324147663,-13977.871101996156
57085,-13578,-25378,19713,-21232,12044,-27415,-11298,-19225,-3382,49,1,48848,2020-11-02 16:01:59,2020-11-02 16:02:29,3,DF:DC:EF:28:D6:3E,49,49,8925.45513014443,2876.125605196412,-33601.65902485936
57086,26390,6102,-8967,5939,12043,-26887,18152,-14618,-21306,49,1,48873,2020-11-02 16:01:59,2020-11-02 16:02:29,3,DF:DC:EF:28:D6:3E,49,49,18964.755196365393,7527.145441744783,19943.764309697217
57087,-21769,25547,-32550,24884,-25349,-16173,5114,2532,8380,49,1,48899,2020-11-02 16:01:59,2020-11-02 16:02:29,3,DF:DC:EF:28:D6:3E,49,49,-33258.90014533087,-4514.878860269733,-32550.0
57088,-31514,19406,-24101,13868,-19199,-31285,22292,20454,-28876,49,1,48925,2020-11-02 16:01:59,2020-11-02 16:02:29,3,DF:DC:EF:28:D6:3E,49,49,25075.840654918495,29031.61457125687,-21884.944684305756
57089,27877,-23077,-2073,-14813,23553,7893,-24546,-13588,31023,49,1,48950,2020-11-02 16:01:59,2020-11-02 16:02:29,3,DF:DC:EF:28:D6:3E,49,49,16833.443334054697,1801.3961621885094,32052.49669504736
57090,1005,-20508,30958,31776,5381,5860,548,-3343,16431,49,1,48976,2020-11-02 16:01:59,2020-11-02 16:02:29,3,DF:DC:EF:28:D6:3E,49,49,18229.6440586112,9448.183237868607,30958.0
57091,-20490,18407,-12817,22306,24330,8431,12840,-9484,14641,49,1,49001,2020-11-02 16:01:59,2020-11-02 16:02:29,3,DF:DC:EF:28:D6:3E,49,49,8703.72297172725,-28616.63757943194,-5316.624688547355
57092,-18949,-8470,15850,-24029,-31743,25581,-2516,2551,-462,49,1,49027,2020-11-02 16:01:59,2020-11-02 16:02:29,3,DF:DC:EF:28:D6:3E,49,49,-18949.0,-8470.0,15850.0
57093,-13837,23535,490,2592,5119,10730,-17103,-6407,-26316,49,1,49052,2020-11-02 16:01:59,2020-11-02 16:02:29,3,DF:DC:EF:28:D6:3E,49,49,78.88102089946028,14210.74482953065,-23316.24762208769
57094,-3861,-11536,-16407,-31713,3075,32754,16950,-7685,-30154,49,1,49078,2020-11-02 16:01:59,2020-11-02 16:02:29,3,DF:DC:EF:28:D6:3E,49,49,-18627.18939511931,6548.1012408328415,-5227.4708395320795
57095,24046,11767,32229,13858,-26611,-32509,17211,16635,-19657,49,1,49104,2020-11-02 16:01:59,2020-11-02 16:02:29,3,DF:DC:EF:28:D6:3E,49,49,34848.04370514041,21328.600699810013,-9278.22656075436
57096,-11789,-19213,27613,26399,-31210,18965,-13504,-7945,-24778,49,1,49129,2020-11-02 16:01:59,2020-11-02 16:02:29,3,DF:DC:EF:28:D6:3E,49,49,-17600.888825413487,-30266.435414253698,-6689.488685261699
57097,25343,-18202,5852,-17645,-11751,-16859,23738,-18701,-22991,49,1,49155,2020-11-02 16:01:59,2020-11-02 16:02:29,3,DF:DC:EF:28:D6:3E,49,49,4961.458534300036,-30722.05242681725,-6274.215560236464
57098,-28148,-31781,-28959,1035,-3311,4907,18625,-2319,25897,49,1,49181,2020-11-02 16:01:59,2020-11-02 16:02:29,3,DF:DC:EF:28:D6:3E,49,49,45302.821325045894,-1934.3225944896212,24184.257732901657
57099,-29930,-6687,10983,-6393,-12015,-8668,-25913,31730,2081,49,1,49206,2020-11-02 16:01:59,2020-11-02 16:02:29,3,DF:DC:EF:28:D6:3E,49,49,3246.942154144851,-3941.046913252003,-32172.545343431935
57100,29722,-29973,15849,24836,24591,-14825,-5173,-31757,-7398,49,1,49232,2020-11-02 16:01:59,2020-11-02 16:02:29,3,DF:DC:EF:28:D6:3E,49,49,-12454.607557845062,-36077.597487917155,-24005.385314131127
57101,10763,8687,-22033,-7934,7434,-15862,6606,2292,-31465,49,1,49257,2020-11-02 16:01:59,2020-11-02 16:02:29,3,DF:DC:EF:28:D6:3E,49,49,-19226.337664784056,16911.43439469545,-4594.622260166527
57102,-26108,8950,-27395,27390,26127,12046,-20529,-28428,-17644,49,1,49283,2020-11-02 16:01:59,2020-11-02 16:02:29,3,DF:DC:EF:28:D6:3E,49,49,-38063.92169716897,7429.182093738406,2856.800211751888
57103,30209,-4367,-21275,18418,4369,-16621,23504,-27147,-25840,49,-1,49309,2020-11-02 16:01:59,2020-11-02 16:02:29,3,DF:DC:EF:28:D6:3E,49,49,14417.754155416864,3572.4651771615536,-34112.25370262023
57104,20992,-10517,-17426,-25876,-9207,1553,1999,-5130,11789,49,-1,49334,2020-11-02 16:01:59,2020-11-02 16:02:29,3,DF:DC:EF:28:D6:3E,49,49,827.3266451280815,23464.587863891007,-17426.0
57105,-13827,-15387,-14358,-32531,-23542,-14065,14029,760,19978,49,-1,49360,2020-11-02 16:01:59,2020-11-02 16:02:29,3,DF:DC:EF:28:D6:3E,49,49,10942.579940606181,-21215.474733244206,-8016.323227422894
57106,-1796,15073,-27670,26605,24592,-5100,-25397,-14088,-25850,49,-1,49386,2020-11-02 16:01:59,2020-11-02 16:02:29,3,DF:DC:EF:28:D6:3E,49,49,8649.485946202,-26978.473792509056,-13906.76776585257
57107,-10245,23267,-16652,-27152,31765,-17895,-29238,18169,-23807,49,-1,49411,2020-11-02 16:01:59,2020-11-02 16:02:29,3,DF:DC:EF:28:D6:3E,49,49,-25331.395204359607,-5197.1929077873865,-15965.964451914315
57108,2817,2540,-28678,-19725,-5092,-32741,28874,21241,-26373,49,-1,49437,2020-11-02 16:01:59,2020-11-02 16:02:29,3,DF:DC:EF:28:D6:3E,49,49,23064.75007363565,14264.757875266174,10067.212116606848
57109,5898,999,15852,2294,30239,-30188,-9782,27128,23285,49,-1,49462,2020-11-02 16:01:59,2020-11-02 16:02:29,3,DF:DC:EF:28:D6:3E,49,49,16844.422218311098,-1730.085404038331,-585.2808095272985
57110,32262,26859,30960,-21005,-6880,-4852,10443,32246,-20241,49,-1,49488,2020-11-02 16:01:59,2020-11-02 16:02:29,3,DF:DC:EF:28:D6:3E,49,49,26647.506543758915,15455.125616720605,42092.916413236475
57111,772,23276,-10511,-14865,-24291,-2043,13259,4084,-12822,49,-1,49513,2020-11-02 16:01:59,2020-11-02 16:02:29,3,DF:DC:EF:28:D6:3E,49,49,-438.2087487593526,-648.4575872109585,25538.92630574158
57112,13055,2024,7666,17648,-14057,28931,-8246,-15119,-282,49,-1,49539,2020-11-02 16:01:59,2020-11-02 16:02:29,3,DF:DC:EF:28:D6:3E,49,49,-7650.409886686875,7544.288436614449,10855.970594601353
57113,16902,-15389,27631,-274,32022,-18687,-19510,-25617,22499,49,-1,49565,2020-11-02 16:01:59,2020-11-02 16:02:29,3,DF:DC:EF:28:D6:3E,49,49,27104.76176216785,-23191.393621734267,3669.0922171439706
57114,-24310,483,-30736,-3599,-15342,28413,24778,25069,30944,49,-1,49590,2020-11-02 16:01:59,2020-11-02 16:02:29,3,DF:DC:EF:28:D6:3E,49,49,-22335.401592875434,-7610.575901677569,-31290.894124805418
57115,11533,-30238,16881,15865,-23280,-30213,-23606,8427,15582,49,-1,49616,2020-11-02 16:01:59,2020-11-02 16:02:29,3,DF:DC:EF:28:D6:3E,49,49,2928.890892375215,-23194.999910031154,-28030.848565718028
57116,-3312,-31005,-20490,-23040,13837,13054,20940,18665,-8229,49,-1,49641,2020-11-02 16:01:59,2020-11-02 16:02:29,3,DF:DC:EF:28:D6:3E,49,49,31246.50220802519,13498.445700200893,-15282.91635920987
57117,-30436,-3872,-16385,-505,31499,8194,-18737,24296,-9768,49,1,49667,2020-11-02 16:01:59,2020-11-02 16:02:29,3,DF:DC:EF:28:D6:3E,49,49,5172.568208227369,-5240.707690183619,-33993.97337819287
57118,-9950,28638,-13821,-4079,21772,19198,19925,-23065,-2604,49,1,49693,2020-11-02 16:01:59,2020-11-02 16:02:29,3,DF:DC:EF:28:D6:3E,49,49,19917.382820769984,-26400.985486248133,-4055.047709437229
57119,5417,219,31746,-6888,-21498,18674,21467,14054,6866,49,1,49718,2020-11-02 16:01:59,2020-11-02 16:02:29,3,DF:DC:EF:28:D6:3E,49,49,-12691.160990391452,-28458.23107280391,8140.263074548905
57120,19228,-14634,509,13596,1,12001,21473,-23326,10192,49,1,49744,2020-11-02 16:01:59,2020-11-02 16:02:29,3,DF:DC:EF:28:D6:3E,49,49,-19971.562443746163,-4423.024259915439,-12872.551066193031
57121,21261,-24109,24567,-11748,16130,19928,29183,-16162,-11710,49,1,49769,2020-11-02 16:01:59,2020-11-02 16:02:29,3,DF:DC:EF:28:D6:3E,49,49,30269.68150272746,25964.54310357969,6811.782009561919
57122,-6663,-25141,16884,-6373,23044,20947,15901,-21533,4905,49,1,49795,2020-11-02 16:01:59,2020-11-02 16:02:29,3,DF:DC:EF:28:D6:3E,49,49,10813.955311356684,-4890.230136893102,28647.49423129714
57123,-18710,17095,-1799,-31970,-7936,-25902,-15070,17898,-7385,49,1,49821,2020-11-02 16:01:59,2020-11-02 16:02:29,3,DF:DC:EF:28:D6:3E,49,49,1516.9979859676823,-18556.955841094532,17288.077771176224
57124,-28967,30666,28922,-26846,9724,25303,-23257,-20240,12328,49,1,49846,2020-11-02 16:01:59,2020-11-02 16:02:29,3,DF:DC:EF:28:D6:3E,49,49,26448.293171434147,42974.043177562904,-8348.181256467145
57125,-26392,5584,9719,554,-31743,17885,-26068,-18699,12842,49,1,49872,2020-11-02 16:01:59,2020-11-02 16:02:29,3,DF:DC:EF:28:D6:3E,49,49,-990.8343712465849,28610.748729400337,-1618.9457655750075
57126,31214,25823,-9229,6698,22790,-15641,16690,24569,6189,49,1,49898,2020-11-02 16:01:59,2020-11-02 16:02:29,3,DF:DC:EF:28:D6:3E,49,49,-20214.44234220033,-35839.41860455837,5764.369946585125
57127,-6930,-18445,-2586,30241,8,-17678,-30409,-31750,-3281,49,1,49923,2020-11-02 16:01:59,2020-11-02 16:02:29,3,DF:DC:EF:28:D6:3E,49,49,-19630.035418547694,-2752.3708365903317,1420.03001533419
57128,8435,-14851,-25622,-14322,2302,-4613,-13254,-4870,11825,49,1,49949,2020-11-02 16:01:59,2020-11-02 16:02:29,3,DF:DC:EF:28:D6:3E,49,49,12054.992931699566,14793.451269387246,24166.490331799083
57129,-25608,-13833,31218,-13819,-21771,26115,12092,-3077,-30160,49,1,49974,2020-11-02 16:01:59,2020-11-02 16:02:29,3,DF:DC:EF:28:D6:3E,49,49,14436.32757635412,-30975.376278597247,-25569.583248608345
57130,-27135,-9997,-1809,13834,16893,9475,-23491,-20740,-31185,49,1,50000,2020-11-02 16:01:59,2020-11-02 16:02:29,3,DF:DC:EF:28:D6:3E,49,49,296.782835303967,28865.75538255309,2490.1407878423884
57131,24572,14579,15081,-21742,6407,3840,7488,7164,-29393,49,1,50026,2020-11-02 16:01:59,2020-11-02 16:02:29,3,DF:DC:EF:28:D6:3E,49,49,13254.6307466297,27839.560486736453,-9645.75666683755
57132,-12042,-28939,30943,17171,13067,-26621,15939,-20742,-25809,49,1,50051,2020-11-02 16:01:59,2020-11-02 16:02:29,3,DF:DC:EF:28:D6:3E,49,49,772.1453016808337,23727.23451945548,37099.418697492445
