id,accelerationx,accelerationy,accelerationz,angularvelocityx,angularvelocityy,angularvelocityz,pitch,roll,yaw,mdlcircle_id,hallsensor,timestamp,starttime,endtime,train_mode,blemac,training_id,training_handle_id,accelerationWorldx,accelerationWorldy,accelerationWorldz
1190,-27383,13051,32010,-9218,22527,14080,6644,-18195,-12601,2,1,47098,2020-11-02 14:47:04,2020-11-02 14:47:34,0,C7:F7:8F:B2:48:BE,2,2,-27701.160551951383,-12746.926599688039,-31858.420493445337
1191,-22007,22268,-16629,-15874,-23809,28672,-10765,-20243,-4921,2,1,47124,2020-11-02 14:47:04,2020-11-02 14:47:34,0,C7:F7:8F:B2:48:BE,2,2,25698.973177369935,-1961.3692592987736,24339.501273803835
1192,3592,-17926,-10229,-15106,-20993,30464,-28429,-20499,3528,2,1,47150,2020-11-02 14:47:04,2020-11-02 14:47:34,0,C7:F7:8F:B2:48:BE,2,2,-2585.102102258637,19458.548272105905,7318.369166899293
1193,11791,24060,6157,11007,13824,29952,24051,-18195,8904,2,1,47175,2020-11-02 14:47:04,2020-11-02 14:47:34,0,C7:F7:8F:B2:48:BE,2,2,4700.858622162934,-13161.884269042865,23674.599483470847
1194,-11505,8189,17421,-30977,31232,7680,17907,-15635,9672,2,1,47201,2020-11-02 14:47:04,2020-11-02 14:47:34,0,C7:F7:8F:B2:48:BE,2,2,19382.854055208612,10632.212768224035,-3765.2366891998936
1195,-12534,-14346,11531,-10497,25856,-14593,19699,-12563,4296,2,1,47226,2020-11-02 14:47:04,2020-11-02 14:47:34,0,C7:F7:8F:B2:48:BE,2,2,17437.04290142658,12575.177543291662,-5804.074224930453
1196,-23794,-6916,-32500,19200,-15360,-26625,28147,-8467,-5433,2,1,47252,2020-11-02 14:47:04,2020-11-02 14:47:34,0,C7:F7:8F:B2:48:BE,2,2,-35135.97055065154,-20075.481815614927,-5716.125902625165
1197,-7925,-12034,14860,-14336,-29440,-20481,-24333,-4883,-15161,2,1,47278,2020-11-02 14:47:04,2020-11-02 14:47:34,0,C7:F7:8F:B2:48:BE,2,2,224.41312415167886,8612.815738019226,-18820.505434568884
1198,-3316,27134,16395,2561,24832,-19201,-9485,-2323,-22073,2,1,47303,2020-11-02 14:47:04,2020-11-02 14:47:34,0,C7:F7:8F:B2:48:BE,2,2,7298.593744062697,-27703.74730065545,-13974.217397069313
1199,-13555,-20230,-18166,3841,14592,-14849,4852,-1811,-27193,2,1,47329,2020-11-02 14:47:04,2020-11-02 14:47:34,0,C7:F7:8F:B2:48:BE,2,2,24170.253760885647,2964.752626171903,-18166.0
1200,16905,-19211,13065,-8448,15360,-23041,18676,-1555,32455,2,1,47354,2020-11-02 14:47:04,2020-11-02 14:47:34,0,C7:F7:8F:B2:48:BE,2,2,21264.846077681377,-11338.713155306617,-15645.30844292293
1201,-505,763,-15608,-19712,12544,31487,32500,-1299,24263,2,1,47380,2020-11-02 14:47:04,2020-11-02 14:47:34,0,C7:F7:8F:B2:48:BE,2,2,-10833.091751622374,10023.726619177687,-5159.05861227801
1202,-2036,27902,-503,-22784,14080,20991,-21004,-1555,16071,2,1,47406,2020-11-02 14:47:04,2020-11-02 14:47:34,0,C7:F7:8F:B2:48:BE,2,2,26029.134214372225,9673.338559945392,-3439.564239096391
1203,19465,13046,32009,-29184,-7681,20479,-8972,-4883,7623,2,1,47431,2020-11-02 14:47:04,2020-11-02 14:47:34,0,C7:F7:8F:B2:48:BE,2,2,-18079.084776979318,34740.55757212032,6316.706040729467
1204,-6650,-25605,-8184,25088,-19457,25087,1525,-9491,-58,2,1,47457,2020-11-02 14:47:04,2020-11-02 14:47:34,0,C7:F7:8F:B2:48:BE,2,2,3293.588205644696,-25605.0,-10017.616120197366
1205,-25588,32509,16906,11008,-9985,-18689,5621,-12563,-2618,2,-1,47483,2020-11-02 14:47:04,2020-11-02 14:47:34,0,C7:F7:8F:B2:48:BE,2,2,-4724.217044346695,32509.0,-30302.480976281535
1206,2567,4854,-12536,-22273,17920,6656,6133,-12307,-4922,2,-1,47508,2020-11-02 14:47:04,2020-11-02 14:47:34,0,C7:F7:8F:B2:48:BE,2,2,1376.605928287373,13171.307658235743,3453.072789604151
1207,-16375,2815,-11509,10495,20481,29952,1781,-1555,-7738,2,-1,47534,2020-11-02 14:47:04,2020-11-02 14:47:34,0,C7:F7:8F:B2:48:BE,2,2,-6478.709436356559,15300.038367248118,-11509.0
1208,-17908,-4360,-29940,14591,-3583,-15360,-5132,17646,-10554,2,-1,47559,2020-11-02 14:47:04,2020-11-02 14:47:34,0,C7:F7:8F:B2:48:BE,2,2,3627.241137072696,-13718.649895151884,32167.552452553435
1209,-2552,-9222,25611,-16129,-8191,29952,-3596,-26898,-17978,2,-1,47585,2020-11-02 14:47:04,2020-11-02 14:47:34,0,C7:F7:8F:B2:48:BE,2,2,-22141.312319008866,6159.054586800883,-14809.106805912133
1210,-29680,-4351,13068,5888,8194,-3842,8693,-11026,31174,2,-1,47636,2020-11-02 14:47:04,2020-11-02 14:47:34,0,C7:F7:8F:B2:48:BE,2,2,-18159.229943038168,14334.403553392503,-23138.138811156667
1211,-27882,-5380,29193,-2306,28931,-26630,-17163,-5650,-31547,2,-1,47638,2020-11-02 14:47:04,2020-11-02 14:47:34,0,C7:F7:8F:B2:48:BE,2,2,-35510.735559470704,-18571.797183932966,-7256.55444299856
1212,18710,-27648,-13045,6142,11012,2039,-12042,-4626,-24893,2,-1,47662,2020-11-02 14:47:04,2020-11-02 14:47:34,0,C7:F7:8F:B2:48:BE,2,2,-11960.131491638705,14392.574566457373,30568.89073963392
1213,-240,-27906,30477,-18691,-26365,31220,11768,-10514,14017,2,-1,47687,2020-11-02 14:47:04,2020-11-02 14:47:34,0,C7:F7:8F:B2:48:BE,2,2,1366.4508321114226,35701.71037327097,-20764.649131312046
1214,3343,-20484,4113,21758,-18430,-5902,-11271,-18450,28094,2,-1,47713,2020-11-02 14:47:04,2020-11-02 14:47:34,0,C7:F7:8F:B2:48:BE,2,2,-1798.4808355397918,9554.881726737247,-18792.455291213515
1215,15114,-10244,-23531,-19713,-1278,29683,-20741,-19474,-26437,2,1,47739,2020-11-02 14:47:04,2020-11-02 14:47:34,0,C7:F7:8F:B2:48:BE,2,2,6900.491951754487,-18424.562512438544,-22360.661887542945
1216,777,6905,18709,15105,-25340,-2060,-30723,4335,-21179,2,1,47764,2020-11-02 14:47:04,2020-11-02 14:47:34,0,C7:F7:8F:B2:48:BE,2,2,-3024.5797057245545,15712.238431113501,11928.407944380471
1217,18440,24311,-32237,3587,-5884,-2827,22015,-14865,31299,2,1,47790,2020-11-02 14:47:04,2020-11-02 14:47:34,0,C7:F7:8F:B2:48:BE,2,2,-30010.133305495685,32641.02126396889,2058.6694323055544
1218,-24824,26104,5904,11268,19205,20726,7425,-27920,-28351,2,1,47815,2020-11-02 14:47:04,2020-11-02 14:47:34,0,C7:F7:8F:B2:48:BE,2,2,-29964.207551451,20716.15160704233,2344.0000869462683
1219,25099,14841,-7412,8964,-29434,15606,-14334,-23311,-9409,2,1,47867,2020-11-02 14:47:04,2020-11-02 14:47:34,0,C7:F7:8F:B2:48:BE,2,2,-23989.155097221494,13456.226554240518,-12190.292475671136
1220,22027,504,-28659,12548,-23548,10740,25604,-17678,3134,2,1,47869,2020-11-02 14:47:04,2020-11-02 14:47:34,0,C7:F7:8F:B2:48:BE,2,2,-24396.306546066135,-22018.639097945175,-15059.242516966471
1221,10760,-19723,-11250,2310,-3328,-5647,20742,-32269,-10181,2,1,47892,2020-11-02 14:47:04,2020-11-02 14:47:34,0,C7:F7:8F:B2:48:BE,2,2,23743.6145621444,2098.1945853364587,-7948.281324059262
1222,-9985,31988,-21746,-28920,-26877,-526,31240,-31244,-19399,2,1,47918,2020-11-02 14:47:04,2020-11-02 14:47:34,0,C7:F7:8F:B2:48:BE,2,2,36117.46603543038,17046.47100275937,-875.9900294048766
1223,-13830,5107,-19443,-10742,32258,1528,-32502,-20747,27192,2,1,47944,2020-11-02 14:47:04,2020-11-02 14:47:34,0,C7:F7:8F:B2:48:BE,2,2,6200.021482308941,-23561.517672755566,-1339.8569234566667
1224,-17672,14323,26123,24332,-2045,-8195,24332,28406,2616,2,1,47969,2020-11-02 14:47:04,2020-11-02 14:47:34,0,C7:F7:8F:B2:48:BE,2,2,32677.191298293437,10407.814003299494,4872.126694520438
1225,-10249,-2572,-17657,-21748,-25851,-15356,-7155,-1290,-10440,2,1,47995,2020-11-02 14:47:04,2020-11-02 14:47:34,0,C7:F7:8F:B2:48:BE,2,2,-19209.367170196838,-154.33137763477498,-7375.854441787834
1226,-32519,21238,26116,27660,-16636,-19446,4367,-7178,-30918,2,1,48020,2020-11-02 14:47:04,2020-11-02 14:47:34,0,C7:F7:8F:B2:48:BE,2,2,-31583.323475904814,-31897.150974874225,-13253.259934915648
1227,27643,28663,13058,-1012,-14078,-10482,4624,1782,-23236,2,1,48046,2020-11-02 14:47:04,2020-11-02 14:47:34,0,C7:F7:8F:B2:48:BE,2,2,-39760.900534543965,2184.9042729833527,13058.0
1228,-25606,-14090,-2051,-24049,22269,18,14865,21236,-13506,2,1,48072,2020-11-02 14:47:04,2020-11-02 14:47:34,0,C7:F7:8F:B2:48:BE,2,2,-2819.4506506699254,-24732.12882376179,15452.327943494085
1229,25338,-6925,17912,-3309,-9735,-13034,-2030,28401,-22976,2,1,48097,2020-11-02 14:47:04,2020-11-02 14:47:34,0,C7:F7:8F:B2:48:BE,2,2,24927.209808445084,-18266.795854781052,7467.797089203268
1230,6649,29421,-20242,31507,-11007,10785,-14317,-10515,3396,2,1,48123,2020-11-02 14:47:04,2020-11-02 14:47:34,0,C7:F7:8F:B2:48:BE,2,2,19015.61948776458,-30649.45459185893,-4308.149802191868
1231,25096,-30748,12778,-18937,-13808,-32207,-31218,8938,-21568,2,-1,48148,2020-11-02 14:47:04,2020-11-02 14:47:34,0,C7:F7:8F:B2:48:BE,2,2,5159.230589240102,21922.640825190447,-35089.97239920178
1232,-7902,28901,-15889,-22798,4386,312,2048,19179,12753,2,-1,48174,2020-11-02 14:47:04,2020-11-02 14:47:34,0,C7:F7:8F:B2:48:BE,2,2,-28601.980976684285,-6952.575489435739,16845.121082173548
1233,10289,30689,-1802,7139,25615,2858,5621,-2577,-9510,2,-1,48199,2020-11-02 14:47:04,2020-11-02 14:47:34,0,C7:F7:8F:B2:48:BE,2,2,31383.073477846825,7923.442502098895,-1802.0
1234,30510,-796,2821,25055,11545,-28646,-27666,-27147,26077,2,-1,48225,2020-11-02 14:47:04,2020-11-02 14:47:34,0,C7:F7:8F:B2:48:BE,2,2,13023.588797294007,17549.202119584697,-21491.007347375835
1235,5408,20206,3600,-3359,-16085,-9724,-10262,-24582,4058,2,-1,48251,2020-11-02 14:47:04,2020-11-02 14:47:34,0,C7:F7:8F:B2:48:BE,2,2,-14930.5902746338,13946.643937680059,5749.564933678255
1236,16410,26342,-18684,-30,-31454,-3848,23783,12541,-13612,2,-1,48276,2020-11-02 14:47:04,2020-11-02 14:47:34,0,C7:F7:8F:B2:48:BE,2,2,-22749.840306927355,25644.81066319344,-11707.662963130751
1237,-9189,-27437,10500,16863,1824,-29459,11235,-9220,32207,2,-1,48302,2020-11-02 14:47:04,2020-11-02 14:47:34,0,C7:F7:8F:B2:48:BE,2,2,-19939.544439329515,-16002.155911536025,-17141.244521180375
1238,6928,20938,3596,13282,-20191,-18461,27871,1786,-20279,2,-1,48328,2020-11-02 14:47:04,2020-11-02 14:47:34,0,C7:F7:8F:B2:48:BE,2,2,-8405.982347056404,9877.121389833868,-18196.43310738295
1239,-23295,-9011,274,8944,18208,-26653,8670,1782,-3133,2,-1,48353,2020-11-02 14:47:04,2020-11-02 14:47:34,0,C7:F7:8F:B2:48:BE,2,2,-23295.0,-5099.227128015172,-7434.452212296085
1240,-9474,21459,-19956,2302,12569,-1815,-15137,-15118,-23618,2,-1,48379,2020-11-02 14:47:04,2020-11-02 14:47:34,0,C7:F7:8F:B2:48:BE,2,2,11252.631694049232,28394.700227991045,-3950.5153993629724
1241,-8960,19412,-8441,-2043,-10733,24047,7395,-11024,-9543,2,-1,48405,2020-11-02 14:47:04,2020-11-02 14:47:34,0,C7:F7:8F:B2:48:BE,2,2,6833.818342467634,21915.03712836458,-1178.091475461471
1242,-9729,18644,14598,6411,-7151,-3598,20199,-2065,5442,2,-1,48430,2020-11-02 14:47:04,2020-11-02 14:47:34,0,C7:F7:8F:B2:48:BE,2,2,-9729.0,-20517.489984276646,-11820.86903510514
1243,-27139,23766,-9982,-1521,2321,12024,-4117,19440,9022,2,-1,48456,2020-11-02 14:47:04,2020-11-02 14:47:34,0,C7:F7:8F:B2:48:BE,2,2,-6242.9800163143445,34263.62104413073,13711.960999802383
1244,8702,-8742,5886,-27373,-29171,13053,15600,31729,-30405,2,-1,48481,2020-11-02 14:47:04,2020-11-02 14:47:34,0,C7:F7:8F:B2:48:BE,2,2,5172.464812553557,11442.600479500536,5394.892587385718
1245,-16642,-20765,11770,-15340,-4597,-26367,-7181,7155,21050,2,-1,48507,2020-11-02 14:47:04,2020-11-02 14:47:34,0,C7:F7:8F:B2:48:BE,2,2,-10766.32936567606,2863.262486085692,26880.516530110723
1246,-32512,13797,-18431,28443,12037,23554,-27145,31476,5178,2,1,48532,2020-11-02 14:47:04,2020-11-02 14:47:34,0,C7:F7:8F:B2:48:BE,2,2,-30787.586303665794,4930.305753965171,-24797.292770920543
1247,24574,16616,3837,-27361,17153,20994,-6405,-1036,26938,2,1,48558,2020-11-02 14:47:04,2020-11-02 14:47:34,0,C7:F7:8F:B2:48:BE,2,2,-6824.813984623268,-26576.29170102913,-11908.741935951955
1248,24828,-25621,-32011,-20962,-3588,-22781,20224,-10764,1083,2,1,48584,2020-11-02 14:47:04,2020-11-02 14:47:34,0,C7:F7:8F:B2:48:BE,2,2,-10209.684098129186,29881.99033340442,36061.036456690104
1249,-30726,-27923,-11530,28445,28921,-13819,21764,-1805,-11205,2,1,48609,2020-11-02 14:47:04,2020-11-02 14:47:34,0,C7:F7:8F:B2:48:BE,2,2,8029.094374348379,41670.050230547524,7474.119500747464
1250,-8711,-275,-25097,-5604,4085,-29944,10504,19954,-18372,2,1,48635,2020-11-02 14:47:04,2020-11-02 14:47:34,0,C7:F7:8F:B2:48:BE,2,2,-3651.499870564803,-21702.299700808744,14882.650684321727
1251,10490,15343,23031,-21985,-11538,16907,23308,-27409,18749,2,1,48660,2020-11-02 14:47:04,2020-11-02 14:47:34,0,C7:F7:8F:B2:48:BE,2,2,25722.3650703534,-11142.513300306007,9490.99797386802
1252,-5388,-16662,-23055,26406,-18452,2831,-495,236,-1220,2,1,48686,2020-11-02 14:47:04,2020-11-02 14:47:34,0,C7:F7:8F:B2:48:BE,2,2,-5388.0,-16662.0,-23055.0
1253,15345,-13854,10979,-32473,10230,11290,-233,-4121,4157,2,1,48712,2020-11-02 14:47:04,2020-11-02 14:47:34,0,C7:F7:8F:B2:48:BE,2,2,15345.0,-13854.0,10979.0
1254,23813,5857,-27433,21787,-13044,26668,-18412,227,2118,2,1,48737,2020-11-02 14:47:04,2020-11-02 14:47:34,0,C7:F7:8F:B2:48:BE,2,2,23813.0,-9669.731233695145,26331.924272033375
1255,-7384,-16155,13786,4870,18452,-6097,-7688,-23325,28376,2,1,48763,2020-11-02 14:47:04,2020-11-02 14:47:34,0,C7:F7:8F:B2:48:BE,2,2,-11390.646861987414,-17582.06589456389,-8166.112903010189
1256,-32204,-19212,-8478,-17932,-31234,-11498,-23315,-538,-28445,2,1,48788,2020-11-02 14:47:04,2020-11-02 14:47:34,0,C7:F7:8F:B2:48:BE,2,2,6690.38920591284,-36774.2838415675,-8998.098922174217
1257,1822,-15634,-8214,-2583,9477,13322,28136,-27672,17638,2,-1,48814,2020-11-02 14:47:04,2020-11-02 14:47:34,0,C7:F7:8F:B2:48:BE,2,2,-12273.232828886044,-2293.6436025391386,-12622.138921454045
1258,19221,-15641,30711,994,-8175,21260,-31515,-10262,-19484,2,-1,48840,2020-11-02 14:47:04,2020-11-02 14:47:34,0,C7:F7:8F:B2:48:BE,2,2,-20300.62658958323,31335.044619623703,12777.041197260729
1259,-25317,28902,-6908,-13347,-20964,-18163,-11293,8942,18400,2,-1,48865,2020-11-02 14:47:04,2020-11-02 14:47:34,0,C7:F7:8F:B2:48:BE,2,2,35527.77175639436,-14966.391329872284,6146.634980757416
1260,-18653,8676,5387,733,14881,32264,12514,753,-16166,2,-1,48891,2020-11-02 14:47:04,2020-11-02 14:47:34,0,C7:F7:8F:B2:48:BE,2,2,25.288624671915386,20502.066396385,5647.281466660159
1261,20003,-6690,27407,8414,-29918,-3842,-22304,29938,30676,2,-1,48917,2020-11-02 14:47:04,2020-11-02 14:47:34,0,C7:F7:8F:B2:48:BE,2,2,18792.921991718533,-26546.58820405969,11752.637820389966
1262,23322,30171,-13807,-5919,-15587,31730,20191,-16143,-32562,2,-1,48942,2020-11-02 14:47:04,2020-11-02 14:47:34,0,C7:F7:8F:B2:48:BE,2,2,19396.85542306206,-32857.76047703829,13746.554118411208
1263,-7665,-18217,-22512,-27161,-4837,-10005,10719,-30737,22728,2,-1,48968,2020-11-02 14:47:04,2020-11-02 14:47:34,0,C7:F7:8F:B2:48:BE,2,2,26967.512871665276,-13036.627431135252,-448.38904797009627
1264,-20987,10200,17422,18415,15134,18411,9441,6637,25025,2,-1,48993,2020-11-02 14:47:04,2020-11-02 14:47:34,0,C7:F7:8F:B2:48:BE,2,2,-9410.408464973869,3101.389357446302,27383.313341812143
1265,19200,-13862,21003,-13065,-14311,27120,12517,-11541,-10823,2,-1,49019,2020-11-02 14:47:04,2020-11-02 14:47:34,0,C7:F7:8F:B2:48:BE,2,2,-5046.5753512281535,-16810.588402180063,26341.17020553312
1266,-28674,19677,-20727,1792,8470,-28425,-21783,6636,6208,2,-1,49045,2020-11-02 14:47:04,2020-11-02 14:47:34,0,C7:F7:8F:B2:48:BE,2,2,18549.240427213797,-12578.937900362129,33714.79104002056
1267,-13570,-24609,11271,-14073,-31725,-10498,-29715,-20755,-8645,2,-1,49070,2020-11-02 14:47:04,2020-11-02 14:47:34,0,C7:F7:8F:B2:48:BE,2,2,-6154.602941831039,-23338.339085870986,18281.84928669174
1268,-19458,-27419,-13832,-500,-13297,-12284,-26384,-273,-10695,2,-1,49096,2020-11-02 14:47:04,2020-11-02 14:47:34,0,C7:F7:8F:B2:48:BE,2,2,13376.450607561137,31712.712130755986,-11709.569055062604
1269,-20472,-14110,-14566,-20721,-20213,21511,3827,14322,29753,2,-1,49121,2020-11-02 14:47:04,2020-11-02 14:47:34,0,C7:F7:8F:B2:48:BE,2,2,-14870.85817552172,528.8928072508843,24676.731743121032
1270,18695,-25878,18185,-748,30470,-17914,-16907,-7181,-7879,2,-1,49147,2020-11-02 14:47:04,2020-11-02 14:47:34,0,C7:F7:8F:B2:48:BE,2,2,21175.98016408048,17556.18763242083,24356.23685846613
1271,31493,-22,-13820,23325,-27136,13316,22009,-26380,-25030,2,1,49173,2020-11-02 14:47:04,2020-11-02 14:47:34,0,C7:F7:8F:B2:48:BE,2,2,5196.411308337776,-9033.53938237394,-32774.90516754668
1272,-28673,-13848,-9476,-20191,7420,-5374,-16387,26356,20795,2,1,49198,2020-11-02 14:47:04,2020-11-02 14:47:34,0,C7:F7:8F:B2:48:BE,2,2,-5762.88292803057,3704.02717388174,-32508.029347423682
1273,-17158,18663,12034,-24029,3319,27907,-25342,22515,-4805,2,1,49224,2020-11-02 14:47:04,2020-11-02 14:47:34,0,C7:F7:8F:B2:48:BE,2,2,17869.456624768285,-21306.3121247132,-3774.291003595803
1274,14327,7909,-9471,20263,10227,28679,-8441,30705,-30660,2,1,49249,2020-11-02 14:47:04,2020-11-02 14:47:34,0,C7:F7:8F:B2:48:BE,2,2,7899.51909495803,13673.72902377432,10399.12417719806
1275,11765,11233,20216,-8148,18672,7949,-12531,-17938,14397,2,1,49275,2020-11-02 14:47:04,2020-11-02 14:47:34,0,C7:F7:8F:B2:48:BE,2,2,-8711.37639401582,-13905.061190894914,20100.82994802085
1276,-9227,5595,-15637,-7376,754,-2285,-21484,6379,-22979,2,1,49301,2020-11-02 14:47:04,2020-11-02 14:47:34,0,C7:F7:8F:B2:48:BE,2,2,1040.275476613957,10645.58466708341,15701.804897167529
1277,25591,-3115,1501,-19668,30718,22559,11034,-12570,-22465,2,1,49326,2020-11-02 14:47:04,2020-11-02 14:47:34,0,C7:F7:8F:B2:48:BE,2,2,8497.75818840427,4187.196720428614,24023.134608036482
1278,1807,4323,-10538,21019,-7153,-16086,27155,-9759,-15425,2,1,49352,2020-11-02 14:47:04,2020-11-02 14:47:34,0,C7:F7:8F:B2:48:BE,2,2,-8961.124602538774,6374.092731316573,3474.5085566669068
1279,18727,1777,-30762,17160,-6905,29218,-17161,5858,26334,2,1,49378,2020-11-02 14:47:04,2020-11-02 14:47:34,0,C7:F7:8F:B2:48:BE,2,2,-34494.88340228546,3986.0964831382953,-9714.57440600689
1280,32545,25843,24023,14841,13825,3347,-16404,18916,-23319,2,1,49403,2020-11-02 14:47:04,2020-11-02 14:47:34,0,C7:F7:8F:B2:48:BE,2,2,15757.080771137436,-35209.656607224984,28568.1061705733
1281,22811,-9237,7908,9705,27404,-21746,22760,-13594,-31509,2,1,49429,2020-11-02 14:47:04,2020-11-02 14:47:34,0,C7:F7:8F:B2:48:BE,2,2,-8035.984566859534,1137.5608449676947,24542.39722124128
1282,-26093,-31000,8182,-17183,-3564,-1269,28902,-14359,-22296,2,-1,49454,2020-11-02 14:47:04,2020-11-02 14:47:34,0,C7:F7:8F:B2:48:BE,2,2,17965.573045470806,3518.1187322158758,-37062.79534430565
1283,-15857,29930,20478,-13087,14100,31500,-26908,-19220,6117,2,-1,49480,2020-11-02 14:47:04,2020-11-02 14:47:34,0,C7:F7:8F:B2:48:BE,2,2,37278.45402690355,-6834.354784579458,-11410.797213277185
1284,31260,-19227,-19716,9441,-2280,5645,-25118,-24081,22241,2,-1,49506,2020-11-02 14:47:04,2020-11-02 14:47:34,0,C7:F7:8F:B2:48:BE,2,2,17595.778160313843,-30274.815571390478,-22570.111166126644
1285,31525,-13345,-27905,30172,-32733,-20217,-14880,7154,732,2,-1,49531,2020-11-02 14:47:04,2020-11-02 14:47:34,0,C7:F7:8F:B2:48:BE,2,2,37015.56926504162,-19820.46516184903,-13696.732009966287
1286,-28645,-29226,14599,18905,13615,-18435,20191,19443,14548,2,-1,49557,2020-11-02 14:47:04,2020-11-02 14:47:34,0,C7:F7:8F:B2:48:BE,2,2,-35146.081831883705,12219.081387110433,22433.744313460145
1287,8972,-13870,20747,7644,3376,-18192,-27682,29682,5835,2,-1,49582,2020-11-02 14:47:04,2020-11-02 14:47:34,0,C7:F7:8F:B2:48:BE,2,2,19423.191922356073,17969.029524393438,1779.1252060489492
1288,-24058,9938,-6388,8934,17959,-19735,15327,7408,-32318,2,-1,49608,2020-11-02 14:47:04,2020-11-02 14:47:34,0,C7:F7:8F:B2:48:BE,2,2,-2499.910312467845,-2553.3892752267175,26562.91406526728
1289,-29449,7127,3084,-22031,-6368,31467,1762,-12051,22970,2,-1,49636,2020-11-02 14:47:04,2020-11-02 14:47:34,0,C7:F7:8F:B2:48:BE,2,2,-783.7465765973682,-11810.933539989072,-28061.29676650089
1290,24570,22492,-3572,-13573,29466,-16652,9190,18925,-19393,2,-1,49659,2020-11-02 14:47:04,2020-11-02 14:47:34,0,C7:F7:8F:B2:48:BE,2,2,23845.289665443237,-11912.379530187927,-20293.632565409906
1291,-20481,3039,-501,17158,30482,29179,7658,7150,-18630,2,-1,49685,2020-11-02 14:47:04,2020-11-02 14:47:34,0,C7:F7:8F:B2:48:BE,2,2,9341.597057402698,-752.8030984563293,18469.58946246721
1292,774,20704,23304,-16882,9742,-31744,-19475,-29201,1848,2,-1,49710,2020-11-02 14:47:04,2020-11-02 14:47:34,0,C7:F7:8F:B2:48:BE,2,2,-24705.317077429198,-17208.143981788475,-8115.306328520328
1293,-29943,28897,-31737,-6892,7692,18947,17905,21745,-17098,2,-1,49736,2020-11-02 14:47:04,2020-11-02 14:47:34,0,C7:F7:8F:B2:48:BE,2,2,-36361.14102824962,-21468.39459142198,-30916.540618101906
1294,-22774,-25627,-9471,20761,522,9988,245,3059,23094,2,-1,49762,2020-11-02 14:47:04,2020-11-02 14:47:34,0,C7:F7:8F:B2:48:BE,2,2,-4508.497725708376,33986.34510001454,-9471.0
1295,2310,-19482,-25853,5917,-31993,-12284,-2056,-32012,-28362,2,-1,49787,2020-11-02 14:47:04,2020-11-02 14:47:34,0,C7:F7:8F:B2:48:BE,2,2,30520.2442089868,-5531.755928393006,-9548.633555252638
1296,-18174,-26649,-10496,11553,-5629,-2043,19453,32501,24119,2,-1,49813,2020-11-02 14:47:04,2020-11-02 14:47:34,0,C7:F7:8F:B2:48:BE,2,2,28612.69263042372,-9499.59315462183,-15546.737385495326
1297,-7936,-10520,18682,-25822,-6658,-19194,-8703,-21771,-30920,2,-1,49838,2020-11-02 14:47:04,2020-11-02 14:47:34,0,C7:F7:8F:B2:48:BE,2,2,-8153.938532306425,7816.942833206772,-19876.526637059753
1298,-6915,9963,7927,32544,-23047,-11258,25094,-14348,-27847,2,-1,49864,2020-11-02 14:47:04,2020-11-02 14:47:34,0,C7:F7:8F:B2:48:BE,2,2,-9053.742087973835,11267.565969175104,-993.7979345612775
1299,3577,-12308,-8969,8734,22775,25866,-31222,9971,-30918,2,-1,49915,2020-11-02 14:47:04,2020-11-02 14:47:34,0,C7:F7:8F:B2:48:BE,2,2,-7775.62901969831,-8273.791493070941,-10761.446077419725
1300,-21769,5100,-11273,-12001,-8974,2321,27406,-29712,-15813,2,-1,49917,2020-11-02 14:47:04,2020-11-02 14:47:34,0,C7:F7:8F:B2:48:BE,2,2,-9619.316107453915,7493.022505114683,21870.145435335417
1301,18681,-18972,32752,4133,12017,15639,-5870,-23572,-6340,2,1,49941,2020-11-02 14:47:04,2020-11-02 14:47:34,0,C7:F7:8F:B2:48:BE,2,2,21731.54348014293,-1808.655886751119,-36139.712655940944
1302,20475,-5154,-6170,-28892,-5639,-26338,-12778,9704,5183,2,1,49967,2020-11-02 14:47:04,2020-11-02 14:47:34,0,C7:F7:8F:B2:48:BE,2,2,17166.842181879376,-3465.5443279504843,-13309.68718691229
1303,13576,32736,-26910,29721,2059,-18904,-31982,-26397,8124,2,1,49992,2020-11-02 14:47:04,2020-11-02 14:47:34,0,C7:F7:8F:B2:48:BE,2,2,-24607.61154424981,26622.18217167777,-25803.612973870644
1304,22556,4843,-27675,-28152,14098,-20185,7677,-25885,-18732,2,1,50018,2020-11-02 14:47:04,2020-11-02 14:47:34,0,C7:F7:8F:B2:48:BE,2,2,26401.495099380787,-22402.810573636016,-9960.348634418115
1305,-17121,-5393,-31002,-4611,14086,-9446,-22286,-11290,10208,2,1,50043,2020-11-02 14:47:04,2020-11-02 14:47:34,0,C7:F7:8F:B2:48:BE,2,2,-20109.254292948055,-29534.071567037863,2587.19973226573
1306,-27107,-18194,25832,-10765,-9465,-23534,-28691,29673,29924,2,1,50069,2020-11-02 14:47:04,2020-11-02 14:47:34,0,C7:F7:8F:B2:48:BE,2,2,-28131.048117796414,-10422.033337706256,-28863.96822860575
1307,27931,5098,-11025,-18200,-7659,-2291,-13334,-18964,8420,2,1,50095,2020-11-02 14:47:04,2020-11-02 14:47:34,0,C7:F7:8F:B2:48:BE,2,2,-4715.586085270621,-29825.06162859556,3988.726203047665
1308,-5865,25060,26107,-27168,-13795,-20471,-16152,27376,-21792,2,1,50146,2020-11-02 14:47:04,2020-11-02 14:47:34,0,C7:F7:8F:B2:48:BE,2,2,-27129.444826697207,-17312.1470412387,17557.336421499764
1309,21786,15841,23557,10461,-16357,-19195,-3611,25331,-31012,2,1,50148,2020-11-02 14:47:04,2020-11-02 14:47:34,0,C7:F7:8F:B2:48:BE,2,2,-24286.876775966695,-26257.555916604455,1089.8163860944187
1310,-11487,6111,32012,-14372,-30950,-30720,-21022,4597,17112,2,1,50171,2020-11-02 14:47:04,2020-11-02 14:47:34,0,C7:F7:8F:B2:48:BE,2,2,6173.6046595297275,-9807.43339610662,-32554.024170427307
1311,-13020,1498,29456,9181,19745,12022,-14369,3573,2259,2,1,50197,2020-11-02 14:47:04,2020-11-02 14:47:34,0,C7:F7:8F:B2:48:BE,2,2,-13020.0,26160.87704342966,-13620.148762717497
1312,27670,-23085,28180,-24862,14624,11242,10462,-10766,-19252,2,1,50223,2020-11-02 14:47:04,2020-11-02 14:47:34,0,C7:F7:8F:B2:48:BE,2,2,-23405.562275973854,33214.93653612261,21014.427673549828
1313,9737,-3374,29974,-8980,-23527,12006,13790,21999,-570,2,1,50248,2020-11-02 14:47:04,2020-11-02 14:47:34,0,C7:F7:8F:B2:48:BE,2,2,-11832.781277582137,-25851.201645162924,14011.93711583189
1314,-4090,17112,-10987,30199,17177,-11286,-2336,27116,-23104,2,1,50274,2020-11-02 14:47:04,2020-11-02 14:47:34,0,C7:F7:8F:B2:48:BE,2,2,-20132.896258396202,-2869.1075901456934,4086.260256619078
1315,24061,-3877,-6640,22274,-23020,-9232,7142,-2838,-11591,2,1,50299,2020-11-02 14:47:04,2020-11-02 14:47:34,0,C7:F7:8F:B2:48:BE,2,2,-6837.08292963925,-23332.04619492161,-6849.990319064663
1316,-29185,-26144,-7415,-32502,3090,31737,-23573,21227,833,2,1,50325,2020-11-02 14:47:04,2020-11-02 14:47:34,0,C7:F7:8F:B2:48:BE,2,2,26784.72834824201,22700.549326566557,18908.161560104127
1317,14088,-17180,7429,10255,-20977,-9474,11248,-5652,-16835,2,1,50351,2020-11-02 14:47:04,2020-11-02 14:47:34,0,C7:F7:8F:B2:48:BE,2,2,-19987.41330577979,-6345.889707599143,-10442.565688705252
1318,-22514,32743,28679,11796,-31733,-24066,9204,-32530,-1221,2,1,50376,2020-11-02 14:47:04,2020-11-02 14:47:34,0,C7:F7:8F:B2:48:BE,2,2,34893.03186123755,-6441.427972265163,33800.20146698509
1319,-26101,25319,-23291,3867,-22009,-7172,-28168,-25361,-12742,2,1,50402,2020-11-02 14:47:04,2020-11-02 14:47:34,0,C7:F7:8F:B2:48:BE,2,2,-16949.78950531546,-39624.19659562515,-2722.558149378261
1320,23303,6634,-7685,-10724,-28922,-3076,24829,32752,-1735,2,1,50427,2020-11-02 14:47:04,2020-11-02 14:47:34,0,C7:F7:8F:B2:48:BE,2,2,6607.6641964198625,-10152.29895725063,22346.556552407776
1321,25603,5357,23548,284,-12795,17151,-16383,24817,-18887,2,1,50453,2020-11-02 14:47:04,2020-11-02 14:47:34,0,C7:F7:8F:B2:48:BE,2,2,8283.256836560937,-18196.00046851767,28965.713958562654
1322,8193,-7185,6396,12826,-6397,5122,-29691,1010,7482,2,1,50479,2020-11-02 14:47:04,2020-11-02 14:47:34,0,C7:F7:8F:B2:48:BE,2,2,11302.686455321462,2479.1495884572614,-5075.567575231855
1323,19454,17649,28156,7962,6142,-19708,521,-6927,-9926,2,1,50504,2020-11-02 14:47:04,2020-11-02 14:47:34,0,C7:F7:8F:B2:48:BE,2,2,7729.171956928565,20627.57449044406,31582.72826247616
1324,20731,29681,13309,17435,-20742,-9976,-32500,-13072,-19141,2,1,50530,2020-11-02 14:47:04,2020-11-02 14:47:34,0,C7:F7:8F:B2:48:BE,2,2,36947.680670477224,9653.6113875477,5435.281340524413
1325,250,19183,31738,286,-6154,-8435,8208,-13330,-12484,2,1,50556,2020-11-02 14:47:04,2020-11-02 14:47:34,0,C7:F7:8F:B2:48:BE,2,2,-2219.4347700202634,34420.20796271263,-13626.225673503264
1326,-7176,-7958,-21516,8737,3570,19730,-30188,-23573,25917,2,1,50581,2020-11-02 14:47:04,2020-11-02 14:47:34,0,C7:F7:8F:B2:48:BE,2,2,17634.290547542714,-7694.0335250663575,14408.21435848317
1327,-14855,-17691,18925,-7647,-6670,-30952,6682,-30745,-4036,2,1,50607,2020-11-02 14:47:04,2020-11-02 14:47:34,0,C7:F7:8F:B2:48:BE,2,2,-8683.579920412509,-25483.3264806027,12922.601992200403
1328,6659,-4639,-10523,19996,15872,-31198,25373,-24094,32574,2,1,50632,2020-11-02 14:47:04,2020-11-02 14:47:34,0,C7:F7:8F:B2:48:BE,2,2,-3733.390633345699,-4764.614619381707,-11830.315841414409
1329,-12007,27878,-5152,-29168,17166,20008,17149,7647,-27691,2,1,50659,2020-11-02 14:47:04,2020-11-02 14:47:34,0,C7:F7:8F:B2:48:BE,2,2,-5646.983616045108,17119.867922915437,24958.279895498592
1330,-20951,15856,11488,6914,-14577,8991,7148,10468,9960,2,1,50684,2020-11-02 14:47:04,2020-11-02 14:47:34,0,C7:F7:8F:B2:48:BE,2,2,3697.37354400406,3722.8181775310777,28192.22117345746
1331,22313,-27663,-32029,-11276,-14579,-31470,-20759,7400,-18967,2,1,50709,2020-11-02 14:47:04,2020-11-02 14:47:34,0,C7:F7:8F:B2:48:BE,2,2,-38375.03690265325,-28567.605622695013,465.65084147374
1332,2341,8941,32494,-15128,536,11019,-27672,18155,31463,2,1,50735,2020-11-02 14:47:04,2020-11-02 14:47:34,0,C7:F7:8F:B2:48:BE,2,2,-30422.361424296523,-4452.574573101569,13997.72492373114
1333,-30688,-27411,18685,-12318,-16865,-16891,2536,30190,-32286,2,1,50760,2020-11-02 14:47:04,2020-11-02 14:47:34,0,C7:F7:8F:B2:48:BE,2,2,18733.269606456437,-33304.44985161574,-24127.240205482012
1334,-16604,-18962,27139,26850,12569,23551,-13082,-21520,-29475,2,1,50786,2020-11-02 14:47:04,2020-11-02 14:47:34,0,C7:F7:8F:B2:48:BE,2,2,-26805.948683383856,24196.12001560813,-8231.917903749947
1335,25387,22250,-16887,-30750,-16623,3062,-12572,-7952,-30503,2,1,50812,2020-11-02 14:47:04,2020-11-02 14:47:34,0,C7:F7:8F:B2:48:BE,2,2,30646.21106789899,16825.728645096497,14228.058221112418
1336,-24279,-35,-12272,995,32015,-19477,-542,11503,30165,2,1,50837,2020-11-02 14:47:04,2020-11-02 14:47:34,0,C7:F7:8F:B2:48:BE,2,2,-332.902254015793,1001.9948623101409,27183.786204007258
1337,-30438,-27689,17433,-793,24849,-9243,-21790,16108,28112,2,1,50863,2020-11-02 14:47:04,2020-11-02 14:47:34,0,C7:F7:8F:B2:48:BE,2,2,22263.04020418531,-19924.194994823716,33233.19949500905
1338,25593,9435,32031,-14350,-15084,-7702,-29979,-13847,-26935,2,1,50888,2020-11-02 14:47:04,2020-11-02 14:47:34,0,C7:F7:8F:B2:48:BE,2,2,38959.26763327355,-2211.4806787703583,15725.477852402124
1339,-31482,5344,8985,-26370,17943,17398,-3094,-2839,8386,2,1,50914,2020-11-02 14:47:04,2020-11-02 14:47:34,0,C7:F7:8F:B2:48:BE,2,2,-21506.618136154175,-23603.81402116286,8985.0
1340,30729,28387,-20729,-32508,19985,32244,4848,-534,25020,2,1,50940,2020-11-02 14:47:04,2020-11-02 14:47:34,0,C7:F7:8F:B2:48:BE,2,2,1397.537608788225,-41810.76534377268,-20729.0
1341,-29179,-29976,-17659,1544,26636,6640,-4108,-24085,4164,2,1,50965,2020-11-02 14:47:04,2020-11-02 14:47:34,0,C7:F7:8F:B2:48:BE,2,2,5708.291948536627,-29976.0,33625.43271142056
1342,-29702,9454,-9741,28681,-21494,-18702,-29191,23532,-8897,2,1,50991,2020-11-02 14:47:04,2020-11-02 14:47:34,0,C7:F7:8F:B2:48:BE,2,2,18029.287880761232,-5827.291376236775,-26598.14758078225
1343,20994,-15122,19725,23309,28681,-27658,16637,-22291,3133,2,1,51016,2020-11-02 14:47:04,2020-11-02 14:47:34,0,C7:F7:8F:B2:48:BE,2,2,-17685.063452050876,-11642.919281870683,24701.81180182494
1344,32004,10991,-12796,-16878,-2555,29688,769,-19730,20027,2,1,51042,2020-11-02 14:47:04,2020-11-02 14:47:34,0,C7:F7:8F:B2:48:BE,2,2,28027.89456091643,-15097.383826303749,17184.348724447293
1345,-765,-30223,-6399,-11245,-15099,9978,-21500,-21265,12346,2,1,51068,2020-11-02 14:47:04,2020-11-02 14:47:34,0,C7:F7:8F:B2:48:BE,2,2,-26078.2150013359,-12747.093166134446,-10601.908939336712
1346,-28162,-8974,-1789,-16363,5890,-9476,6408,30192,-22727,2,1,51093,2020-11-02 14:47:04,2020-11-02 14:47:34,0,C7:F7:8F:B2:48:BE,2,2,-649.5922125268883,3284.4802904443286,-29421.448981637648
1347,-27400,-5389,11775,-27367,30197,7681,10508,-20241,825,2,1,51119,2020-11-02 14:47:04,2020-11-02 14:47:34,0,C7:F7:8F:B2:48:BE,2,2,26867.915582882157,-12820.009972436386,-5675.773298657166
1348,-8971,-7948,32506,26649,-17929,2569,13328,-4115,-15816,2,1,51145,2020-11-02 14:47:04,2020-11-02 14:47:34,0,C7:F7:8F:B2:48:BE,2,2,-20135.883382878164,19081.197921604944,-20754.36501721193
1349,-30987,-28431,22779,-15590,-21256,11794,14611,-29717,-2503,2,1,51170,2020-11-02 14:47:04,2020-11-02 14:47:34,0,C7:F7:8F:B2:48:BE,2,2,-42670.21117089538,-8881.415375790399,19691.93516528706
1350,28408,27115,22518,2335,21495,17945,-1771,-1049,-709,2,1,51196,2020-11-02 14:47:04,2020-11-02 14:47:34,0,C7:F7:8F:B2:48:BE,2,2,28408.0,27115.0,22518.0
1351,26878,-6684,-32275,-736,-5383,-29409,-16873,29411,29247,2,1,51221,2020-11-02 14:47:04,2020-11-02 14:47:34,0,C7:F7:8F:B2:48:BE,2,2,-28618.73368462153,3092.2325566696536,31307.89908480256
1352,-8436,10725,31205,-4836,4355,17443,-21751,-1058,-8507,2,-1,51247,2020-11-02 14:47:04,2020-11-02 14:47:34,0,C7:F7:8F:B2:48:BE,2,2,-9786.907507447395,3741.200068979993,-32406.227942858975
1353,-32484,-16153,-18472,-26352,16905,-7135,-24085,15586,-30489,2,-1,51273,2020-11-02 14:47:04,2020-11-02 14:47:34,0,C7:F7:8F:B2:48:BE,2,2,-19734.294436576532,19792.08865428008,29600.258424406067
1354,25639,-14610,-29483,-3841,-21251,2839,8934,486,20462,2,-1,51298,2020-11-02 14:47:04,2020-11-02 14:47:34,0,C7:F7:8F:B2:48:BE,2,2,-27769.500991602865,-13127.816824100115,-28223.623971953733
1355,10021,32238,-13345,-32016,28161,11789,-16159,14312,26353,2,-1,51324,2020-11-02 14:47:04,2020-11-02 14:47:34,0,C7:F7:8F:B2:48:BE,2,2,-2488.535763405069,36207.78211056057,775.7669678607904
1356,-12005,19947,-12562,-8985,22800,-1528,6368,-1815,26095,2,-1,51349,2020-11-02 14:47:04,2020-11-02 14:47:34,0,C7:F7:8F:B2:48:BE,2,2,24003.187579477308,-4868.549541738577,9997.54416764754
1357,24344,-8724,20729,12261,-27367,-15095,26848,-6933,1514,2,-1,51375,2020-11-02 14:47:04,2020-11-02 14:47:34,0,C7:F7:8F:B2:48:BE,2,2,18998.846579174853,21390.145873652196,16731.27135530519
1358,13349,-20754,-22528,-32028,29720,-8697,18144,-10259,-23324,2,-1,51401,2020-11-02 14:47:04,2020-11-02 14:47:34,0,C7:F7:8F:B2:48:BE,2,2,-12013.896390567998,-22387.289621111315,21700.47598411562
1359,27182,22251,16135,-14108,-4591,1790,11487,-30994,19680,2,-1,51426,2020-11-02 14:47:04,2020-11-02 14:47:34,0,C7:F7:8F:B2:48:BE,2,2,-17089.42084238909,26609.147583763006,-22230.863908927076
1360,11560,-21019,-30705,-17946,27148,5619,-30499,15341,5085,2,-1,51452,2020-11-02 14:47:04,2020-11-02 14:47:34,0,C7:F7:8F:B2:48:BE,2,2,-31057.961148619408,23481.474377280116,1500.7985740881618
1361,23573,14307,-16623,-15382,-10733,-28178,27357,-13078,-12328,2,-1,51477,2020-11-02 14:47:04,2020-11-02 14:47:34,0,C7:F7:8F:B2:48:BE,2,2,-15846.02992844842,18078.36144155391,21419.07771346035
1362,14862,29156,27407,-10257,-27883,23535,12512,-29976,19410,2,-1,51503,2020-11-02 14:47:04,2020-11-02 14:47:34,0,C7:F7:8F:B2:48:BE,2,2,-13285.174607895993,39322.616913564845,-9966.49204618853
1363,-8953,-28443,4622,-26892,26134,6641,-28955,17127,-3895,2,-1,51529,2020-11-02 14:47:04,2020-11-02 14:47:34,0,C7:F7:8F:B2:48:BE,2,2,-19882.868881927207,-12500.35153862357,18945.608420816738
1364,-23037,-10265,30476,-7687,-9963,14068,748,25319,20161,2,1,51554,2020-11-02 14:47:04,2020-11-02 14:47:34,0,C7:F7:8F:B2:48:BE,2,2,9374.798313718646,9032.420363906393,-37354.90207384818
1365,11009,18154,13067,-27393,-236,-24840,32497,-5656,-28230,2,1,51580,2020-11-02 14:47:04,2020-11-02 14:47:34,0,C7:F7:8F:B2:48:BE,2,2,-20576.129942062384,-3224.693488486536,-13701.697504786638
1366,-22776,-21525,-16367,-31737,8464,-3846,20469,-1302,17987,2,1,51605,2020-11-02 14:47:04,2020-11-02 14:47:34,0,C7:F7:8F:B2:48:BE,2,2,19214.913344009077,-26597.07874315701,13165.599018370849
1367,-21495,-31765,23821,17167,23818,-1799,-5640,31212,-1216,2,1,51631,2020-11-02 14:47:04,2020-11-02 14:47:34,0,C7:F7:8F:B2:48:BE,2,2,-28939.85382328267,-31765.0,-13854.960363964648
1368,30213,-7187,24585,-5870,30983,-27399,-12036,-32275,15423,2,1,51657,2020-11-02 14:47:04,2020-11-02 14:47:34,0,C7:F7:8F:B2:48:BE,2,2,-25138.640321118415,-5977.273828447367,-30020.35181981047
1369,21504,5360,30467,-24043,7173,28923,-16128,24302,4414,2,1,51684,2020-11-02 14:47:04,2020-11-02 14:47:34,0,C7:F7:8F:B2:48:BE,2,2,-772.1161731461034,25473.01765920536,27747.412725315095
1370,-12035,20978,-25342,-3307,-26364,-1281,9732,10479,-8643,2,1,51708,2020-11-02 14:47:04,2020-11-02 14:47:34,0,C7:F7:8F:B2:48:BE,2,2,25768.70672101862,20313.443656523435,12266.720578026448
1371,25340,18162,-10238,3863,-24832,5637,-1530,27119,-21954,2,1,51734,2020-11-02 14:47:04,2020-11-02 14:47:34,0,C7:F7:8F:B2:48:BE,2,2,11289.988994189203,-16736.244687752667,25869.378621504562
1372,-32260,-20496,-29439,-21222,-12549,-24566,-21495,-25106,13632,2,1,51759,2020-11-02 14:47:04,2020-11-02 14:47:34,0,C7:F7:8F:B2:48:BE,2,2,-33537.63051301055,34505.192814642476,3473.808485960235
1373,-17924,3822,7161,-25057,11509,15119,-14836,-29972,4418,2,1,51785,2020-11-02 14:47:04,2020-11-02 14:47:34,0,C7:F7:8F:B2:48:BE,2,2,-11274.564586867353,4920.965664215529,15356.616531911202
1374,13054,31212,-12821,-12000,-5901,3091,26128,20457,-15037,2,1,51810,2020-11-02 14:47:04,2020-11-02 14:47:34,0,C7:F7:8F:B2:48:BE,2,2,-21100.868460918166,26234.788138780343,13246.250130068478
1375,-1533,25325,-4383,-9447,29949,8729,-28399,-4379,-9798,2,1,51836,2020-11-02 14:47:04,2020-11-02 14:47:34,0,C7:F7:8F:B2:48:BE,2,2,-11966.379929133382,-5861.714494803465,22030.94318391849
1376,21520,14320,29919,22798,4358,4126,-247,30435,710,2,1,51887,2020-11-02 14:47:04,2020-11-02 14:47:34,0,C7:F7:8F:B2:48:BE,2,2,-22585.64514247781,14320.0,29122.93931762501
1377,-11492,11767,28385,-7935,-19704,9243,2044,-9501,-22315,2,1,51889,2020-11-02 14:47:04,2020-11-02 14:47:34,0,C7:F7:8F:B2:48:BE,2,2,31453.69824800391,-7402.332719584936,5666.296394654801
1378,23331,1016,3299,-28683,267,25618,-8717,13798,28381,2,1,51913,2020-11-02 14:47:04,2020-11-02 14:47:34,0,C7:F7:8F:B2:48:BE,2,2,8311.364360397414,4536.266049382218,-21600.803938694917
1379,20000,-14350,15338,-3351,26381,-5367,-10001,-17944,-10786,2,1,51938,2020-11-02 14:47:04,2020-11-02 14:47:34,0,C7:F7:8F:B2:48:BE,2,2,-7914.2546559156,21863.241016765867,-17336.089797994384
1380,-8932,30191,20983,26851,-27381,17413,-32532,-20246,-6435,2,-1,51964,2020-11-02 14:47:04,2020-11-02 14:47:34,0,C7:F7:8F:B2:48:BE,2,2,-7608.511749556856,-9540.438904534898,-35814.15877087849
1381,-19937,11504,25601,-26655,-26100,-3582,16105,10476,12252,2,-1,51990,2020-11-02 14:47:04,2020-11-02 14:47:34,0,C7:F7:8F:B2:48:BE,2,2,30070.989843111303,1736.8940044277083,16672.01112862153
1382,7718,-30226,7177,6370,26890,-23554,25318,1773,-9767,2,-1,52015,2020-11-02 14:47:04,2020-11-02 14:47:34,0,C7:F7:8F:B2:48:BE,2,2,25365.532268068575,7114.9875421752895,18183.911956239295
1383,-20952,-29975,7187,13284,11786,20472,-4125,-14868,18903,2,-1,52041,2020-11-02 14:47:04,2020-11-02 14:47:34,0,C7:F7:8F:B2:48:BE,2,2,2067.940595316294,29983.229477446806,-22042.447001115997
1384,25377,-19482,-3560,-24343,15884,-14350,-6942,-25877,-11309,2,-1,52066,2020-11-02 14:47:04,2020-11-02 14:47:34,0,C7:F7:8F:B2:48:BE,2,2,-14423.640733264321,-2562.8820041385043,-28663.64032760984
1385,-23529,-2587,-12009,7664,-24818,-18449,228,2026,4047,2,-1,52092,2020-11-02 14:47:04,2020-11-02 14:47:34,0,C7:F7:8F:B2:48:BE,2,2,-23529.0,-2587.0,-12009.0
1386,-24562,11493,4882,15861,20496,12783,20711,-22040,-3896,2,-1,52118,2020-11-02 14:47:04,2020-11-02 14:47:34,0,C7:F7:8F:B2:48:BE,2,2,24769.367484840044,-12066.931642777192,-287.07512865304307
1387,-29944,3302,-22767,-8199,17,-28176,19692,8424,-12351,2,-1,52143,2020-11-02 14:47:04,2020-11-02 14:47:34,0,C7:F7:8F:B2:48:BE,2,2,-1374.0634641266238,-2867.6329294039006,37626.735972958784
1388,-11261,22504,-6127,25344,32528,9972,-22543,-16920,15547,2,-1,52169,2020-11-02 14:47:04,2020-11-02 14:47:34,0,C7:F7:8F:B2:48:BE,2,2,20187.653969146828,11502.794698150954,-11442.22912522646
1389,-10495,16363,-16117,-16890,783,-4872,1014,12266,31299,2,-1,52194,2020-11-02 14:47:04,2020-11-02 14:47:34,0,C7:F7:8F:B2:48:BE,2,2,12772.65053173236,14506.675772143983,16250.115059165822
1390,-4347,-12564,18190,-28916,1548,29179,23801,-2325,6465,2,-1,52220,2020-11-02 14:47:04,2020-11-02 14:47:34,0,C7:F7:8F:B2:48:BE,2,2,-20843.06164104382,8217.222448360837,-2381.3109124602906
1391,14853,-5139,-4090,30737,15111,19195,-13572,9197,-20417,2,-1,52246,2020-11-02 14:47:04,2020-11-02 14:47:34,0,C7:F7:8F:B2:48:BE,2,2,-13478.458539311709,-324.8835684163678,-9053.984541130401
1392,-32510,-21009,31748,5908,-24572,4092,21504,-275,-17602,2,-1,52271,2020-11-02 14:47:04,2020-11-02 14:47:34,0,C7:F7:8F:B2:48:BE,2,2,34487.51929559901,-11567.355695682734,-34395.07203140069
1393,21760,-30734,18434,5652,-15869,13055,32259,-25618,28734,2,1,52297,2020-11-02 14:47:04,2020-11-02 14:47:34,0,C7:F7:8F:B2:48:BE,2,2,12005.537969462603,-9002.487638681934,-39149.85295475796
1394,-19455,-26380,-8192,29715,5635,18691,3846,1263,63,2,1,52322,2020-11-02 14:47:04,2020-11-02 14:47:34,0,C7:F7:8F:B2:48:BE,2,2,-19455.0,-26380.0,-8192.0
1395,-5887,19445,11010,-8429,19202,-15354,4872,10223,21568,2,1,52348,2020-11-02 14:47:04,2020-11-02 14:47:34,0,C7:F7:8F:B2:48:BE,2,2,-8767.030416681084,-18391.853129656003,10902.468075172306
1396,-768,4597,-12032,2839,20734,4106,7178,-25106,5442,2,1,52374,2020-11-02 14:47:04,2020-11-02 14:47:34,0,C7:F7:8F:B2:48:BE,2,2,-1490.416880338677,12608.34858928445,2302.055684359172
1397,-17664,-10766,-14341,21786,-4101,-12787,26636,14573,10308,2,1,52399,2020-11-02 14:47:04,2020-11-02 14:47:34,0,C7:F7:8F:B2:48:BE,2,2,15791.168536341253,17530.246814939062,8770.255176685849
1398,-23810,-18960,-21004,-26853,-5383,-15598,-30706,1259,7354,2,1,52425,2020-11-02 14:47:04,2020-11-02 14:47:34,0,C7:F7:8F:B2:48:BE,2,2,-25287.24282683886,-12058.93557212546,-24139.24479108271
1399,-6398,16623,-8726,22808,21245,2841,-6386,14056,26558,2,1,52450,2020-11-02 14:47:04,2020-11-02 14:47:34,0,C7:F7:8F:B2:48:BE,2,2,10615.815849769911,9784.087695024524,13600.650382237005
1400,13581,-8208,-18716,7184,-8703,3358,24330,-23067,-15930,2,1,52476,2020-11-02 14:47:04,2020-11-02 14:47:34,0,C7:F7:8F:B2:48:BE,2,2,-10116.127718310632,-959.6618464740232,-22334.871616538327
1401,-7141,5621,28130,-23548,-26874,-6116,-6657,3301,-30765,2,1,52502,2020-11-02 14:47:04,2020-11-02 14:47:34,0,C7:F7:8F:B2:48:BE,2,2,-27636.21494632801,728.2630631623197,10468.795458465585
1402,-4317,16120,3814,-7944,8455,-11244,3575,-25114,-24100,2,1,52527,2020-11-02 14:47:04,2020-11-02 14:47:34,0,C7:F7:8F:B2:48:BE,2,2,-15930.800577698697,-6216.73682851183,774.1196022705103
1403,20258,-31243,13035,-2322,-28151,18956,-783,-23064,224,2,1,52553,2020-11-02 14:47:04,2020-11-02 14:47:34,0,C7:F7:8F:B2:48:BE,2,2,-3376.5919451162063,-31243.0,-23851.54954790519
1404,-14818,23537,-17932,29671,-11763,11015,-25106,-13590,-3361,2,1,52578,2020-11-02 14:47:04,2020-11-02 14:47:34,0,C7:F7:8F:B2:48:BE,2,2,-20688.72432616495,-1813.8275584050662,-25764.44900137243
1405,-14046,31470,9728,-18205,23567,5892,-13333,-10004,9694,2,-1,52604,2020-11-02 14:47:04,2020-11-02 14:47:34,0,C7:F7:8F:B2:48:BE,2,2,14326.852788726974,14445.867179501434,-29467.663813107916
1406,-17883,-15376,2558,-30238,-30706,-3586,10729,11758,-8741,2,-1,52630,2020-11-02 14:47:04,2020-11-02 14:47:34,0,C7:F7:8F:B2:48:BE,2,2,-10458.615446385824,-3071.520474270884,21070.110439215896
1407,-23771,5611,17159,-7712,-23282,26615,-7962,28654,31960,2,-1,52655,2020-11-02 14:47:04,2020-11-02 14:47:34,0,C7:F7:8F:B2:48:BE,2,2,13602.58406536424,15605.14243691786,-21504.052624289314
1408,-1766,30948,1554,8675,-6643,15601,8677,29933,-31532,2,-1,52681,2020-11-02 14:47:04,2020-11-02 14:47:34,0,C7:F7:8F:B2:48:BE,2,2,-22234.648290476012,-20826.583293333813,5931.797343525907
1409,-19176,-14366,-6892,-6680,-18160,-1044,5093,-6677,32463,2,-1,52708,2020-11-02 14:47:04,2020-11-02 14:47:34,0,C7:F7:8F:B2:48:BE,2,2,-15069.808209336425,298.9644400858424,-19859.811096719444
1410,26127,28385,23057,4079,5905,-10517,487,10986,32201,2,-1,52732,2020-11-02 14:47:04,2020-11-02 14:47:34,0,C7:F7:8F:B2:48:BE,2,2,36726.932630989584,-24089.73625657801,-9527.362153674212
1411,-7670,26338,2839,16885,-18926,-10515,-1558,19177,20930,2,-1,52758,2020-11-02 14:47:04,2020-11-02 14:47:34,0,C7:F7:8F:B2:48:BE,2,2,-11630.702121278311,-24946.325661769846,-1728.198236029483
1412,22521,10213,9482,11260,12305,-22542,-6673,25065,30907,2,-1,52783,2020-11-02 14:47:04,2020-11-02 14:47:34,0,C7:F7:8F:B2:48:BE,2,2,9511.928340730881,15425.800713799901,19312.613121453323
1413,-11015,-5913,6671,26626,7441,6906,-21261,2539,25667,2,-1,52809,2020-11-02 14:47:04,2020-11-02 14:47:34,0,C7:F7:8F:B2:48:BE,2,2,12342.536957648243,3894.5160337514753,-5769.797337163576
1414,-4853,-19737,14875,-23796,32012,-32259,30710,-2324,16961,2,-1,52834,2020-11-02 14:47:04,2020-11-02 14:47:34,0,C7:F7:8F:B2:48:BE,2,2,-5859.827162463289,-8018.881744586696,23145.763417791855
1415,-26357,16107,-3332,24337,-14073,-20486,6394,-2067,-13249,2,-1,52860,2020-11-02 14:47:04,2020-11-02 14:47:34,0,C7:F7:8F:B2:48:BE,2,2,21431.149872846232,19177.987600519653,11753.285869148147
1416,-22775,22510,-16378,-25070,-15867,30199,-7683,-3602,3646,2,1,52886,2020-11-02 14:47:04,2020-11-02 14:47:34,0,C7:F7:8F:B2:48:BE,2,2,-22775.0,-1619.4068840919026,-27790.583033534145
1417,0,16882,2310,-14317,-24572,7928,-5375,-27921,21564,2,1,52911,2020-11-02 14:47:04,2020-11-02 14:47:34,0,C7:F7:8F:B2:48:BE,2,2,-4113.10648504,-16466.3453871199,-1509.9167641949437
1418,-23555,-5899,-27651,-28652,24835,13565,-32251,19696,-28613,2,1,52937,2020-11-02 14:47:04,2020-11-02 14:47:34,0,C7:F7:8F:B2:48:BE,2,2,-32797.608472735395,-31.48497699264044,16689.21550479169
1419,-25094,3064,-510,-28142,259,-4350,10248,-15632,-6597,2,1,52963,2020-11-02 14:47:04,2020-11-02 14:47:34,0,C7:F7:8F:B2:48:BE,2,2,6265.111436441968,-5899.05500736449,-23776.176326504898
1420,25595,-7690,24833,1557,-9730,-24056,25354,28400,9277,2,1,52988,2020-11-02 14:47:04,2020-11-02 14:47:34,0,C7:F7:8F:B2:48:BE,2,2,-24825.727356755327,5423.01324858087,26176.17623935487
1421,26110,-10507,-2565,8214,-27139,-6900,30220,20975,-962,2,1,53014,2020-11-02 14:47:04,2020-11-02 14:47:34,0,C7:F7:8F:B2:48:BE,2,2,-24529.53910944132,-5440.0793471730685,-12938.918879676532
1422,-22529,25843,8953,10776,30968,7951,-25586,25837,-4544,2,1,53039,2020-11-02 14:47:04,2020-11-02 14:47:34,0,C7:F7:8F:B2:48:BE,2,2,4353.220638587884,-23667.764834470207,-26008.826901880602
1423,-11523,-31760,-1547,-27623,6133,-26350,12049,32234,-31422,2,1,53065,2020-11-02 14:47:04,2020-11-02 14:47:34,0,C7:F7:8F:B2:48:BE,2,2,-7269.668915794618,26977.316851100375,-19059.030074221122
1424,-1535,19690,21233,22812,-32012,-32487,-29421,-26138,-27836,2,1,53091,2020-11-02 14:47:04,2020-11-02 14:47:34,0,C7:F7:8F:B2:48:BE,2,2,-1793.26702895585,24681.155203662467,-15116.791497390732
1425,29962,19942,-2586,11034,-30980,-7136,2577,18146,447,2,1,53116,2020-11-02 14:47:04,2020-11-02 14:47:34,0,C7:F7:8F:B2:48:BE,2,2,-30027.091523985364,19942.0,-1668.1170852809896
1426,-25572,-32020,18907,-25075,-13558,-13533,31737,16865,1754,2,1,53142,2020-11-02 14:47:04,2020-11-02 14:47:34,0,C7:F7:8F:B2:48:BE,2,2,43438.206681587086,9047.518082523453,8242.987919082163
1427,-1748,-28683,21723,17914,11284,-4326,27375,-12827,-17692,2,1,53167,2020-11-02 14:47:04,2020-11-02 14:47:34,0,C7:F7:8F:B2:48:BE,2,2,11004.576591787792,-33975.524825671135,-4713.992878195747
1428,26408,-270,-27,-5910,23569,19212,-10260,-29207,-11548,2,-1,53193,2020-11-02 14:47:04,2020-11-02 14:47:34,0,C7:F7:8F:B2:48:BE,2,2,-3355.486647866494,-6926.723411850764,-25262.963110682565
1429,3873,20970,-30221,13282,19981,-14077,4586,-27925,6115,2,-1,53219,2020-11-02 14:47:04,2020-11-02 14:47:34,0,C7:F7:8F:B2:48:BE,2,2,-31370.886569447543,-10045.655472761322,16822.667801791613
1430,-25571,6635,-512,28894,15123,2561,20199,-276,10464,2,-1,53270,2020-11-02 14:47:04,2020-11-02 14:47:34,0,C7:F7:8F:B2:48:BE,2,2,-8349.582948460968,-25027.245692514356,1443.207411736647
1431,-15330,27885,25354,-29473,-13037,17662,17637,10222,-37,2,-1,53272,2020-11-02 14:47:04,2020-11-02 14:47:34,0,C7:F7:8F:B2:48:BE,2,2,-26092.68414651398,-31183.897452053294,1464.1771511951974
1432,-11228,15850,2831,19682,-18925,-28936,-16925,28398,-29481,2,-1,53295,2020-11-02 14:47:04,2020-11-02 14:47:34,0,C7:F7:8F:B2:48:BE,2,2,9285.24488441127,17211.107514920797,1693.2367071237102
1433,-23261,-1310,-15596,-4379,-12783,6896,227,25069,-14894,2,-1,53321,2020-11-02 14:47:04,2020-11-02 14:47:34,0,C7:F7:8F:B2:48:BE,2,2,-12430.263644998628,-24012.69424531611,-7409.756932368826
1434,22,8927,32281,10733,-6381,-6934,5604,24299,3789,2,-1,53347,2020-11-02 14:47:04,2020-11-02 14:47:34,0,C7:F7:8F:B2:48:BE,2,2,-24444.721510694228,8927.0,-21083.620070201483
1435,4362,-11552,11799,30966,16404,6892,3048,-10775,-12603,2,-1,53372,2020-11-02 14:47:04,2020-11-02 14:47:34,0,C7:F7:8F:B2:48:BE,2,2,-7353.257593352435,11692.271487511414,10045.523342670225
1436,20996,-27678,-1776,1790,27156,-8720,-29459,-20503,26046,2,-1,53398,2020-11-02 14:47:04,2020-11-02 14:47:34,0,C7:F7:8F:B2:48:BE,2,2,6438.942376864906,16861.114778177296,29737.19397496247
1437,-18175,13798,32524,13059,-17901,-25866,29938,747,16197,2,-1,53423,2020-11-02 14:47:04,2020-11-02 14:47:34,0,C7:F7:8F:B2:48:BE,2,2,-24354.711294558852,-31134.076953323285,-4005.408221796015
1438,-5374,-11543,30985,-8442,-32239,-22533,-4619,2285,-11967,2,-1,53449,2020-11-02 14:47:04,2020-11-02 14:47:34,0,C7:F7:8F:B2:48:BE,2,2,-8259.6470982445,9690.147306024879,30985.0
1439,-30462,-24084,3848,-13302,-10739,1279,28920,8943,11584,2,-1,53475,2020-11-02 14:47:04,2020-11-02 14:47:34,0,C7:F7:8F:B2:48:BE,2,2,1236.6063585162606,4847.655463960119,38700.7835220014
1440,1543,-7443,24841,-20720,-6649,-13314,763,-22288,32319,2,1,53500,2020-11-02 14:47:04,2020-11-02 14:47:34,0,C7:F7:8F:B2:48:BE,2,2,-8564.97934909454,2715.083819077057,-24374.65543561529
1441,4103,-4627,14857,278,10755,2557,19710,23537,-1218,2,1,53526,2020-11-02 14:47:04,2020-11-02 14:47:34,0,C7:F7:8F:B2:48:BE,2,2,8943.555863621876,2484.0753220248143,13145.963840996294
1442,-18943,-15890,7682,-30183,26624,-1540,16898,-26383,29246,2,1,53552,2020-11-02 14:47:04,2020-11-02 14:47:34,0,C7:F7:8F:B2:48:BE,2,2,-633.1318667964943,826.6026562907886,25870.027929785072
1443,-17411,-25616,770,18714,28415,4864,15878,-25615,17214,2,1,53577,2020-11-02 14:47:04,2020-11-02 14:47:34,0,C7:F7:8F:B2:48:BE,2,2,5019.303336281626,-10776.023566078013,28611.172417811253
1444,22522,-18702,2556,1562,3327,8710,-12535,17905,-7362,2,1,53603,2020-11-02 14:47:04,2020-11-02 14:47:34,0,C7:F7:8F:B2:48:BE,2,2,-2326.6738020482326,22329.66752977685,-18960.77427291649
1445,-22278,-781,25337,-27879,-5124,-11508,-22516,17136,-31936,2,1,53628,2020-11-02 14:47:04,2020-11-02 14:47:34,0,C7:F7:8F:B2:48:BE,2,2,-7981.731113014268,-11651.655044003328,30649.856723565474
1446,-262,-27408,-11015,11037,4597,23313,-23793,-7443,15938,2,1,53654,2020-11-02 14:47:04,2020-11-02 14:47:34,0,C7:F7:8F:B2:48:BE,2,2,-28553.551034754415,-691.0382070780342,-7537.540878962662
1447,25339,8940,-15376,-24800,-30478,2325,-27885,18666,23363,2,1,53680,2020-11-02 14:47:04,2020-11-02 14:47:34,0,C7:F7:8F:B2:48:BE,2,2,19229.93084381752,13402.16315167539,-20223.789941498842
1448,-10757,6635,8419,-25061,-16133,16923,24598,18662,31301,2,1,53705,2020-11-02 14:47:04,2020-11-02 14:47:34,0,C7:F7:8F:B2:48:BE,2,2,4550.543565007786,-8210.582951080924,11937.115056259845
1449,25350,22762,18142,13069,-20470,5668,18446,-14110,-31036,2,1,53732,2020-11-02 14:47:04,2020-11-02 14:47:34,0,C7:F7:8F:B2:48:BE,2,2,24875.263492513266,-4374.620431702162,29188.135779055345
1450,22042,-25880,13285,-19459,17170,-12507,16633,6116,-7206,2,-1,53756,2020-11-02 14:47:04,2020-11-02 14:47:34,0,C7:F7:8F:B2:48:BE,2,2,-7880.400386393161,9848.175790643818,-34249.49798678386
1451,23594,-8726,26095,22004,2576,-19170,8688,-12824,22243,2,-1,53782,2020-11-02 14:47:04,2020-11-02 14:47:34,0,C7:F7:8F:B2:48:BE,2,2,19566.580644042268,24153.3419025768,18642.262036497024
1452,19246,28139,-29709,-4116,-3308,7953,-21012,4333,26596,2,-1,53808,2020-11-02 14:47:04,2020-11-02 14:47:34,0,C7:F7:8F:B2:48:BE,2,2,-36835.49453319411,6383.813548359173,25440.71117470603
1453,4645,-22039,-6408,3303,30230,-31483,-17430,14576,1762,2,-1,53833,2020-11-02 14:47:04,2020-11-02 14:47:34,0,C7:F7:8F:B2:48:BE,2,2,6663.510162385663,20914.147620929587,-8157.945305390827
1454,10527,-25365,-6402,26339,-14057,-23809,-30232,9458,-20002,2,-1,53859,2020-11-02 14:47:04,2020-11-02 14:47:34,0,C7:F7:8F:B2:48:BE,2,2,15995.319509490011,3346.8109681218475,-22981.191616906806
1455,-23269,234,-28413,12256,-30948,-31749,26086,-27149,1242,2,-1,53884,2020-11-02 14:47:04,2020-11-02 14:47:34,0,C7:F7:8F:B2:48:BE,2,2,29130.927840574852,-21655.981906466248,5586.338408477184
1456,23582,2017,-6387,-7458,-12009,-25356,-10781,-17677,16853,2,-1,53910,2020-11-02 14:47:04,2020-11-02 14:47:34,0,C7:F7:8F:B2:48:BE,2,2,13309.084717281235,-18784.790298198684,8424.52962728078
1457,-3047,16089,30235,-25885,3350,20717,-16671,15602,-30512,2,-1,53936,2020-11-02 14:47:04,2020-11-02 14:47:34,0,C7:F7:8F:B2:48:BE,2,2,-26602.128218224487,-16612.031849060477,14094.76949463683
1458,-18163,474,8736,-7697,-30953,-19734,-6687,-3345,10699,2,-1,53961,2020-11-02 14:47:04,2020-11-02 14:47:34,0,C7:F7:8F:B2:48:BE,2,2,-16214.743653678628,-11173.453136952918,4321.223697265126
1459,-25341,7901,-6381,7932,-11241,27118,-9500,16622,10437,2,-1,53987,2020-11-02 14:47:04,2020-11-02 14:47:34,0,C7:F7:8F:B2:48:BE,2,2,1663.652737244267,554.1669331045632,27243.97918036411
1460,-19711,26593,32263,14593,-15850,-3084,2537,5614,17599,2,-1,54012,2020-11-02 14:47:04,2020-11-02 14:47:34,0,C7:F7:8F:B2:48:BE,2,2,15760.937726155333,-29108.48694096369,32263.0
1461,-7676,27109,-9724,-7934,-30443,-4360,-19988,9455,31162,2,-1,54038,2020-11-02 14:47:04,2020-11-02 14:47:34,0,C7:F7:8F:B2:48:BE,2,2,-26842.98598620836,-8706.013027662195,9593.459934059112
1462,-31483,10727,-8955,-8699,-12782,-6150,-19473,-19216,31811,2,-1,54064,2020-11-02 14:47:04,2020-11-02 14:47:34,0,C7:F7:8F:B2:48:BE,2,2,-2848.3836543867155,-32263.711634733998,-11720.898647635873
1463,-12536,-29209,-30962,-8692,-4339,2043,-20238,14578,-6592,2,-1,54089,2020-11-02 14:47:04,2020-11-02 14:47:34,0,C7:F7:8F:B2:48:BE,2,2,40558.89623897344,-17734.14829663135,-3072.1883193050126
1464,9478,744,25095,14100,-6392,-30470,19190,17907,8767,2,-1,54115,2020-11-02 14:47:04,2020-11-02 14:47:34,0,C7:F7:8F:B2:48:BE,2,2,-3356.2329279018904,-13144.740582603883,23153.758670024043
1465,7938,-13078,5381,15127,6,11515,14074,1780,-6339,2,-1,54140,2020-11-02 14:47:04,2020-11-02 14:47:34,0,C7:F7:8F:B2:48:BE,2,2,4751.256574894928,-6382.733586517254,-14131.077875486439
1466,-29954,4846,-22785,-3048,15875,10237,14078,-28940,12605,2,-1,54166,2020-11-02 14:47:04,2020-11-02 14:47:34,0,C7:F7:8F:B2:48:BE,2,2,-19011.6752824344,-3398.864924910855,32663.220557340694
1467,-30213,24049,-21249,-1001,-10494,-11520,-9471,2293,7997,2,1,54192,2020-11-02 14:47:04,2020-11-02 14:47:34,0,C7:F7:8F:B2:48:BE,2,2,-12212.148411164404,-28063.65101137154,-31717.419411037205
1468,28152,-21262,-1027,29975,22017,15366,3589,15605,-8387,2,1,54217,2020-11-02 14:47:04,2020-11-02 14:47:34,0,C7:F7:8F:B2:48:BE,2,2,-24725.75567857103,-843.9608975955098,-25171.158358862678
1469,2296,-271,-7683,14614,-26112,30733,-27641,-3596,-19137,2,1,54243,2020-11-02 14:47:04,2020-11-02 14:47:34,0,C7:F7:8F:B2:48:BE,2,2,-1427.4809358122025,-6255.7010635318675,4816.8504628666815
1470,-10247,-28946,14077,18455,27131,-749,-26871,-21261,30530,2,1,54269,2020-11-02 14:47:04,2020-11-02 14:47:34,0,C7:F7:8F:B2:48:BE,2,2,12050.14584678919,-11592.372939237765,29350.378680840506
1471,26366,-1815,10745,-24550,20980,17944,-26101,-10768,-31419,2,1,54294,2020-11-02 14:47:04,2020-11-02 14:47:34,0,C7:F7:8F:B2:48:BE,2,2,12705.438708662352,18465.88733429834,17649.30701691782
1472,-25857,25061,29941,-17378,-23056,4635,-14835,-11540,1724,2,1,54320,2020-11-02 14:47:04,2020-11-02 14:47:34,0,C7:F7:8F:B2:48:BE,2,2,42811.00189983829,16796.218385879798,-8843.461724114359
1473,17920,-8992,22505,-6367,18673,-12514,-17393,2792,-19265,2,1,54345,2020-11-02 14:47:04,2020-11-02 14:47:34,0,C7:F7:8F:B2:48:BE,2,2,-16036.229609710856,-14485.91904669628,-21010.830023518698
1474,1547,7390,18139,17436,4606,1574,-27637,-26141,22473,2,1,54371,2020-11-02 14:47:04,2020-11-02 14:47:34,0,C7:F7:8F:B2:48:BE,2,2,8312.904570687904,17560.688308502067,2923.4352618580197
1475,8481,-11801,-7466,-12024,-11763,1831,14585,-11805,9183,2,1,54396,2020-11-02 14:47:04,2020-11-02 14:47:34,0,C7:F7:8F:B2:48:BE,2,2,-8006.449597124783,9184.799556782013,10884.316237156901
1476,-212,7662,31456,5110,-31987,6171,20464,488,10216,2,1,54422,2020-11-02 14:47:04,2020-11-02 14:47:34,0,C7:F7:8F:B2:48:BE,2,2,10003.634136579247,-6675.199374031101,-30059.942471308907
1477,-15321,24044,-16919,-29205,-21494,-4852,8172,-3350,-3863,2,1,54448,2020-11-02 14:47:04,2020-11-02 14:47:34,0,C7:F7:8F:B2:48:BE,2,2,-15321.0,27227.876234258354,11090.953645738007
1478,-28645,17893,6897,-25628,13074,-5370,20713,12013,-31256,2,1,54473,2020-11-02 14:47:04,2020-11-02 14:47:34,0,C7:F7:8F:B2:48:BE,2,2,20191.185171439407,2378.100404004779,27837.470482087945
1479,32025,-1052,10745,4832,-25575,23814,2535,-18449,485,2,1,54499,2020-11-02 14:47:04,2020-11-02 14:47:34,0,C7:F7:8F:B2:48:BE,2,2,-33220.844190232536,-1052.0,-6118.101117854539
1480,18209,27881,-26883,9950,-18657,-2045,-11548,8946,20704,2,1,54524,2020-11-02 14:47:04,2020-11-02 14:47:34,0,C7:F7:8F:B2:48:BE,2,2,7147.103080286429,35392.82727005588,-22975.64419971176
1481,-9693,-31773,14081,30683,-9946,30204,-11806,-18189,730,2,-1,54550,2020-11-02 14:47:04,2020-11-02 14:47:34,0,C7:F7:8F:B2:48:BE,2,2,6345.813883961291,26026.05050474478,-24168.733526492404
1482,20771,22229,-21496,-22565,16159,-5392,-29216,17395,-25901,2,-1,54576,2020-11-02 14:47:04,2020-11-02 14:47:34,0,C7:F7:8F:B2:48:BE,2,2,-8334.845840486585,-31532.061418272948,-17997.23160737745
1483,-8944,-29748,24085,-26911,6172,-18201,-5666,-27152,-20019,2,-1,54601,2020-11-02 14:47:04,2020-11-02 14:47:34,0,C7:F7:8F:B2:48:BE,2,2,-28030.896242650615,26053.00523476739,-8974.165090465984
1484,9222,-20784,-29419,20718,23581,-7192,4576,-28435,1991,2,-1,54627,2020-11-02 14:47:04,2020-11-02 14:47:34,0,C7:F7:8F:B2:48:BE,2,2,-28292.274081068168,-20784.0,12250.309070456884
1485,7935,-12326,-5874,8444,28187,-14098,-30492,-11029,26815,2,-1,54652,2020-11-02 14:47:04,2020-11-02 14:47:34,0,C7:F7:8F:B2:48:BE,2,2,-8603.168867474844,-13229.228407961928,-609.4080469477817
1486,4097,23774,24070,-6908,-21225,27638,14570,4076,8517,2,-1,54678,2020-11-02 14:47:04,2020-11-02 14:47:34,0,C7:F7:8F:B2:48:BE,2,2,28955.788555455016,-13723.443271640506,11600.98266966404
1487,-25084,15330,-2812,-23542,29714,-30982,-4370,27117,-29888,2,-1,54704,2020-11-02 14:47:04,2020-11-02 14:47:34,0,C7:F7:8F:B2:48:BE,2,2,-9445.71529183651,22111.774626774466,-17145.587930435595
1488,-29179,-7195,14340,-13299,-21744,5886,-17422,15855,-15555,2,-1,54729,2020-11-02 14:47:04,2020-11-02 14:47:34,0,C7:F7:8F:B2:48:BE,2,2,8251.622745463408,-3949.2733206116263,32017.676809938228
1489,-19962,28904,-5372,-20207,-8180,6656,1270,9457,21564,2,-1,54757,2020-11-02 14:47:04,2020-11-02 14:47:34,0,C7:F7:8F:B2:48:BE,2,2,11073.790233305215,-30774.71139589201,13894.93981161158
1490,26887,23787,9473,28949,-9976,-16384,19961,-22542,-12997,2,-1,54781,2020-11-02 14:47:04,2020-11-02 14:47:34,0,C7:F7:8F:B2:48:BE,2,2,-11905.225595604848,33787.08935957604,9755.411991596184
1491,-15610,-27667,21762,-6121,13317,-257,-15876,-22797,-21701,2,1,54806,2020-11-02 14:47:04,2020-11-02 14:47:34,0,C7:F7:8F:B2:48:BE,2,2,-8632.355261236818,-32848.59560556493,-18143.0935175305
1492,-13054,28911,-26370,6681,3842,17407,-32768,5364,-26309,2,1,54832,2020-11-02 14:47:04,2020-11-02 14:47:34,0,C7:F7:8F:B2:48:BE,2,2,-16810.979636545628,-31768.38045455143,20243.28787412072
1493,17918,8433,13821,-7656,32511,-20480,13316,10740,-22213,2,1,54857,2020-11-02 14:47:04,2020-11-02 14:47:34,0,C7:F7:8F:B2:48:BE,2,2,-13449.57943954227,14322.089610313707,-14041.966247416562
1494,-24838,-22286,26873,28695,25341,21764,-26873,-14605,4668,2,1,54883,2020-11-02 14:47:04,2020-11-02 14:47:34,0,C7:F7:8F:B2:48:BE,2,2,41644.6980470409,-5770.451721843499,-8256.584069496374
1495,5115,-25613,-31495,6677,28413,23562,17418,-7182,13885,2,1,54909,2020-11-02 14:47:04,2020-11-02 14:47:34,0,C7:F7:8F:B2:48:BE,2,2,-18595.590038502723,-30980.243425439174,19197.722974886135
1496,-15620,28146,30459,7446,15099,-4081,23308,24049,13119,2,1,54934,2020-11-02 14:47:04,2020-11-02 14:47:34,0,C7:F7:8F:B2:48:BE,2,2,-21459.49753662321,35706.31982344359,15115.590863132735
1497,18429,27885,21499,31771,20213,23572,-20466,-19986,27969,2,1,54960,2020-11-02 14:47:04,2020-11-02 14:47:34,0,C7:F7:8F:B2:48:BE,2,2,-8996.958323734789,27175.483149933203,27567.301708521925
1498,-3074,17895,-30222,-16608,14320,-27369,2066,-16918,12099,2,1,54985,2020-11-02 14:47:04,2020-11-02 14:47:34,0,C7:F7:8F:B2:48:BE,2,2,-28240.269714376307,18704.466550147212,9781.609404065592
1499,24321,-6172,15590,3104,-20750,22811,-10219,4838,-27324,2,1,55011,2020-11-02 14:47:04,2020-11-02 14:47:34,0,C7:F7:8F:B2:48:BE,2,2,-23301.660782972533,12011.08364472775,13616.871866718637
1500,-32247,998,6109,26902,12541,-10720,-32748,18145,-23363,2,1,55037,2020-11-02 14:47:04,2020-11-02 14:47:34,0,C7:F7:8F:B2:48:BE,2,2,-16896.075502385578,28091.707847895836,1887.7173533537994
1501,-19945,-11544,-17188,1033,12806,6947,-4109,8416,-17952,2,1,55062,2020-11-02 14:47:04,2020-11-02 14:47:34,0,C7:F7:8F:B2:48:BE,2,2,23357.858694301885,14990.276449732079,7496.422758731911
1502,-24794,-17686,-6178,-9731,13062,-18658,-3097,-31004,17389,2,1,55088,2020-11-02 14:47:04,2020-11-02 14:47:34,0,C7:F7:8F:B2:48:BE,2,2,15323.532089631273,15680.465338184076,22023.103484206044
1503,-9679,-1299,-28961,27378,3850,-8940,-20508,25576,16623,2,1,55113,2020-11-02 14:47:04,2020-11-02 14:47:34,0,C7:F7:8F:B2:48:BE,2,2,9001.579200357988,-12938.069044543437,-26185.64309499213
1504,1833,-5400,-536,22502,-12523,5643,-14365,15851,19436,2,1,55139,2020-11-02 14:47:04,2020-11-02 14:47:34,0,C7:F7:8F:B2:48:BE,2,2,-4114.130087334669,-1191.1438011311714,-3802.9324303114327
1505,290,7402,-5643,26081,24088,10759,-14878,27629,-19737,2,1,55165,2020-11-02 14:47:04,2020-11-02 14:47:34,0,C7:F7:8F:B2:48:BE,2,2,-4254.49261215797,7688.028200331581,3083.937094689126
1506,2336,7150,10748,-17442,-15075,6403,-21535,5103,16610,2,1,55190,2020-11-02 14:47:04,2020-11-02 14:47:34,0,C7:F7:8F:B2:48:BE,2,2,4085.1100353788197,4438.597865892355,-11649.447411089637
1507,22559,-30233,-22784,26844,-8418,-4868,-29472,-10257,-1317,2,1,55216,2020-11-02 14:47:04,2020-11-02 14:47:34,0,C7:F7:8F:B2:48:BE,2,2,42022.29032208017,13272.171820815225,-173.19712920772827
1508,29732,15580,11278,7133,12309,-26125,-21026,2031,-22570,2,1,55241,2020-11-02 14:47:04,2020-11-02 14:47:34,0,C7:F7:8F:B2:48:BE,2,2,-31386.503886315488,9498.322459026635,-13363.785102232556
1509,25,-3882,4890,23013,-16108,10475,-25635,31724,-13103,2,1,55267,2020-11-02 14:47:04,2020-11-02 14:47:34,0,C7:F7:8F:B2:48:BE,2,2,-3508.6372942656235,-4871.057567795526,-1716.0744472517326
1510,-16374,3803,-5097,8690,-9451,-21013,-20001,-24855,-16181,2,1,55318,2020-11-02 14:47:04,2020-11-02 14:47:34,0,C7:F7:8F:B2:48:BE,2,2,-9951.586103203605,-10969.016438281895,9444.400796621589
1511,29953,27359,28429,-18181,-29930,17137,29413,6888,-13629,2,-1,55320,2020-11-02 14:47:04,2020-11-02 14:47:34,0,C7:F7:8F:B2:48:BE,2,2,31473.634553898402,-15386.581036882952,-35022.40115930212
1512,-10489,22243,11019,-16384,10773,-1546,-11029,-29208,16572,2,-1,55344,2020-11-02 14:47:04,2020-11-02 14:47:34,0,C7:F7:8F:B2:48:BE,2,2,-13027.653386802654,-22694.156099290347,6437.7058937460115
1513,-25082,27878,31496,-1276,28691,4346,-5648,1514,31299,2,-1,55369,2020-11-02 14:47:04,2020-11-02 14:47:34,0,C7:F7:8F:B2:48:BE,2,2,19618.075993270333,31959.67306344466,31496.0
1514,9223,-27160,-26616,-8438,24336,-20997,-3340,-1045,320,2,-1,55395,2020-11-02 14:47:04,2020-11-02 14:47:34,0,C7:F7:8F:B2:48:BE,2,2,9223.0,-27160.0,-26616.0
1515,29698,-7187,16885,18704,18700,27644,-29448,-16403,830,2,-1,55421,2020-11-02 14:47:04,2020-11-02 14:47:34,0,C7:F7:8F:B2:48:BE,2,2,-10447.246655898616,-18230.1165046113,27879.119203072285
1516,-23547,2028,23048,-16363,13832,28924,14332,7919,-10180,2,-1,55446,2020-11-02 14:47:04,2020-11-02 14:47:34,0,C7:F7:8F:B2:48:BE,2,2,-28741.56707616913,4411.903944552272,15628.234788040361
1517,-20992,-24853,-9470,16410,11268,-27651,20224,-2577,14652,2,-1,55472,2020-11-02 14:47:04,2020-11-02 14:47:34,0,C7:F7:8F:B2:48:BE,2,2,-14852.048269136467,-29883.1076629185,5867.973382494338
1518,-30979,-14612,17920,-18918,-27905,25345,16388,12528,19260,2,-1,55498,2020-11-02 14:47:04,2020-11-02 14:47:34,0,C7:F7:8F:B2:48:BE,2,2,7352.288167483246,9269.077673968644,36801.67717341456
1519,-15874,16622,-11009,18457,-20227,19974,-28409,-18961,8253,2,-1,55523,2020-11-02 14:47:04,2020-11-02 14:47:34,0,C7:F7:8F:B2:48:BE,2,2,9114.728368175252,9506.814620792113,-21817.76898631651
1520,10753,-7187,16127,9753,-18690,-5622,9482,-7442,-10434,2,-1,55549,2020-11-02 14:47:04,2020-11-02 14:47:34,0,C7:F7:8F:B2:48:BE,2,2,-12759.577835650856,-12431.449290931485,10488.677179843342
1521,-14590,-20757,4861,12827,1532,-26355,29708,-28435,6465,2,-1,55574,2020-11-02 14:47:04,2020-11-02 14:47:34,0,C7:F7:8F:B2:48:BE,2,2,14887.641621927294,20915.834061432797,-2869.927255465845
1522,-11519,-7448,-16647,-13536,-29453,28174,-14321,9451,-19134,2,-1,55600,2020-11-02 14:47:04,2020-11-02 14:47:34,0,C7:F7:8F:B2:48:BE,2,2,-6950.1106580641135,11168.582581836969,17095.06943400206
1523,22017,3302,4849,25127,-8725,-29939,18198,-23321,-22207,2,-1,55626,2020-11-02 14:47:04,2020-11-02 14:47:34,0,C7:F7:8F:B2:48:BE,2,2,16936.897487081267,6407.504374554031,-13829.305304395122
1524,3068,2534,-1827,-20952,22508,2829,14114,-26652,-30661,2,-1,55651,2020-11-02 14:47:04,2020-11-02 14:47:34,0,C7:F7:8F:B2:48:BE,2,2,-492.8300990626957,473.0400335352389,-4324.934753280197
1525,-16649,4584,29392,4125,20986,14356,-4048,-26654,-14799,2,-1,55677,2020-11-02 14:47:04,2020-11-02 14:47:34,0,C7:F7:8F:B2:48:BE,2,2,-9617.248628914167,-32029.41428561003,-6611.888560041587
1526,15369,-3610,16854,8204,-3574,-11490,-9799,-2081,-11746,2,-1,55702,2020-11-02 14:47:04,2020-11-02 14:47:34,0,C7:F7:8F:B2:48:BE,2,2,4726.456827383422,-19065.159039667735,12143.965318258133
1527,9244,-1816,5855,25346,10246,22558,-1068,14818,13572,2,-1,55728,2020-11-02 14:47:04,2020-11-02 14:47:34,0,C7:F7:8F:B2:48:BE,2,2,1036.6040064698636,2098.82322193459,-10842.085141560121
1528,9500,19437,-4895,19707,-17402,-29418,18905,-2331,23295,2,-1,55754,2020-11-02 14:47:04,2020-11-02 14:47:34,0,C7:F7:8F:B2:48:BE,2,2,-20249.58854981544,4936.5777780365115,7588.96286751882
1529,15635,-28181,7653,24306,-25585,-11758,-25637,-9496,-4614,2,-1,55780,2020-11-02 14:47:04,2020-11-02 14:47:34,0,C7:F7:8F:B2:48:BE,2,2,30603.37729770611,12628.521382965875,-1069.6451066684995
1530,-22763,30438,25068,-28693,24852,-9966,-9764,-19477,-267,2,-1,55805,2020-11-02 14:47:04,2020-11-02 14:47:34,0,C7:F7:8F:B2:48:BE,2,2,24238.291288984765,37539.716233178784,8735.306378298255
1531,27937,-29211,-23822,24038,13594,24081,8157,-28946,-19472,2,1,55830,2020-11-02 14:47:04,2020-11-02 14:47:34,0,C7:F7:8F:B2:48:BE,2,2,28309.747729308892,-270.3851964189489,-37412.98236372566
1532,32298,17639,-7,-9246,10522,-18935,27612,-31504,18923,2,1,55856,2020-11-02 14:47:04,2020-11-02 14:47:34,0,C7:F7:8F:B2:48:BE,2,2,5226.2330646094915,10906.538615956526,-34756.71269514755
1533,22313,15335,-18176,-4639,-18412,-6147,-20262,-24848,-13850,2,1,55882,2020-11-02 14:47:04,2020-11-02 14:47:34,0,C7:F7:8F:B2:48:BE,2,2,-15053.00282137044,9753.469482237202,-27233.73109066918
1534,-3297,13795,9222,27874,-17899,-21515,-13864,-2834,-11294,2,1,55907,2020-11-02 14:47:04,2020-11-02 14:47:34,0,C7:F7:8F:B2:48:BE,2,2,444.1417696158578,4203.318814448815,-16381.464129698026
1535,-23018,18399,8715,-24605,4124,3570,6616,18156,-13091,2,1,55933,2020-11-02 14:47:04,2020-11-02 14:47:34,0,C7:F7:8F:B2:48:BE,2,2,-8297.668387938864,-24396.79967559377,-16740.597806313483
1536,-16628,24797,10259,23273,9501,-12816,10970,21993,-27690,2,1,55958,2020-11-02 14:47:04,2020-11-02 14:47:34,0,C7:F7:8F:B2:48:BE,2,2,-16802.367675222093,12163.888829384457,-23798.086541842556
1537,24328,-28960,18454,-20749,-24551,28914,14559,13543,-307,2,1,55984,2020-11-02 14:47:04,2020-11-02 14:47:34,0,C7:F7:8F:B2:48:BE,2,2,-41051.79649383024,-4728.562328235885,-7967.057357464929
1538,14600,-15388,790,11519,24854,30709,-8986,-20250,-23356,2,1,56010,2020-11-02 14:47:04,2020-11-02 14:47:34,0,C7:F7:8F:B2:48:BE,2,2,16470.56142374937,-7367.244208017951,-11181.187913899183
1539,4108,-29979,-24049,-23031,-32751,14327,21230,22503,21437,2,1,56035,2020-11-02 14:47:04,2020-11-02 14:47:34,0,C7:F7:8F:B2:48:BE,2,2,-3376.1966273623025,-32925.83665642377,-19961.48999468446
1540,16138,21224,21001,27919,19727,13562,30964,-15896,15685,2,1,56061,2020-11-02 14:47:04,2020-11-02 14:47:34,0,C7:F7:8F:B2:48:BE,2,2,-26438.48671275513,-5090.431533675479,20664.683596426843
1541,-22515,11242,2053,31252,-30197,-9479,-26887,22250,29250,2,1,56086,2020-11-02 14:47:04,2020-11-02 14:47:34,0,C7:F7:8F:B2:48:BE,2,2,-1926.7226483208278,-24869.00387895494,-3917.0121144785408
1542,-502,-3605,29700,13079,13832,-4361,-26114,-30741,21824,2,1,56112,2020-11-02 14:47:04,2020-11-02 14:47:34,0,C7:F7:8F:B2:48:BE,2,2,23999.930906404927,16902.93458985444,-5799.32304143265
1543,8710,10733,30472,-11497,-764,-15112,-27645,30700,-26050,2,1,56138,2020-11-02 14:47:04,2020-11-02 14:47:34,0,C7:F7:8F:B2:48:BE,2,2,13754.187756367479,30089.238810002073,5006.415883369663
1544,4096,24560,14592,31256,-14588,-14340,-13817,24813,-8131,2,1,56163,2020-11-02 14:47:04,2020-11-02 14:47:34,0,C7:F7:8F:B2:48:BE,2,2,12732.923138781047,-14189.248395141603,21666.452832036575
1545,-29955,29169,-21249,6425,-12285,-24574,8459,-5139,25918,2,1,56189,2020-11-02 14:47:04,2020-11-02 14:47:34,0,C7:F7:8F:B2:48:BE,2,2,45039.10515883038,681.1238423776413,13063.983458469429
1546,-27908,7664,18687,-7398,30722,19721,-10227,-16147,3904,2,1,56214,2020-11-02 14:47:04,2020-11-02 14:47:34,0,C7:F7:8F:B2:48:BE,2,2,8297.076655557317,19865.445165278587,-26894.607942059978
1547,-2305,-26643,-31750,-5603,-28673,3087,18704,-27412,-26814,2,1,56240,2020-11-02 14:47:04,2020-11-02 14:47:34,0,C7:F7:8F:B2:48:BE,2,2,-38026.37235271415,-3179.8319335509277,-16343.458892385857
1548,20995,30956,4850,19488,21241,1297,18195,16618,-11964,2,1,56266,2020-11-02 14:47:04,2020-11-02 14:47:34,0,C7:F7:8F:B2:48:BE,2,2,-24689.164209313552,21340.655504039052,-18910.52760510606
1549,22527,2541,26599,1311,-29709,32274,24,-1818,3653,2,1,56291,2020-11-02 14:47:04,2020-11-02 14:47:34,0,C7:F7:8F:B2:48:BE,2,2,22527.0,2541.0,26599.0
1550,32257,-28435,-24611,-5610,1021,-29671,-10213,12003,22853,2,1,56317,2020-11-02 14:47:04,2020-11-02 14:47:34,0,C7:F7:8F:B2:48:BE,2,2,8810.961229804436,35181.61569335559,-33754.78446697473
1551,18453,-12815,8920,-28664,3083,-14306,-8179,-27169,12489,2,1,56343,2020-11-02 14:47:04,2020-11-02 14:47:34,0,C7:F7:8F:B2:48:BE,2,2,-423.73791930569314,-472.5335334630473,-24164.043375136855
1552,-15576,-13065,-9517,16632,-1011,27413,26867,-27935,-17693,2,1,56368,2020-11-02 14:47:04,2020-11-02 14:47:34,0,C7:F7:8F:B2:48:BE,2,2,-21959.376530411882,-4481.1167427356495,1258.8348317273358
1553,-14557,-30480,-8229,16104,-13300,-24056,26606,5604,4326,2,1,56394,2020-11-02 14:47:04,2020-11-02 14:47:34,0,C7:F7:8F:B2:48:BE,2,2,-14557.0,13695.329830033952,28446.173413072316
1554,-18921,21739,21227,5342,23573,-23547,-31252,29414,227,2,1,56419,2020-11-02 14:47:04,2020-11-02 14:47:34,0,C7:F7:8F:B2:48:BE,2,2,-31130.928256870528,-14188.553328489365,-10522.554409942166
1555,13337,-6165,-7947,-16936,-12773,-6395,3307,-28695,6622,2,1,56445,2020-11-02 14:47:04,2020-11-02 14:47:34,0,C7:F7:8F:B2:48:BE,2,2,3114.329494940166,-6559.998086962491,-15043.436439058536
1556,-8158,-1049,-19969,-22827,4887,28672,-18968,8684,7129,2,1,56470,2020-11-02 14:47:04,2020-11-02 14:47:34,0,C7:F7:8F:B2:48:BE,2,2,8171.207285794968,9432.331630799072,17626.026707661556
1557,2350,-4898,-2286,32726,-31730,2549,27621,28396,-3372,2,1,56496,2020-11-02 14:47:04,2020-11-02 14:47:34,0,C7:F7:8F:B2:48:BE,2,2,-5472.228567717308,1471.4959507160472,-1621.1459433637854
1558,-14562,-9256,-1761,-21794,-4333,493,10724,235,27087,2,1,56522,2020-11-02 14:47:04,2020-11-02 14:47:34,0,C7:F7:8F:B2:48:BE,2,2,6855.013208733041,13320.865625679497,-8740.127796015684
1559,-31988,30427,-29916,4588,-3050,-26134,-10778,30185,-28473,2,-1,56547,2020-11-02 14:47:04,2020-11-02 14:47:34,0,C7:F7:8F:B2:48:BE,2,2,-13638.727961049524,29152.7224719715,-42521.82264528055
1560,29957,28896,-6888,-12808,-9194,16111,19948,10985,1215,2,-1,56573,2020-11-02 14:47:04,2020-11-02 14:47:34,0,C7:F7:8F:B2:48:BE,2,2,25355.237848524368,-27634.788566250107,-19320.341185999016
1561,-8954,997,-18157,-31232,21013,28151,22769,29674,14149,2,-1,56598,2020-11-02 14:47:04,2020-11-02 14:47:34,0,C7:F7:8F:B2:48:BE,2,2,6853.811535140529,-18761.27841043764,-3447.386524139859
1562,-30192,-25622,-15088,15106,21780,-5638,-14348,-28692,19777,2,-1,56624,2020-11-02 14:47:04,2020-11-02 14:47:34,0,C7:F7:8F:B2:48:BE,2,2,-19168.099438972902,5820.213483477228,37341.673381148794
1563,-30969,29164,-25333,-9461,-8179,-24840,5624,27374,28222,2,-1,56650,2020-11-02 14:47:04,2020-11-02 14:47:34,0,C7:F7:8F:B2:48:BE,2,2,-3691.8229841851735,-48892.056506942936,-6878.662629853348
1564,11781,-20242,-17914,-28913,-7156,9980,26619,15088,-22212,2,-1,56675,2020-11-02 14:47:04,2020-11-02 14:47:34,0,C7:F7:8F:B2:48:BE,2,2,-19523.538220185474,-2453.408638858582,-21960.286027639326
1565,8452,13810,27138,-21744,-21751,-9730,15870,-12559,1340,2,-1,56701,2020-11-02 14:47:04,2020-11-02 14:47:34,0,C7:F7:8F:B2:48:BE,2,2,-4666.629205726411,-30423.50138191139,7159.370329931067
1566,-27899,11253,-17663,27921,4871,14336,-15872,3827,1340,2,-1,56726,2020-11-02 14:47:04,2020-11-02 14:47:34,0,C7:F7:8F:B2:48:BE,2,2,-27899.0,-20743.820801687012,-2881.9223701372193
1567,-9213,-8969,-30466,-11246,14595,-17665,27651,-15885,8508,2,-1,56752,2020-11-02 14:47:04,2020-11-02 14:47:34,0,C7:F7:8F:B2:48:BE,2,2,3421.521748279789,-26494.619319563964,-19489.171917694097
1568,18942,10488,-32251,-22509,-31744,-8704,11014,1012,17468,2,-1,56778,2020-11-02 14:47:04,2020-11-02 14:47:34,0,C7:F7:8F:B2:48:BE,2,2,-23381.87568697997,-29803.580260357518,-8599.941977888158
1569,-8197,-3338,-13822,-25833,-25861,-22781,22281,-31501,-29892,2,-1,56804,2020-11-02 14:47:04,2020-11-02 14:47:34,0,C7:F7:8F:B2:48:BE,2,2,-2104.8902310360872,11410.492948604782,11608.222292200015
1570,27642,-27659,-30210,10521,8186,-16377,-12788,23282,3901,2,-1,56829,2020-11-02 14:47:04,2020-11-02 14:47:34,0,C7:F7:8F:B2:48:BE,2,2,-46616.161155079055,-15959.669912346431,-3737.2450351352545
1571,-9223,-30989,-22277,2842,7161,-6643,4880,-30736,4926,2,-1,56855,2020-11-02 14:47:04,2020-11-02 14:47:34,0,C7:F7:8F:B2:48:BE,2,2,-23978.17240319807,-30989.0,2525.016079653834
1572,25851,17135,-16392,-29414,16633,-236,-6126,-13843,-15297,2,-1,56880,2020-11-02 14:47:04,2020-11-02 14:47:34,0,C7:F7:8F:B2:48:BE,2,2,-8454.498619941032,-7575.070122961483,33192.165577401414
1573,-17923,28904,19189,-8678,-15109,-21220,-20972,8682,-19902,2,-1,56906,2020-11-02 14:47:04,2020-11-02 14:47:34,0,C7:F7:8F:B2:48:BE,2,2,25154.33712764692,29754.338185818706,2613.7231667898723
1574,20228,3042,19439,21017,-9983,11301,-15342,-10523,-17732,2,-1,56931,2020-11-02 14:47:04,2020-11-02 14:47:34,0,C7:F7:8F:B2:48:BE,2,2,-17547.318264921698,-19077.10590041489,11155.990371719614
1575,-9962,-23070,-27161,-29423,-22770,-20950,18692,-32541,27343,2,-1,56957,2020-11-02 14:47:04,2020-11-02 14:47:34,0,C7:F7:8F:B2:48:BE,2,2,7219.213160611787,-32446.685356393667,16256.747390694058
1576,2091,30955,21730,26112,25113,-13020,32502,-27673,23007,2,-1,56983,2020-11-02 14:47:04,2020-11-02 14:47:34,0,C7:F7:8F:B2:48:BE,2,2,34943.11421699083,-4854.558822134779,13790.91126288495
1577,-26575,-12818,19687,-24594,8725,12052,-17679,32236,-3102,2,1,57008,2020-11-02 14:47:04,2020-11-02 14:47:34,0,C7:F7:8F:B2:48:BE,2,2,9416.519184159388,15467.953420099115,-30498.87377343633
1578,16422,-22556,-5389,-3871,-31724,26884,24046,-26641,-287,2,1,57034,2020-11-02 14:47:04,2020-11-02 14:47:34,0,C7:F7:8F:B2:48:BE,2,2,4850.639634998008,10665.176864985206,-25888.643042267988
1579,20502,10210,4100,30685,-18922,-30722,5867,-22031,-5666,2,1,57059,2020-11-02 14:47:04,2020-11-02 14:47:34,0,C7:F7:8F:B2:48:BE,2,2,-21821.861858849305,2066.4555052013316,-7805.268134940728
1580,16659,25064,31502,22752,26900,-19203,2024,13043,20443,2,1,57085,2020-11-02 14:47:04,2020-11-02 14:47:34,0,C7:F7:8F:B2:48:BE,2,2,-25031.84538339617,-21749.160576145012,-28257.443478397112
1581,8734,-9239,-27119,-8732,18958,-774,13029,-18189,25560,2,1,57111,2020-11-02 14:47:04,2020-11-02 14:47:34,0,C7:F7:8F:B2:48:BE,2,2,27489.774334769132,-11779.641815775007,-1623.0784686863317
1582,-7649,-14363,-26603,17128,31502,-23308,739,4339,26325,2,1,57136,2020-11-02 14:47:04,2020-11-02 14:47:34,0,C7:F7:8F:B2:48:BE,2,2,-5870.234184122005,15177.0656130744,-26603.0
1583,2329,18402,-21990,-4627,25615,-12561,-5663,28913,-47,2,1,57162,2020-11-02 14:47:04,2020-11-02 14:47:34,0,C7:F7:8F:B2:48:BE,2,2,21747.39402978627,18402.0,-4004.3968226458956
1584,12814,-26398,31768,-13323,23057,8174,-26398,31215,-6707,2,1,57187,2020-11-02 14:47:04,2020-11-02 14:47:34,0,C7:F7:8F:B2:48:BE,2,2,17361.996542773537,-39601.59611401965,730.4007603932978
1585,22534,15588,-31473,26364,-19182,-26896,9189,1518,2249,2,1,57213,2020-11-02 14:47:04,2020-11-02 14:47:34,0,C7:F7:8F:B2:48:BE,2,2,22534.0,34905.84864873149,-3888.0847614024733
1586,-253,17127,13066,-20480,-495,-27660,-27416,-29459,8900,2,1,57239,2020-11-02 14:47:04,2020-11-02 14:47:34,0,C7:F7:8F:B2:48:BE,2,2,19992.928403194568,-7884.2279578095895,1496.7489348683744
1587,23308,-23065,-26609,-30205,32016,-24328,2796,-2323,-6721,2,1,57290,2020-11-02 14:47:04,2020-11-02 14:47:34,0,C7:F7:8F:B2:48:BE,2,2,-6815.162119419532,-32075.078398751095,-26609.0
1588,13577,-22807,-5363,16396,18954,-13833,-17169,-32274,-25412,2,1,57292,2020-11-02 14:47:04,2020-11-02 14:47:34,0,C7:F7:8F:B2:48:BE,2,2,-20407.193791108737,16568.227756847817,-6503.554225909893
1589,1544,-8982,20232,25107,-31227,27895,-7437,-16658,17338,2,1,57315,2020-11-02 14:47:04,2020-11-02 14:47:34,0,C7:F7:8F:B2:48:BE,2,2,15562.631701439852,-14513.084102964101,-6290.386979004552
1590,31492,-17428,16127,-7659,15873,-16393,22264,-27922,6213,2,1,57341,2020-11-02 14:47:04,2020-11-02 14:47:34,0,C7:F7:8F:B2:48:BE,2,2,-31259.258115335237,-20962.36075044327,-11789.808770591813
1591,-27902,18672,5375,4117,17152,25593,-29188,26094,-23229,2,-1,57367,2020-11-02 14:47:04,2020-11-02 14:47:34,0,C7:F7:8F:B2:48:BE,2,2,-2417.3629219431814,2581.1373153269246,-33816.41464825982
1592,28930,10226,-29693,1046,-8964,-22534,-28928,6894,-32702,2,-1,57392,2020-11-02 14:47:04,2020-11-02 14:47:34,0,C7:F7:8F:B2:48:BE,2,2,-25321.291493992925,25004.626207492744,-23596.421133294945
1593,-14849,1779,20994,-30696,29433,-7173,-6396,24045,25921,2,-1,57418,2020-11-02 14:47:04,2020-11-02 14:47:34,0,C7:F7:8F:B2:48:BE,2,2,12623.429915352554,-13881.564981732026,-17673.6201393527
1594,-12548,-23564,-11778,-8424,-2822,-31745,16393,-27156,-27072,2,-1,57443,2020-11-02 14:47:04,2020-11-02 14:47:34,0,C7:F7:8F:B2:48:BE,2,2,-12712.808768489123,-16667.651000388072,20298.019296105926
1595,-10503,24565,3581,2585,23547,15109,-8948,-15125,-15552,2,-1,57469,2020-11-02 14:47:04,2020-11-02 14:47:34,0,C7:F7:8F:B2:48:BE,2,2,5900.083642136624,-26242.90732811963,-1753.4602885486593
1596,19959,-29965,16634,5404,25074,-19702,-22000,-12055,4417,2,-1,57495,2020-11-02 14:47:04,2020-11-02 14:47:34,0,C7:F7:8F:B2:48:BE,2,2,2822.902058409565,32012.515374700175,23241.83610116059
1597,13557,8175,-4621,6432,-12567,2832,14615,15334,-4802,2,-1,57520,2020-11-02 14:47:04,2020-11-02 14:47:34,0,C7:F7:8F:B2:48:BE,2,2,2866.1578026193724,799.8630205885866,-16221.031829041549
1598,8696,27371,-10011,-10721,-28686,30743,-29407,17378,20537,2,-1,57546,2020-11-02 14:47:04,2020-11-02 14:47:34,0,C7:F7:8F:B2:48:BE,2,2,2802.289809551993,-17938.89126782369,-24399.908399510026
1599,25093,-27670,5853,8213,-9468,5664,-24268,-1827,9514,2,-1,57571,2020-11-02 14:47:04,2020-11-02 14:47:34,0,C7:F7:8F:B2:48:BE,2,2,2066.0435367357823,28493.807090153503,-24766.501158085095
1600,-15850,-3861,5344,-20728,13317,-20449,-24354,15585,29429,2,-1,57597,2020-11-02 14:47:04,2020-11-02 14:47:34,0,C7:F7:8F:B2:48:BE,2,2,-1241.8224366464328,-1162.724015931016,17081.98193707682
1601,22557,-276,-3362,19969,17655,-6634,-10533,21477,-264,2,-1,57623,2020-11-02 14:47:04,2020-11-02 14:47:34,0,C7:F7:8F:B2:48:BE,2,2,-22554.83016946192,-2978.1488873437547,-1614.848052153385
1602,-6628,13804,22756,-1801,-25599,28946,3802,29160,8954,2,-1,57648,2020-11-02 14:47:04,2020-11-02 14:47:34,0,C7:F7:8F:B2:48:BE,2,2,-24421.583174826497,-12485.702117909472,99.26659993389512
1603,22556,20972,-1812,30705,-10741,28687,19674,-11030,-32265,2,-1,57674,2020-11-02 14:47:04,2020-11-02 14:47:34,0,C7:F7:8F:B2:48:BE,2,2,21986.491044136314,2033.992623457183,21548.51153963622
1604,-228,-15634,499,1775,15633,16141,-5158,-18196,31987,2,-1,57699,2020-11-02 14:47:04,2020-11-02 14:47:34,0,C7:F7:8F:B2:48:BE,2,2,-14947.769541402477,-4583.694977022009,-526.1816176412719
1605,-29147,18673,28149,29421,12559,-13303,-1830,13806,-22801,2,-1,57725,2020-11-02 14:47:04,2020-11-02 14:47:34,0,C7:F7:8F:B2:48:BE,2,2,-34712.57568334084,-23809.91678336444,14789.174797722633
1606,-26326,-21008,-11016,-32278,15888,-25598,9434,-18450,25324,2,-1,57751,2020-11-02 14:47:04,2020-11-02 14:47:34,0,C7:F7:8F:B2:48:BE,2,2,-20790.186100469306,-20887.587379310018,19677.99408932581
1607,-1756,-25876,-20737,-22041,-21741,-18693,23769,-2579,28136,2,-1,57776,2020-11-02 14:47:04,2020-11-02 14:47:34,0,C7:F7:8F:B2:48:BE,2,2,2070.998092505206,531.5855992910965,33137.62913443667
1608,-28386,12779,4872,24296,6418,12790,-26152,16364,-29980,2,-1,57802,2020-11-02 14:47:04,2020-11-02 14:47:34,0,C7:F7:8F:B2:48:BE,2,2,16569.445634548978,13568.21686415025,23111.927299364594
1609,-9961,26089,25609,-3094,-7144,-30733,27353,-5655,26591,2,1,57828,2020-11-02 14:47:04,2020-11-02 14:47:34,0,C7:F7:8F:B2:48:BE,2,2,8272.815642246125,6016.796795856722,-36483.379786784775
1610,22288,-537,-13048,-29970,8987,-25358,19165,-22041,-25641,2,1,57853,2020-11-02 14:47:04,2020-11-02 14:47:34,0,C7:F7:8F:B2:48:BE,2,2,13811.29478993478,-19621.368260812167,-9567.845149202254
1611,-13300,-31257,8969,15603,-23526,-271,25572,26342,15565,2,1,57879,2020-11-02 14:47:04,2020-11-02 14:47:34,0,C7:F7:8F:B2:48:BE,2,2,-22763.953966292003,-15666.334330249283,-21695.653446563694
1612,-5876,4074,-5358,17147,-4588,22258,8940,30182,19651,2,1,57904,2020-11-02 14:47:04,2020-11-02 14:47:34,0,C7:F7:8F:B2:48:BE,2,2,1209.4264236006575,-6950.019743564546,-5483.386662452278
1613,1545,-27414,32525,21765,15,-21261,8179,7655,-9541,2,1,57930,2020-11-02 14:47:04,2020-11-02 14:47:34,0,C7:F7:8F:B2:48:BE,2,2,-37540.98360804264,-19602.068382092042,-4268.900430375721
1614,-19454,24301,22018,10761,29966,-13576,-27912,-28440,-18109,2,1,57956,2020-11-02 14:47:04,2020-11-02 14:47:34,0,C7:F7:8F:B2:48:BE,2,2,-20178.092105154996,30000.165207081445,12108.828495924012
1615,-16123,-10768,-21243,-31220,-21237,-22789,7164,26090,31297,2,1,57981,2020-11-02 14:47:04,2020-11-02 14:47:34,0,C7:F7:8F:B2:48:BE,2,2,18960.706243685097,-21590.78261044608,1222.9991860749114
1616,2310,32242,-23291,-31729,24328,-25604,8703,-12821,24896,2,1,58007,2020-11-02 14:47:04,2020-11-02 14:47:34,0,C7:F7:8F:B2:48:BE,2,2,37290.33729093322,-13459.48626972747,-3953.0139240145872
1617,4870,-2574,-27642,32018,29701,-3588,11522,-10004,-15041,2,1,58032,2020-11-02 14:47:04,2020-11-02 14:47:34,0,C7:F7:8F:B2:48:BE,2,2,25942.535358348756,-6287.397988211428,9048.537214304843
1618,28163,-32014,4103,8213,30723,-18434,23813,32237,-31681,2,1,58058,2020-11-02 14:47:04,2020-11-02 14:47:34,0,C7:F7:8F:B2:48:BE,2,2,-26638.54781197311,-5335.369674417696,33118.07625612524
1619,-6401,20721,3077,15896,-24320,21507,29704,-18707,1344,2,1,58084,2020-11-02 14:47:04,2020-11-02 14:47:34,0,C7:F7:8F:B2:48:BE,2,2,9017.804599253217,8828.374138121988,17903.619223135483
1620,-1283,31215,28162,29978,6909,-9719,15883,1261,28481,2,1,58109,2020-11-02 14:47:04,2020-11-02 14:47:34,0,C7:F7:8F:B2:48:BE,2,2,-28372.178847218194,26200.090296237635,16664.19196752303
1621,10238,29419,-15874,30494,29431,-18673,-6387,9195,-28093,2,1,58135,2020-11-02 14:47:04,2020-11-02 14:47:34,0,C7:F7:8F:B2:48:BE,2,2,12797.135042927257,-18699.0991216672,-26624.33300068094
1622,6397,-9497,16887,-16093,20978,27923,25873,-6425,29509,2,1,58160,2020-11-02 14:47:04,2020-11-02 14:47:34,0,C7:F7:8F:B2:48:BE,2,2,20107.40941171637,-1035.4068851248167,3302.333467694635
1623,-17925,4323,32492,10791,-19726,24087,6166,-11037,2490,2,1,58212,2020-11-02 14:47:04,2020-11-02 14:47:34,0,C7:F7:8F:B2:48:BE,2,2,-27518.36621609308,-25005.348370110205,-3632.642521142705
1624,7178,485,-7716,12577,-25344,-21733,-28396,-19489,17857,2,1,58214,2020-11-02 14:47:04,2020-11-02 14:47:34,0,C7:F7:8F:B2:48:BE,2,2,7011.61765360791,-6577.7775688487445,-4343.457739447246
1625,-1513,19183,-16937,-24303,10245,11289,13553,-28705,32488,2,1,58237,2020-11-02 14:47:04,2020-11-02 14:47:34,0,C7:F7:8F:B2:48:BE,2,2,13653.291478646723,-20004.94660927808,8398.117048424974
1626,10007,30450,11995,5635,-17407,15635,28135,19170,-18957,2,1,58263,2020-11-02 14:47:04,2020-11-02 14:47:34,0,C7:F7:8F:B2:48:BE,2,2,12594.889516321635,12730.392682179405,29163.82063840683
1627,27,4082,7651,-12298,-4602,30736,22756,-2844,8438,2,1,58288,2020-11-02 14:47:04,2020-11-02 14:47:34,0,C7:F7:8F:B2:48:BE,2,2,4323.642051735792,-2744.0919675067025,-6998.38071858963
1628,-19429,17646,26603,10478,25869,16652,-21021,30439,20980,2,1,58314,2020-11-02 14:47:04,2020-11-02 14:47:34,0,C7:F7:8F:B2:48:BE,2,2,-19974.642382962997,16701.150535431316,-26808.06219154231
1629,-24033,23273,25334,28392,-22000,16394,11491,-17687,1521,2,1,58340,2020-11-02 14:47:04,2020-11-02 14:47:34,0,C7:F7:8F:B2:48:BE,2,2,22293.87773230308,-32721.126338163464,-13904.678378843073
1630,3622,7403,-2047,31974,-5355,23047,-21534,-14101,-8212,2,1,58365,2020-11-02 14:47:04,2020-11-02 14:47:34,0,C7:F7:8F:B2:48:BE,2,2,-7706.891256741304,-2096.3481386485128,2884.900975484144
1631,-22751,1010,5894,-32280,1307,-15358,6883,27373,25831,2,1,58391,2020-11-02 14:47:04,2020-11-02 14:47:34,0,C7:F7:8F:B2:48:BE,2,2,-11065.086507253676,-6058.592629917318,-19855.09136044718
1632,-32225,15091,2566,-12312,-25059,-20226,-6429,-21522,27361,2,1,58442,2020-11-02 14:47:04,2020-11-02 14:47:34,0,C7:F7:8F:B2:48:BE,2,2,-14091.494175541451,-32093.015107872016,6651.423545871934
1633,-5854,11246,3854,-25,27671,-18698,14564,5871,-19749,2,1,58444,2020-11-02 14:47:04,2020-11-02 14:47:34,0,C7:F7:8F:B2:48:BE,2,2,-5206.3728815017885,7525.002714037521,9584.527300419708
1634,-18662,23270,-6891,1004,16916,-17429,-19484,-17683,19414,2,1,58468,2020-11-02 14:47:04,2020-11-02 14:47:34,0,C7:F7:8F:B2:48:BE,2,2,-14407.805781967509,26306.071135829905,-6136.348991522575
1635,-22264,23011,-24298,9204,31766,9193,-28441,-3093,31695,2,1,58493,2020-11-02 14:47:04,2020-11-02 14:47:34,0,C7:F7:8F:B2:48:BE,2,2,-3105.174279180581,22299.13252038088,33297.01491927478
1636,-31738,8934,1555,-3588,-8938,19949,-31764,32747,-4409,2,-1,58519,2020-11-02 14:47:04,2020-11-02 14:47:34,0,C7:F7:8F:B2:48:BE,2,2,-17640.979376332874,1043.1107178272832,-27879.074440772816
1637,-12535,-12313,-13295,13831,-4079,25839,2034,5612,30913,2,-1,58544,2020-11-02 14:47:04,2020-11-02 14:47:34,0,C7:F7:8F:B2:48:BE,2,2,-15362.940088708765,8527.383293293737,-13295.0
1638,15621,-5910,13063,525,11790,-27919,27639,4845,-25668,2,-1,58570,2020-11-02 14:47:04,2020-11-02 14:47:34,0,C7:F7:8F:B2:48:BE,2,2,-20615.954091103536,2834.9709912889803,-4065.8438720715076
1639,-27642,2287,8197,13839,24331,-11788,-3077,25838,-4539,2,-1,58596,2020-11-02 14:47:04,2020-11-02 14:47:34,0,C7:F7:8F:B2:48:BE,2,2,11864.506913872872,2287.0,-26277.45133552078
1640,20487,-29967,6403,8720,-760,-1547,-8705,-15633,-22461,2,-1,58621,2020-11-02 14:47:04,2020-11-02 14:47:34,0,C7:F7:8F:B2:48:BE,2,2,32729.710628962966,15578.014545504406,6695.38437764417
1641,26885,9972,-766,1552,-2298,2551,22019,1521,-2239,2,-1,58672,2020-11-02 14:47:04,2020-11-02 14:47:34,0,C7:F7:8F:B2:48:BE,2,2,26885.0,-9764.107249925784,2165.582972768937
1642,-15358,-10505,-10754,30734,31750,-10760,20998,14834,-12736,2,-1,58674,2020-11-02 14:47:04,2020-11-02 14:47:34,0,C7:F7:8F:B2:48:BE,2,2,4709.223043771914,-18347.82984478731,10151.456216264723
1643,1791,26105,30983,-29938,16132,-24325,-15864,19955,13632,2,-1,58698,2020-11-02 14:47:04,2020-11-02 14:47:34,0,C7:F7:8F:B2:48:BE,2,2,-12850.198045568899,-13515.895103058341,36011.35910727031
1644,18172,761,4871,31506,9727,-2306,28683,-25357,-5313,2,-1,58724,2020-11-02 14:47:04,2020-11-02 14:47:34,0,C7:F7:8F:B2:48:BE,2,2,-11384.59395767017,4886.787065021663,-14178.775638260055
1645,-25095,-25097,31746,28949,15614,-9981,28174,18931,3648,2,-1,58749,2020-11-02 14:47:04,2020-11-02 14:47:34,0,C7:F7:8F:B2:48:BE,2,2,24595.89999523638,40429.94596885955,5280.920599614014
1646,15352,-25611,-32003,1303,-14852,-15863,24849,20210,-10432,2,1,58775,2020-11-02 14:47:04,2020-11-02 14:47:34,0,C7:F7:8F:B2:48:BE,2,2,-11432.628821413986,3962.1188483677433,-42064.18721980948
1647,3831,17394,11002,-17640,23286,-10993,-25580,4848,-31167,2,1,58800,2020-11-02 14:47:04,2020-11-02 14:47:34,0,C7:F7:8F:B2:48:BE,2,2,19973.508008739696,-1913.3199373546768,5972.435486644645
1648,-15619,-23570,-23052,-28646,22776,26390,6936,-20244,9538,2,1,58826,2020-11-02 14:47:04,2020-11-02 14:47:34,0,C7:F7:8F:B2:48:BE,2,2,5210.008127195804,20445.46977155437,29761.23898857388
1649,-15613,20203,-9233,-16102,-14854,11036,6939,-25624,32067,2,1,58852,2020-11-02 14:47:04,2020-11-02 14:47:34,0,C7:F7:8F:B2:48:BE,2,2,23391.007467144962,-13202.943405271839,3964.633918681214
1650,-12019,-15640,-28186,2327,8450,-32480,-6885,-7453,15290,2,1,58877,2020-11-02 14:47:04,2020-11-02 14:47:34,0,C7:F7:8F:B2:48:BE,2,2,31228.43233765609,9064.339175182393,-11231.1765211704
1651,22562,-1812,-13347,-8692,-12283,12320,17935,-26401,-10551,2,1,58903,2020-11-02 14:47:04,2020-11-02 14:47:34,0,C7:F7:8F:B2:48:BE,2,2,424.7485929227669,6144.674006708396,-25544.709177911816
1652,553,27893,3296,-4610,13065,19991,5105,-14112,-3864,2,1,58928,2020-11-02 14:47:04,2020-11-02 14:47:34,0,C7:F7:8F:B2:48:BE,2,2,-3227.1735194280163,27893.0,-868.7784962247794
1653,-6364,12278,-22043,-28429,7946,19214,28139,-27933,27117,2,1,58954,2020-11-02 14:47:04,2020-11-02 14:47:34,0,C7:F7:8F:B2:48:BE,2,2,-23948.71752938239,10071.519686334415,1472.0899787822273
1654,6428,9715,-27667,-26134,-13041,15882,-6423,4070,2540,2,1,58980,2020-11-02 14:47:04,2020-11-02 14:47:34,0,C7:F7:8F:B2:48:BE,2,2,6428.0,-18031.940835171095,-23123.434513862536
1655,-9702,2031,-18180,24037,32529,-10999,-19224,-22296,1769,2,1,59005,2020-11-02 14:47:04,2020-11-02 14:47:34,0,C7:F7:8F:B2:48:BE,2,2,7105.467397295837,-4576.236507123891,-18903.347785427646
1656,16669,-3344,-13057,-541,-27890,18182,-9754,-10006,14822,2,1,59031,2020-11-02 14:47:04,2020-11-02 14:47:34,0,C7:F7:8F:B2:48:BE,2,2,6400.437761688594,16758.401986334382,11735.139765813386
1657,1059,-10767,-20213,25317,30727,-23296,13796,-13333,16868,2,1,59057,2020-11-02 14:47:04,2020-11-02 14:47:34,0,C7:F7:8F:B2:48:BE,2,2,-21125.15054552935,-8773.914696722637,1536.7414627567227
1658,25641,753,24851,5355,21252,18939,-4639,-26133,-20766,2,-1,59082,2020-11-02 14:47:04,2020-11-02 14:47:34,0,C7:F7:8F:B2:48:BE,2,2,-1920.471773850928,-1034.368437862895,-35648.87040427221
1659,-14035,25070,23061,-13328,-28155,-6156,-16928,26346,-4640,2,-1,59108,2020-11-02 14:47:04,2020-11-02 14:47:34,0,C7:F7:8F:B2:48:BE,2,2,33688.876936132365,10536.506767790186,10551.655884951904
1660,32028,-3094,11286,17142,-24058,-12052,30689,8424,-291,2,-1,59133,2020-11-02 14:47:04,2020-11-02 14:47:34,0,C7:F7:8F:B2:48:BE,2,2,22495.267191955005,9944.76856202496,-23617.873490437552
1661,-22485,5354,-5616,-8711,-25336,19943,-22044,20965,19673,2,-1,59159,2020-11-02 14:47:04,2020-11-02 14:47:34,0,C7:F7:8F:B2:48:BE,2,2,-21848.567067330867,9268.97909247967,-1583.0794950095883
1662,8395,-27164,-2307,-26374,3848,-10502,12012,8675,-20528,2,-1,59185,2020-11-02 14:47:04,2020-11-02 14:47:34,0,C7:F7:8F:B2:48:BE,2,2,17177.532688134062,-11088.839883082373,-19890.982147582545
1663,21292,12780,8731,-11008,-18925,-17171,7413,12005,-30522,2,-1,59210,2020-11-02 14:47:04,2020-11-02 14:47:34,0,C7:F7:8F:B2:48:BE,2,2,1900.8385860023755,4868.257503960251,-25799.126081034203
1664,-26356,30956,-26105,-28919,16388,-28955,20736,8933,-17221,2,-1,59236,2020-11-02 14:47:04,2020-11-02 14:47:34,0,C7:F7:8F:B2:48:BE,2,2,-14875.543359544754,25114.36521079134,38501.565770982575
1665,-22013,30449,17410,-12534,28939,18665,3849,32487,32064,2,-1,59261,2020-11-02 14:47:04,2020-11-02 14:47:34,0,C7:F7:8F:B2:48:BE,2,2,22691.322253705912,30634.115902784142,-16170.2414092449
1666,20225,-23305,-31233,-7415,3081,25840,-28147,6122,6717,2,-1,59287,2020-11-02 14:47:04,2020-11-02 14:47:34,0,C7:F7:8F:B2:48:BE,2,2,-25541.079173666218,32164.030554958965,-15517.807580459938
1667,-3586,28154,17151,-19960,-28663,7926,-21745,23788,13628,2,-1,59313,2020-11-02 14:47:04,2020-11-02 14:47:34,0,C7:F7:8F:B2:48:BE,2,2,15569.126596440405,27141.70034957863,10981.544160895373
1668,28157,23548,-31744,-13561,-12538,-14341,-14320,-4115,22844,2,-1,59338,2020-11-02 14:47:04,2020-11-02 14:47:34,0,C7:F7:8F:B2:48:BE,2,2,-22418.931700956335,42250.747546201455,-8201.970627538665
1669,-25346,18428,-2557,17673,517,-28416,-27119,-21266,829,2,-1,59364,2020-11-02 14:47:04,2020-11-02 14:47:34,0,C7:F7:8F:B2:48:BE,2,2,22888.376605969795,-10110.200664772268,-19038.256429130604
1670,-7428,-1286,-29954,27147,11267,31748,29714,-14098,4926,2,-1,59389,2020-11-02 14:47:04,2020-11-02 14:47:34,0,C7:F7:8F:B2:48:BE,2,2,9695.948305314014,-29088.40729376536,-3731.5202763346415
1671,-11527,-29447,-14339,15372,-8449,22026,18195,2542,28991,2,-1,59415,2020-11-02 14:47:04,2020-11-02 14:47:34,0,C7:F7:8F:B2:48:BE,2,2,26625.48504842656,19896.92385726458,10039.94153141488
1672,-517,6901,-3328,-10991,23799,15,-14572,-2069,-32448,2,-1,59441,2020-11-02 14:47:04,2020-11-02 14:47:34,0,C7:F7:8F:B2:48:BE,2,2,5509.054362375666,-2168.795237765553,-4890.1248704951395
1673,26365,14319,-11010,17433,-15,8210,28184,-16920,11072,2,-1,59466,2020-11-02 14:47:04,2020-11-02 14:47:34,0,C7:F7:8F:B2:48:BE,2,2,10747.52973035331,-16006.194976603309,25488.41723344411
1674,32509,-22554,-17674,-29152,-19982,24854,5919,-2076,-9667,2,1,59492,2020-11-02 14:47:04,2020-11-02 14:47:34,0,C7:F7:8F:B2:48:BE,2,2,19825.030173721243,-25904.031008519232,-28527.8395452708
1675,5632,21728,-27671,-2785,-13313,4127,-20184,-23328,11321,2,1,59517,2020-11-02 14:47:04,2020-11-02 14:47:34,0,C7:F7:8F:B2:48:BE,2,2,29345.070450083804,-1337.1465759508737,-20164.040475907626
1676,-1511,28642,-10021,-30445,14098,-27353,-20769,10975,25593,2,1,59543,2020-11-02 14:47:04,2020-11-02 14:47:34,0,C7:F7:8F:B2:48:BE,2,2,-25229.46675477814,16332.761389131589,4447.76783063557
1677,25905,25584,-30499,-5120,6166,22302,-25626,27621,-31245,2,1,59569,2020-11-02 14:47:04,2020-11-02 14:47:34,0,C7:F7:8F:B2:48:BE,2,2,-19337.0960074206,-42952.18213484761,-6081.599284289969
1678,-32214,-7185,-29469,-12046,28174,24844,10727,6889,27889,2,1,59594,2020-11-02 14:47:04,2020-11-02 14:47:34,0,C7:F7:8F:B2:48:BE,2,2,39288.52753367009,13491.173185723608,15237.710861834183
1679,5662,31976,14830,5096,-24563,19717,-16667,-11030,21999,2,1,59620,2020-11-02 14:47:04,2020-11-02 14:47:34,0,C7:F7:8F:B2:48:BE,2,2,-32416.35876928911,4440.869230319597,-14279.708842267546
1680,18715,7148,20733,-17437,-31723,24581,20452,32748,-12053,2,1,59645,2020-11-02 14:47:04,2020-11-02 14:47:34,0,C7:F7:8F:B2:48:BE,2,2,-19092.525875577798,-17682.405610758095,12410.092888734673
1681,-12513,5617,1287,16868,11546,28931,-17181,22510,-18458,2,1,59671,2020-11-02 14:47:04,2020-11-02 14:47:34,0,C7:F7:8F:B2:48:BE,2,2,-11640.139600398172,-480.2315202368666,7352.465897249253
1682,290,-6166,-5613,-17428,-8693,31234,-9758,-31761,-9502,2,1,59697,2020-11-02 14:47:04,2020-11-02 14:47:34,0,C7:F7:8F:B2:48:BE,2,2,-5616.397819434211,-6160.708209766178,333.4289849042186
1683,-15072,-26643,30990,20972,-28150,-5642,-25887,6639,29408,2,1,59722,2020-11-02 14:47:04,2020-11-02 14:47:34,0,C7:F7:8F:B2:48:BE,2,2,-17748.208927856613,38711.208601383405,-9156.317025602075
1684,-5845,19176,2572,17131,-21229,2796,15329,21997,-26404,2,1,59748,2020-11-02 14:47:04,2020-11-02 14:47:34,0,C7:F7:8F:B2:48:BE,2,2,2517.2701898898695,12871.950539705978,-15377.72496484622
1685,2322,-26906,26132,-8206,-14323,22758,-1054,15338,11223,2,1,59773,2020-11-02 14:47:04,2020-11-02 14:47:34,0,C7:F7:8F:B2:48:BE,2,2,34957.06191861126,4644.350563361904,-12986.137757739158
1686,30669,2798,-8231,22002,-26348,-17168,15847,7912,23248,2,1,59799,2020-11-02 14:47:04,2020-11-02 14:47:34,0,C7:F7:8F:B2:48:BE,2,2,-9331.56137356997,-20473.231554679878,-22581.728854092573
1687,-32247,-4119,4873,16631,-16872,-23054,-7700,10985,26567,2,1,59825,2020-11-02 14:47:04,2020-11-02 14:47:34,0,C7:F7:8F:B2:48:BE,2,2,9452.971811576022,8076.3424830849,30430.171130400617
1688,8456,27374,19734,-10505,-4070,-7689,23792,-22,9921,2,-1,59850,2020-11-02 14:47:04,2020-11-02 14:47:34,0,C7:F7:8F:B2:48:BE,2,2,7057.951648128519,5517.210377574929,-33615.714720681746
1689,7694,-21780,-13798,11524,-9458,-21770,-23565,-15124,-20292,2,-1,59876,2020-11-02 14:47:04,2020-11-02 14:47:34,0,C7:F7:8F:B2:48:BE,2,2,-66.78803786918252,-24937.708220908502,10102.330822480024
1690,-25592,29674,17682,-22767,28677,-23820,-6409,17645,14918,2,-1,59902,2020-11-02 14:47:04,2020-11-02 14:47:34,0,C7:F7:8F:B2:48:BE,2,2,-37746.147739926586,8195.79565494664,18873.450356996007
1691,28161,9452,-12026,-2027,9220,2551,-12548,-26387,-11197,2,-1,59927,2020-11-02 14:47:04,2020-11-02 14:47:34,0,C7:F7:8F:B2:48:BE,2,2,-23925.00380395543,9741.890236689782,-18965.670792170957
1692,-24325,8433,2047,21013,17412,20476,-1792,12782,-27326,2,-1,59953,2020-11-02 14:47:04,2020-11-02 14:47:34,0,C7:F7:8F:B2:48:BE,2,2,-14215.448333574903,3557.422877772728,21266.807333122706
1693,-26886,-5643,12542,26128,31750,11268,29443,239,-702,2,-1,59978,2020-11-02 14:47:04,2020-11-02 14:47:34,0,C7:F7:8F:B2:48:BE,2,2,-26886.0,10426.122540256096,8968.900812003874
1694,-3842,-20491,-12540,32017,-256,9225,-16892,28655,-17596,2,-1,60004,2020-11-02 14:47:04,2020-11-02 14:47:34,0,C7:F7:8F:B2:48:BE,2,2,23315.47622680227,6227.931139806335,3081.4099102924783
1695,17924,-10509,23812,-18154,-20488,31241,-27386,28654,-6727,2,-1,60030,2020-11-02 14:47:04,2020-11-02 14:47:34,0,C7:F7:8F:B2:48:BE,2,2,5547.925430888017,-29280.38305734664,10516.64834575892
1696,28421,-14352,26623,-7654,-13836,21000,-28663,-30996,2747,2,-1,60055,2020-11-02 14:47:04,2020-11-02 14:47:34,0,C7:F7:8F:B2:48:BE,2,2,2106.522698001576,-29600.560650124957,-29015.28296124437
1697,-12028,9967,-27654,22044,-20237,20489,24845,12010,-29765,2,-1,60081,2020-11-02 14:47:04,2020-11-02 14:47:34,0,C7:F7:8F:B2:48:BE,2,2,30452.830404531545,6199.1912310775115,6553.8337965934625
1698,-5117,32237,1785,-14821,-6922,-10484,-1520,-17433,19388,2,-1,60106,2020-11-02 14:47:04,2020-11-02 14:47:34,0,C7:F7:8F:B2:48:BE,2,2,-9315.003046078358,-31235.051579931154,-2489.2476876741357
1699,7939,23786,-19210,19484,-22282,-15600,-10477,-1308,-11331,2,1,60132,2020-11-02 14:47:04,2020-11-02 14:47:34,0,C7:F7:8F:B2:48:BE,2,2,1501.643938489693,-8470.474260105728,-30394.436140367594
1700,2306,-21017,-30987,-18915,22517,-17645,-8682,-24863,18111,2,1,60158,2020-11-02 14:47:04,2020-11-02 14:47:34,0,C7:F7:8F:B2:48:BE,2,2,6067.958304004918,36943.59782472761,-2361.4732235702795
1701,-7675,-30236,7407,-3298,24313,-27625,7960,-12323,-17726,2,1,60183,2020-11-02 14:47:04,2020-11-02 14:47:34,0,C7:F7:8F:B2:48:BE,2,2,-25647.816535642796,19141.494600762948,1943.6206942125045
1702,26386,-5660,-11041,-232,13576,26653,8674,21472,2557,2,1,60209,2020-11-02 14:47:04,2020-11-02 14:47:34,0,C7:F7:8F:B2:48:BE,2,2,-27635.90618435872,6232.570092050315,6897.2484671065295
1703,23590,1005,12505,5642,-24566,32027,-20764,9189,-3844,2,1,60234,2020-11-02 14:47:04,2020-11-02 14:47:34,0,C7:F7:8F:B2:48:BE,2,2,2209.099498169995,769.7632417051918,-26615.794069666692
1704,-9427,29682,-28449,-14088,-2289,20753,12773,-14616,11260,2,1,60260,2020-11-02 14:47:04,2020-11-02 14:47:34,0,C7:F7:8F:B2:48:BE,2,2,-28330.533848112078,-19105.582211696215,-24730.398990576217
1705,12835,29166,-11795,25579,-9442,-12536,28902,-13333,-29449,2,1,60286,2020-11-02 14:47:04,2020-11-02 14:47:34,0,C7:F7:8F:B2:48:BE,2,2,9474.222042576946,21320.575288765067,24701.96332367226
1706,22808,30961,-16135,14824,22050,-10491,25319,-7442,25585,2,1,60311,2020-11-02 14:47:04,2020-11-02 14:47:34,0,C7:F7:8F:B2:48:BE,2,2,-39699.01024434701,3678.087441591566,12230.57105744608
1707,22560,10998,-22787,-2072,31,26629,8423,-11279,13036,2,1,60337,2020-11-02 14:47:04,2020-11-02 14:47:34,0,C7:F7:8F:B2:48:BE,2,2,-28981.803349703274,2970.6704733239667,17331.680949580434
1708,-7130,756,-13570,9191,-8678,-12293,2790,-26637,31207,2,1,60362,2020-11-02 14:47:04,2020-11-02 14:47:34,0,C7:F7:8F:B2:48:BE,2,2,-866.2082947119711,5593.372123686046,14265.945726664742
1709,-20705,17642,18691,-26,-28399,-11025,31204,-1294,8675,2,1,60388,2020-11-02 14:47:04,2020-11-02 14:47:34,0,C7:F7:8F:B2:48:BE,2,2,-30479.887817170224,-5034.80976322423,-11615.412145113925
1710,2586,5348,-28920,-1816,16653,3307,-6686,-22032,-24609,2,1,60414,2020-11-02 14:47:04,2020-11-02 14:47:34,0,C7:F7:8F:B2:48:BE,2,2,16047.203163246204,14229.834814136935,20289.257546787598
1711,7444,26080,16908,18412,-12268,18157,-8478,24814,-7974,2,1,60439,2020-11-02 14:47:04,2020-11-02 14:47:34,0,C7:F7:8F:B2:48:BE,2,2,26438.472644143527,11237.168284398645,14006.898771426158
1712,-8686,-6685,5645,-23822,10517,-8724,-10268,-21268,-7212,2,1,60490,2020-11-02 14:47:04,2020-11-02 14:47:34,0,C7:F7:8F:B2:48:BE,2,2,4942.382684856899,-5590.738365919844,-9814.190945781453
1713,-25328,-24859,15117,-22534,-28399,20458,-26904,8683,28622,2,1,60492,2020-11-02 14:47:04,2020-11-02 14:47:34,0,C7:F7:8F:B2:48:BE,2,2,28366.534832144924,25487.162060446557,5809.081314738369
1714,16396,-794,24329,2305,13582,-25366,-11027,-3863,-14137,2,1,60516,2020-11-02 14:47:04,2020-11-02 14:47:34,0,C7:F7:8F:B2:48:BE,2,2,11402.038968433655,-23249.733061164552,13813.142761403442
1715,24840,16362,26886,-13820,-18932,31469,-15885,-21527,19393,2,1,60542,2020-11-02 14:47:04,2020-11-02 14:47:34,0,C7:F7:8F:B2:48:BE,2,2,18214.50236058474,-20413.090874303125,29311.009274907192
1716,27142,-3091,-10749,-19962,14347,-3088,3577,20970,-1093,2,1,60567,2020-11-02 14:47:04,2020-11-02 14:47:34,0,C7:F7:8F:B2:48:BE,2,2,-28387.275309364803,-3091.0,6811.150087197271
1717,-32507,-15887,-25852,-7673,28425,-27661,15101,28139,-15036,2,1,60593,2020-11-02 14:47:04,2020-11-02 14:47:34,0,C7:F7:8F:B2:48:BE,2,2,17382.939865652836,-34392.23399790752,-22190.88471107612
1718,-20734,-5388,18436,27657,-17145,-11531,-24832,-23828,4930,2,1,60618,2020-11-02 14:47:04,2020-11-02 14:47:34,0,C7:F7:8F:B2:48:BE,2,2,1346.7654265313904,-10430.578974283824,26233.654742470175
1719,17663,-30985,12547,-18422,18438,-19720,27907,-12819,23104,2,1,60644,2020-11-02 14:47:04,2020-11-02 14:47:34,0,C7:F7:8F:B2:48:BE,2,2,36381.3713609874,-3389.057586825522,9715.405784994577
1720,-10757,-4360,21507,28171,13829,-17668,-24059,-12050,-27073,2,1,60670,2020-11-02 14:47:04,2020-11-02 14:47:34,0,C7:F7:8F:B2:48:BE,2,2,-3081.2817209370933,24108.83587290806,-2558.0136452725137
1721,16378,-20231,-1023,-25076,17922,23809,23047,23279,-17345,2,1,60721,2020-11-02 14:47:04,2020-11-02 14:47:34,0,C7:F7:8F:B2:48:BE,2,2,24327.47454786878,-9107.707146955569,1949.9811917275356
1722,-23816,1273,12031,-4340,-11778,16901,-16376,15855,-30912,2,1,60723,2020-11-02 14:47:04,2020-11-02 14:47:34,0,C7:F7:8F:B2:48:BE,2,2,-8760.993372909146,7081.921055107388,24221.039104238876
1723,29943,13560,-11010,-24820,-13575,3082,-12535,9966,-16575,2,-1,60746,2020-11-02 14:47:04,2020-11-02 14:47:34,0,C7:F7:8F:B2:48:BE,2,2,-18253.702252567204,-2267.7781794565967,-29382.588129764943
1724,15864,-4621,8961,-8690,-26635,18704,23562,5612,-16061,2,-1,60772,2020-11-02 14:47:04,2020-11-02 14:47:34,0,C7:F7:8F:B2:48:BE,2,2,2311.356668771925,-18504.246541838293,-2360.11615574089
1725,26622,-4116,8448,18964,11506,-10217,3850,-5144,-15942,2,-1,60798,2020-11-02 14:47:04,2020-11-02 14:47:34,0,C7:F7:8F:B2:48:BE,2,2,-14821.32929137253,-22494.45571772526,8448.0
1726,14340,-15389,4348,-27109,-14354,-17636,-32249,2533,-21055,2,-1,60823,2020-11-02 14:47:04,2020-11-02 14:47:34,0,C7:F7:8F:B2:48:BE,2,2,-15400.906528337351,6425.6083624521325,-13523.522480396929
1727,15114,16093,30963,5155,18923,-8163,-9476,20961,-15151,2,-1,60849,2020-11-02 14:47:04,2020-11-02 14:47:34,0,C7:F7:8F:B2:48:BE,2,2,37637.18073624903,-1264.3602408807656,-5288.575744773334
1728,31505,27106,-1056,2338,-3596,-22244,-18713,-6431,-14612,2,-1,60874,2020-11-02 14:47:04,2020-11-02 14:47:34,0,C7:F7:8F:B2:48:BE,2,2,-32593.41388318338,-6375.989917634823,25008.628931025545
1729,27674,-23059,-1834,22287,26634,17179,-31515,-3099,-16142,2,-1,60900,2020-11-02 14:47:04,2020-11-02 14:47:34,0,C7:F7:8F:B2:48:BE,2,2,-15864.979924992238,-23173.75830028624,-22632.071297596867
1730,-14814,30960,9951,-16133,-16881,26388,-23322,8682,-10767,2,-1,60926,2020-11-02 14:47:04,2020-11-02 14:47:34,0,C7:F7:8F:B2:48:BE,2,2,-19994.880794536497,-20252.802885727528,21610.814752899583
1731,-21723,-25367,16615,8942,4874,4361,26853,-24084,-14608,2,-1,60951,2020-11-02 14:47:04,2020-11-02 14:47:34,0,C7:F7:8F:B2:48:BE,2,2,17976.05755002721,-30781.606851953668,10990.253753661407
1732,-13276,-26142,-31752,-19996,-16878,10756,23523,3054,26350,2,-1,60977,2020-11-02 14:47:04,2020-11-02 14:47:34,0,C7:F7:8F:B2:48:BE,2,2,3423.71581545399,14585.192393013249,40538.82308200127
1733,-14048,24045,18694,7142,20256,1537,-2334,-32529,-5912,2,-1,61002,2020-11-02 14:47:04,2020-11-02 14:47:34,0,C7:F7:8F:B2:48:BE,2,2,27765.656114528276,1260.4166187599021,18773.74910551732
1734,-30945,-7689,-10234,29419,27167,-29444,-17437,-25104,31202,2,-1,61028,2020-11-02 14:47:04,2020-11-02 14:47:34,0,C7:F7:8F:B2:48:BE,2,2,14060.067016672723,-25786.692046586293,16087.558260382304
1735,3361,-20491,4354,-23061,-7145,7415,7396,-12560,4573,2,-1,61054,2020-11-02 14:47:04,2020-11-02 14:47:34,0,C7:F7:8F:B2:48:BE,2,2,12140.865289583822,-14735.099217397634,9252.61903860882
1736,23323,25321,-22777,3047,-29166,-17167,-29725,-6417,29400,2,-1,61079,2020-11-02 14:47:04,2020-11-02 14:47:34,0,C7:F7:8F:B2:48:BE,2,2,27152.900373635453,10528.203121085295,29253.786752155647
1737,-20714,-31007,23830,-29721,-14063,-11283,-14110,13806,-2349,2,-1,61105,2020-11-02 14:47:04,2020-11-02 14:47:34,0,C7:F7:8F:B2:48:BE,2,2,25240.02771670255,34572.022642073236,11228.935670670768
1738,25615,15582,26136,28400,14613,-7957,7908,19180,15310,2,-1,61130,2020-11-02 14:47:04,2020-11-02 14:47:34,0,C7:F7:8F:B2:48:BE,2,2,21296.140218307104,-13915.35358281578,-30575.395197240192
1739,-756,18402,3094,-2819,25620,-29974,-18968,-10518,3015,2,-1,61156,2020-11-02 14:47:04,2020-11-02 14:47:34,0,C7:F7:8F:B2:48:BE,2,2,4354.195948800217,-17781.216617504168,-3694.2237670240565
1740,-2040,8677,-15347,28167,7184,19949,2799,14570,5568,2,-1,61182,2020-11-02 14:47:04,2020-11-02 14:47:34,0,C7:F7:8F:B2:48:BE,2,2,-13106.048062937567,8677.0,8241.572251213385
1741,-7671,-1561,-27893,-3572,18958,1521,23029,-17430,23226,2,-1,61207,2020-11-02 14:47:04,2020-11-02 14:47:34,0,C7:F7:8F:B2:48:BE,2,2,-18376.704478604108,9457.169483800131,-20301.701624758723
1742,4361,-24854,32519,-13295,11787,14323,4603,-8981,-11966,2,-1,61233,2020-11-02 14:47:04,2020-11-02 14:47:34,0,C7:F7:8F:B2:48:BE,2,2,-12192.871000782705,33082.20215633248,21239.745649273274
1743,261,-26642,32258,-19182,12810,-22027,-1537,15085,1088,2,-1,61259,2020-11-02 14:47:04,2020-11-02 14:47:34,0,C7:F7:8F:B2:48:BE,2,2,29223.50207020404,-26642.0,-13661.391281739223
1744,3330,-18959,-21760,18451,-6903,12281,-6397,-11794,-32706,2,-1,61284,2020-11-02 14:47:04,2020-11-02 14:47:34,0,C7:F7:8F:B2:48:BE,2,2,25905.624135883165,-13087.638756338612,1281.612622414064
1745,12543,5109,-8198,-9711,-13297,5630,-17658,-5904,28478,2,-1,61310,2020-11-02 14:47:04,2020-11-02 14:47:34,0,C7:F7:8F:B2:48:BE,2,2,-5065.705896096742,3642.7107257598263,14550.093344810026
1746,-15619,13558,11519,-25073,16658,2564,20744,23027,-9409,2,-1,61335,2020-11-02 14:47:04,2020-11-02 14:47:34,0,C7:F7:8F:B2:48:BE,2,2,-3265.615166395409,-22764.957872828134,-5617.1466629747765
1747,-27137,-26889,1015,5646,-30959,6921,25609,27637,17730,2,1,61361,2020-11-02 14:47:04,2020-11-02 14:47:34,0,C7:F7:8F:B2:48:BE,2,2,-5399.638532388112,-17759.711191047743,-33405.11752905717
1748,29176,-3083,15616,-18419,-25585,-26097,3594,2039,29765,2,1,61387,2020-11-02 14:47:04,2020-11-02 14:47:34,0,C7:F7:8F:B2:48:BE,2,2,5319.764384288634,-28852.105155354853,15616.0
1749,-26887,-26127,-17412,23052,14602,-25321,-32758,21239,-16964,2,1,61412,2020-11-02 14:47:04,2020-11-02 14:47:34,0,C7:F7:8F:B2:48:BE,2,2,-872.2573776431218,-24219.06897931139,33487.0797001247
1750,-4355,12268,-2309,11787,29700,14622,22282,23030,27329,2,1,61438,2020-11-02 14:47:04,2020-11-02 14:47:34,0,C7:F7:8F:B2:48:BE,2,2,-8818.4096618528,7872.160377160562,-5921.661256100725
1751,-23294,-30490,-22023,-3575,-5889,2596,25097,14324,-15930,2,1,61463,2020-11-02 14:47:04,2020-11-02 14:47:34,0,C7:F7:8F:B2:48:BE,2,2,-15246.133381943577,-41153.268498455545,5588.110037750889
1752,31754,1761,17399,16902,12548,24363,-24826,14322,-11571,2,1,61489,2020-11-02 14:47:04,2020-11-02 14:47:34,0,C7:F7:8F:B2:48:BE,2,2,-3721.677668826644,26275.728046357726,-24695.70952540556
1753,-26326,9700,-28683,5889,-11270,-16341,-16639,-6160,31190,2,1,61515,2020-11-02 14:47:04,2020-11-02 14:47:34,0,C7:F7:8F:B2:48:BE,2,2,-33659.499976096755,7610.845937849112,-20468.899591073972
1754,28226,12530,-30991,14331,9207,30487,-6148,2799,16605,2,1,61540,2020-11-02 14:47:04,2020-11-02 14:47:34,0,C7:F7:8F:B2:48:BE,2,2,5810.58993295578,33700.80868484288,-27288.14020080246
1755,-14534,1783,2809,-17427,-18925,23044,-32007,5872,17119,2,1,61566,2020-11-02 14:47:04,2020-11-02 14:47:34,0,C7:F7:8F:B2:48:BE,2,2,4379.564683209216,-4312.12766411998,13584.244336506825
1756,-18900,7411,15107,-14874,-18146,23798,22263,-21517,-14884,2,1,61591,2020-11-02 14:47:04,2020-11-02 14:47:34,0,C7:F7:8F:B2:48:BE,2,2,-17213.24646367901,-14858.28034637197,11103.603979305928
1757,16668,16114,-14841,-11547,10012,27629,26357,-29194,18392,2,1,61617,2020-11-02 14:47:04,2020-11-02 14:47:34,0,C7:F7:8F:B2:48:BE,2,2,758.6383717391918,21876.38811475523,-16690.914051468866
1758,2577,-6413,-19191,31973,29205,-32022,11251,8184,22995,2,1,61643,2020-11-02 14:47:04,2020-11-02 14:47:34,0,C7:F7:8F:B2:48:BE,2,2,17360.21881769224,695.4033113711412,-10686.495956878396
1759,-14324,9456,-15859,-8476,-16373,-13591,-30736,1528,-50,2,1,61668,2020-11-02 14:47:04,2020-11-02 14:47:34,0,C7:F7:8F:B2:48:BE,2,2,-14324.0,17889.88969762298,4568.989341953332
1760,9481,-7450,-20713,13541,4355,27626,-24595,27382,-21045,2,1,61694,2020-11-02 14:47:04,2020-11-02 14:47:34,0,C7:F7:8F:B2:48:BE,2,2,14953.992101828237,-18621.340705221603,2010.9750268254702
1761,9223,-4126,-20188,-9238,-15875,-17683,-3094,7412,-28471,2,1,61720,2020-11-02 14:47:04,2020-11-02 14:47:34,0,C7:F7:8F:B2:48:BE,2,2,10969.171855637243,-6388.032405626453,-18668.509843749234
1762,-14843,25059,24359,11511,-14077,-15886,-11031,23538,-10809,2,1,61745,2020-11-02 14:47:04,2020-11-02 14:47:34,0,C7:F7:8F:B2:48:BE,2,2,37123.66309004664,5179.21510094406,-6052.96462197344
1763,32251,21477,-745,13059,-1532,29689,-8214,-15887,-6971,2,1,61771,2020-11-02 14:47:04,2020-11-02 14:47:34,0,C7:F7:8F:B2:48:BE,2,2,11062.08138876339,3088.5602395107667,37013.97987241156
1764,-2806,6887,7944,-26363,-20731,-15620,30700,-8719,-24380,2,1,61796,2020-11-02 14:47:04,2020-11-02 14:47:34,0,C7:F7:8F:B2:48:BE,2,2,-8645.564888302595,-4632.938701970557,-4711.8603275068235
1765,21011,25065,-27896,15368,24323,21488,-14354,13041,-29502,2,1,61822,2020-11-02 14:47:04,2020-11-02 14:47:34,0,C7:F7:8F:B2:48:BE,2,2,28961.476308852292,-28289.349886517713,-14451.59973878213
1766,18954,8424,25094,-30456,2563,-32023,10994,26607,17087,2,1,61848,2020-11-02 14:47:04,2020-11-02 14:47:34,0,C7:F7:8F:B2:48:BE,2,2,26720.199713899005,-18580.563149624235,848.7215633984797
1767,17411,24810,11271,28169,-6904,21738,-19466,-20242,-29510,2,1,61873,2020-11-02 14:47:04,2020-11-02 14:47:34,0,C7:F7:8F:B2:48:BE,2,2,17724.998246239717,-21061.034742355398,16969.72936590616
1768,30209,-1555,26122,17674,-16117,25326,12027,23279,-16830,2,1,61899,2020-11-02 14:47:04,2020-11-02 14:47:34,0,C7:F7:8F:B2:48:BE,2,2,-16661.529689699535,19116.504753208592,30891.96116176204
1769,-30210,-9489,-9460,-29937,-5624,2035,13823,-14864,-28353,2,1,61924,2020-11-02 14:47:04,2020-11-02 14:47:34,0,C7:F7:8F:B2:48:BE,2,2,-20504.39646762368,4539.18209710942,-25517.491498730495
1770,-8452,-14095,-5881,-9197,-28156,-32009,3331,-11791,-17603,2,1,61950,2020-11-02 14:47:04,2020-11-02 14:47:34,0,C7:F7:8F:B2:48:BE,2,2,-10765.222714444757,12702.936362604378,-5238.022305796918
1771,25339,5876,-6654,-10733,1794,14588,-29434,30962,-8900,2,1,61976,2020-11-02 14:47:04,2020-11-02 14:47:34,0,C7:F7:8F:B2:48:BE,2,2,8713.828889383229,1323.4201309667228,25361.10719671959
1772,-22791,-268,28931,11283,513,9730,25609,-19214,-4292,2,1,62001,2020-11-02 14:47:04,2020-11-02 14:47:34,0,C7:F7:8F:B2:48:BE,2,2,25202.955483897065,22070.229482145118,15304.256645853638
1773,2299,3572,26114,14100,20223,9993,-18933,19186,2366,2,1,62027,2020-11-02 14:47:04,2020-11-02 14:47:34,0,C7:F7:8F:B2:48:BE,2,2,-5995.456777710246,148.9546926185817,25768.54461404747
1774,-32004,-23825,22531,-2537,-27140,24335,-7411,-2320,-4033,2,1,62052,2020-11-02 14:47:04,2020-11-02 14:47:34,0,C7:F7:8F:B2:48:BE,2,2,-32004.0,6086.480321398287,32221.597466563195
1775,-20995,-26392,1023,20766,23031,26901,-32496,23278,14658,2,1,62078,2020-11-02 14:47:04,2020-11-02 14:47:34,0,C7:F7:8F:B2:48:BE,2,2,-5890.620590349472,33218.36636230446,463.619758282812
1776,26878,-1056,-11528,-13531,-3857,-10983,26644,13034,-2493,2,-1,62103,2020-11-02 14:47:04,2020-11-02 14:47:34,0,C7:F7:8F:B2:48:BE,2,2,-3606.7579318239705,-8034.171502277822,-27908.425062930582
1777,-13057,-24362,8428,10799,7398,-13541,7197,-11036,-21695,2,-1,62129,2020-11-02 14:47:04,2020-11-02 14:47:34,0,C7:F7:8F:B2:48:BE,2,2,-9158.246732559486,19154.034447657647,-19602.881374009994
1778,-22782,-21802,32717,-977,-28956,27929,-713,-5407,-19667,2,-1,62155,2020-11-02 14:47:04,2020-11-02 14:47:34,0,C7:F7:8F:B2:48:BE,2,2,19477.31064183012,24798.812434502805,32717.0
1779,23306,8419,-1349,-999,11001,-24036,-28479,26852,32284,2,-1,62180,2020-11-02 14:47:04,2020-11-02 14:47:34,0,C7:F7:8F:B2:48:BE,2,2,-10176.35989824336,18600.50343910828,12896.97518928936
1780,-14049,3560,-18996,-8454,13080,23326,-25906,15078,-31217,2,-1,62206,2020-11-02 14:47:04,2020-11-02 14:47:34,0,C7:F7:8F:B2:48:BE,2,2,-5998.314902955908,22200.065661883,6486.394987437958
1781,-24035,-16666,27873,9447,-4572,-17131,24536,-3865,32001,2,-1,62231,2020-11-02 14:47:04,2020-11-02 14:47:34,0,C7:F7:8F:B2:48:BE,2,2,23856.230406802246,32121.525409217847,-5606.138257529523
1782,-1517,15589,5362,-8482,25119,-20208,26332,19434,17399,2,-1,62257,2020-11-02 14:47:04,2020-11-02 14:47:34,0,C7:F7:8F:B2:48:BE,2,2,1516.409082557808,5977.4996115323665,15363.569112952448
1783,8216,-11286,4606,14559,16155,15,-6948,-17940,12016,2,-1,62283,2020-11-02 14:47:04,2020-11-02 14:47:34,0,C7:F7:8F:B2:48:BE,2,2,6109.204846323188,-8009.30701856345,-10706.08729779706
1784,-12767,16366,768,-17696,25884,9738,-23076,-25874,-8727,2,-1,62308,2020-11-02 14:47:04,2020-11-02 14:47:34,0,C7:F7:8F:B2:48:BE,2,2,-122.56223663627941,-20684.01916503235,1894.306912494678
1785,15913,-22293,3075,-7199,-30700,-22016,29659,7407,-9500,2,-1,62334,2020-11-02 14:47:04,2020-11-02 14:47:34,0,C7:F7:8F:B2:48:BE,2,2,11921.206276806211,-24812.66134936051,-1368.839167976772
1786,26149,-23833,-20980,31459,12560,23286,-31015,-7699,16865,2,-1,62360,2020-11-02 14:47:04,2020-11-02 14:47:34,0,C7:F7:8F:B2:48:BE,2,2,-28112.507310568526,29328.39822620626,6440.068338014204
1787,-21481,27110,-14831,1256,-15340,10737,-22312,23019,17629,2,-1,62385,2020-11-02 14:47:04,2020-11-02 14:47:34,0,C7:F7:8F:B2:48:BE,2,2,-1683.3311529688435,29464.060817039557,-23353.36246451972
1788,24845,14568,7442,-1554,-12522,-29967,26330,-25880,-23337,2,-1,62411,2020-11-02 14:47:04,2020-11-02 14:47:34,0,C7:F7:8F:B2:48:BE,2,2,21419.316813964582,-18848.246843841895,-8416.678153322613
1789,-22523,-3351,18957,-21259,4887,24309,27871,-13850,-10289,2,-1,62436,2020-11-02 14:47:04,2020-11-02 14:47:34,0,C7:F7:8F:B2:48:BE,2,2,23821.401109508668,-6492.574871431196,-16378.946844005553
1790,-27898,-20246,-21233,30459,-31210,3578,17638,-15130,8647,2,-1,62462,2020-11-02 14:47:04,2020-11-02 14:47:34,0,C7:F7:8F:B2:48:BE,2,2,-22038.1798139726,8319.972535834087,-32926.218982597704
1791,-5879,-1302,29710,26883,30737,28922,21996,-18969,26304,2,-1,62488,2020-11-02 14:47:04,2020-11-02 14:47:34,0,C7:F7:8F:B2:48:BE,2,2,-8731.88390825293,-5667.624074301313,28470.584570134724
1792,-8181,-1301,-10996,-5622,-22770,-15621,24561,6633,-1861,2,-1,62513,2020-11-02 14:47:04,2020-11-02 14:47:34,0,C7:F7:8F:B2:48:BE,2,2,2456.342672786252,-7471.409887662419,11299.459852771262
1793,-15092,18668,10505,10513,-25335,25083,-12043,19178,-1723,2,-1,62539,2020-11-02 14:47:04,2020-11-02 14:47:34,0,C7:F7:8F:B2:48:BE,2,2,11928.564469869802,1783.5403241417316,23262.546004260155
1794,17929,493,-29944,3605,19207,8699,14074,15595,10564,2,-1,62564,2020-11-02 14:47:04,2020-11-02 14:47:34,0,C7:F7:8F:B2:48:BE,2,2,-20427.862512574775,18199.789387672343,-21674.993089081054
1795,32004,-17683,1541,18968,16643,-17412,-31490,-4373,5955,2,-1,62590,2020-11-02 14:47:04,2020-11-02 14:47:34,0,C7:F7:8F:B2:48:BE,2,2,22756.09574768271,23421.8759182413,-16519.534521069443
1796,-13310,17648,-26624,14617,-24835,22527,-32254,-9237,-14014,2,-1,62616,2020-11-02 14:47:04,2020-11-02 14:47:34,0,C7:F7:8F:B2:48:BE,2,2,34040.87216994628,1001.5871724654462,-6136.874208041891
1797,-23551,-3599,-20994,11288,25342,-4606,-4859,30443,9795,2,-1,62641,2020-11-02 14:47:04,2020-11-02 14:47:34,0,C7:F7:8F:B2:48:BE,2,2,10296.129599193146,9374.186003897736,-28538.829514206544
1798,22785,27890,-32259,10263,2046,-7418,29192,-5142,27204,2,1,62667,2020-11-02 14:47:04,2020-11-02 14:47:34,0,C7:F7:8F:B2:48:BE,2,2,-32316.83089649663,-2195.1693450758758,-35895.05646121315
1799,-24832,-14351,-12804,-24041,24571,-17910,23306,-13079,-17223,2,1,62692,2020-11-02 14:47:04,2020-11-02 14:47:34,0,C7:F7:8F:B2:48:BE,2,2,7036.8711410285305,1315.8714470267096,-30582.22960935745
1800,24063,-24337,-12294,-3304,-24839,29454,-19445,3048,29884,2,1,62718,2020-11-02 14:47:04,2020-11-02 14:47:34,0,C7:F7:8F:B2:48:BE,2,2,28265.888834732807,-16732.328738591546,15605.405389358864
1801,-5891,-8725,503,-5605,-10508,28178,30988,29669,3520,2,1,62744,2020-11-02 14:47:04,2020-11-02 14:47:34,0,C7:F7:8F:B2:48:BE,2,2,-9830.824789548566,-1992.6136580110906,-3235.257295348401
1802,10243,23016,6381,-28642,-17164,6423,-11766,4322,-32058,2,1,62769,2020-11-02 14:47:04,2020-11-02 14:47:34,0,C7:F7:8F:B2:48:BE,2,2,6526.266393622567,8751.20719497664,-23583.822539827204
1803,30991,-15127,12767,26905,31489,10011,-11782,-29728,10203,2,1,62795,2020-11-02 14:47:04,2020-11-02 14:47:34,0,C7:F7:8F:B2:48:BE,2,2,-5942.083708451411,23882.856457621216,-27323.347299085028
1804,5411,13043,17110,27913,6672,28441,-3089,-12061,-12056,2,1,62820,2020-11-02 14:47:04,2020-11-02 14:47:34,0,C7:F7:8F:B2:48:BE,2,2,19271.47886920019,10766.647138459422,-2200.0639967678426
1805,14635,28921,-8487,10998,-16107,17677,-10002,-14361,32745,2,1,62846,2020-11-02 14:47:04,2020-11-02 14:47:34,0,C7:F7:8F:B2:48:BE,2,2,13868.297246069851,-16971.34261900616,25343.253465231268
1806,11555,-6928,22241,1511,-21997,-26112,11758,22506,-19994,2,1,62872,2020-11-02 14:47:04,2020-11-02 14:47:34,0,C7:F7:8F:B2:48:BE,2,2,11050.948377249213,19091.183797250473,13768.824611526354
1807,-32740,29932,-18962,477,27669,-27141,29420,-4629,-18462,2,1,62897,2020-11-02 14:47:04,2020-11-02 14:47:34,0,C7:F7:8F:B2:48:BE,2,2,31044.542231026975,14215.816442106381,-34081.32374997076
1808,24350,24812,-32004,15065,22549,28151,24810,5357,-14627,2,1,62923,2020-11-02 14:47:04,2020-11-02 14:47:34,0,C7:F7:8F:B2:48:BE,2,2,-46904.17462318473,-5312.866799339408,2141.4269285387236
1809,-22501,29929,28940,-17959,5396,-271,23528,8685,32472,2,1,62949,2020-11-02 14:47:04,2020-11-02 14:47:34,0,C7:F7:8F:B2:48:BE,2,2,-11127.410738416671,45861.976757159064,-3524.692920577736
1810,-1513,17895,3098,11487,-8942,8430,29159,22508,-26926,2,1,62974,2020-11-02 14:47:04,2020-11-02 14:47:34,0,C7:F7:8F:B2:48:BE,2,2,-5567.155973434482,-5865.038006860781,16331.745208199007
1811,4367,3047,29731,-26648,-15856,-1043,3304,10731,-27188,2,1,63000,2020-11-02 14:47:04,2020-11-02 14:47:34,0,C7:F7:8F:B2:48:BE,2,2,-20200.957722390216,18727.537179574327,12389.02406510958
1812,-28661,-16665,-30685,-31756,24592,-22031,-30230,-27670,-30778,2,1,63025,2020-11-02 14:47:04,2020-11-02 14:47:34,0,C7:F7:8F:B2:48:BE,2,2,-23667.956492402613,7056.220876918134,37825.67849239299
1813,17674,20456,22297,-8962,-29168,-3083,14318,-2582,9409,2,1,63051,2020-11-02 14:47:04,2020-11-02 14:47:34,0,C7:F7:8F:B2:48:BE,2,2,33772.98434941337,-681.6887693015269,9321.76214865451
1814,-22259,-791,-3564,26118,-5362,5624,3826,5100,-3140,2,1,63076,2020-11-02 14:47:04,2020-11-02 14:47:34,0,C7:F7:8F:B2:48:BE,2,2,-22259.0,-791.0,-3564.0
1815,29449,-20758,18186,-18676,-22261,17656,2294,13293,-9799,2,-1,63102,2020-11-02 14:47:04,2020-11-02 14:47:34,0,C7:F7:8F:B2:48:BE,2,2,-15154.018017933577,-14818.247946931333,-34345.946292035835
1816,23559,23020,522,-1007,-8697,-1288,1786,17902,17220,2,-1,63128,2020-11-02 14:47:04,2020-11-02 14:47:34,0,C7:F7:8F:B2:48:BE,2,2,19768.31586102992,-26070.606577592247,-3841.422353107844
1817,14596,-3603,-4604,30740,9989,29435,-7171,5615,-4798,2,-1,63153,2020-11-02 14:47:04,2020-11-02 14:47:34,0,C7:F7:8F:B2:48:BE,2,2,14596.0,-5820.841622098464,544.2681420459357
