id,accelerationx,accelerationy,accelerationz,angularvelocityx,angularvelocityy,angularvelocityz,pitch,roll,yaw,mdlcircle_id,hallsensor,timestamp,starttime,endtime,train_mode,blemac,training_id,training_handle_id,accelerationWorldx,accelerationWorldy,accelerationWorldz
5919,-30973,-23804,-19474,6912,-21761,6400,24129,-15877,4657,6,1,26103,2020-11-02 14:56:19,2020-11-02 14:56:49,3,C7:F7:8F:B2:48:BE,6,6,-15066.108182886706,821.360957410825,-40957.68024924258
5920,-1531,25862,-18,6912,-11009,-3585,26177,-14853,3889,6,1,26129,2020-11-02 14:56:19,2020-11-02 14:56:49,3,C7:F7:8F:B2:48:BE,6,6,18423.579110495437,-16918.153767690274,6747.972647551532
5921,-26105,-18682,-4626,6400,-15361,-12545,28225,-12549,4913,6,1,26154,2020-11-02 14:56:19,2020-11-02 14:56:49,3,C7:F7:8F:B2:48:BE,6,6,-4742.15807530669,8710.401781679524,-30879.262662675705
5922,-29438,14592,-19988,-257,-10497,-20737,28225,-10245,7217,6,1,26180,2020-11-02 14:56:19,2020-11-02 14:56:49,3,C7:F7:8F:B2:48:BE,6,6,11241.899645505317,-28142.029861617153,-23678.857650406957
5923,18436,-10750,-18963,-12801,-26369,-22273,25921,-8197,10033,6,1,26205,2020-11-02 14:56:19,2020-11-02 14:56:49,3,C7:F7:8F:B2:48:BE,6,6,2211.134241155276,-10112.804308716939,26606.12785395851
5924,-6650,30982,20719,-12545,-22273,-16641,25153,-3589,12081,6,1,26231,2020-11-02 14:56:19,2020-11-02 14:56:49,3,C7:F7:8F:B2:48:BE,6,6,6923.771146830106,-4144.622462450621,-36990.09709030341
5925,19967,26879,-3092,-20993,22015,0,21569,764,12337,6,1,26257,2020-11-02 14:56:19,2020-11-02 14:56:49,3,C7:F7:8F:B2:48:BE,6,6,15490.442578178183,29048.029716560075,6854.221496129749
5926,-19447,-15609,-1553,30207,13311,27136,18497,8188,8241,6,1,26282,2020-11-02 14:56:19,2020-11-02 14:56:49,3,C7:F7:8F:B2:48:BE,6,6,-19167.059780507803,-845.0314064249503,16004.631838708308
5927,-3843,1792,15087,-15361,23295,27648,15425,13564,1585,6,1,26308,2020-11-02 14:56:19,2020-11-02 14:56:49,3,C7:F7:8F:B2:48:BE,6,6,-2628.022646210892,-14464.30540961154,5429.074321510535
5928,7179,-8955,29684,27392,-12801,-20481,16961,14588,305,6,1,26333,2020-11-02 14:56:19,2020-11-02 14:56:49,3,C7:F7:8F:B2:48:BE,6,6,-21624.17008734903,-23264.98989661388,2001.3583247019528
5929,-7168,29954,-28936,-5631,-30722,26622,27969,26876,9009,6,1,26359,2020-11-02 14:56:19,2020-11-02 14:56:49,3,C7:F7:8F:B2:48:BE,6,6,38969.690389645555,-16076.581904991604,-2970.0473375458205
5930,-20737,23805,-27395,-26875,-23300,2813,-2751,-11780,27185,6,1,26385,2020-11-02 14:56:19,2020-11-02 14:56:49,3,C7:F7:8F:B2:48:BE,6,6,-3907.419032114605,-40943.02096662267,-7455.758152875196
5931,7681,-12287,-3583,12045,22781,30970,25923,29437,50,6,1,26410,2020-11-02 14:56:19,2020-11-02 14:56:49,3,C7:F7:8F:B2:48:BE,6,6,-8983.872269040341,5319.695828862893,10667.562717975772
5932,-16665,9722,3320,2070,-5380,9979,11590,-6403,-9166,6,1,26436,2020-11-02 14:56:19,2020-11-02 14:56:49,3,C7:F7:8F:B2:48:BE,6,6,-14200.686703944388,9040.899457008867,-9993.224862109024
5933,-26648,30456,-7962,-7911,32245,11011,20925,22015,1075,6,1,26461,2020-11-02 14:56:19,2020-11-02 14:56:49,3,C7:F7:8F:B2:48:BE,6,6,28100.20002262682,-29027.613972290503,-8297.811142949007
5934,18401,27892,28889,8217,-516,27922,15297,513,31025,6,1,26487,2020-11-02 14:56:19,2020-11-02 14:56:49,3,C7:F7:8F:B2:48:BE,6,6,-31100.414593433314,-28389.115065367292,13340.057868011518
5935,-13844,19694,-22314,-4846,-23795,25630,16324,-12031,24109,6,1,26513,2020-11-02 14:56:19,2020-11-02 14:56:49,3,C7:F7:8F:B2:48:BE,6,6,21550.086767688234,6447.9975358612355,-23904.845870296587
5936,19702,-29980,-4390,19723,275,18215,-5435,11010,10279,6,1,26538,2020-11-02 14:56:19,2020-11-02 14:56:49,3,C7:F7:8F:B2:48:BE,6,6,28982.929785832464,-10349.216484488015,-18950.588465446308
5937,-21499,15326,9943,3073,6667,-16089,-1339,32003,-19936,6,1,26564,2020-11-02 14:56:19,2020-11-02 14:56:49,3,C7:F7:8F:B2:48:BE,6,6,17639.394956966742,-12966.490640668453,-17795.459870921954
5938,12555,-27940,-30254,-12044,-16377,24864,4804,-4604,16155,6,1,26589,2020-11-02 14:56:19,2020-11-02 14:56:49,3,C7:F7:8F:B2:48:BE,6,6,20181.046572660172,23043.37180692359,-30254.0
5939,-29167,10971,13271,-24088,-17144,-4843,21440,11525,-746,6,1,26615,2020-11-02 14:56:19,2020-11-02 14:56:49,3,C7:F7:8F:B2:48:BE,6,6,1599.031417831602,-12734.011307165983,31344.604408953008
5940,-27890,-32292,15840,-10271,-6389,-247,-16197,-8957,31764,6,1,26641,2020-11-02 14:56:19,2020-11-02 14:56:49,3,C7:F7:8F:B2:48:BE,6,6,16988.008051000674,40721.92974737989,-11165.257906049179
5941,-13816,-5664,25323,-6435,-16116,29952,-31933,-7679,-3821,6,1,26666,2020-11-02 14:56:19,2020-11-02 14:56:49,3,C7:F7:8F:B2:48:BE,6,6,-8938.931135690267,-25889.502025758367,-10679.245104858323
5942,5,-28189,-30988,27615,14609,6650,-24002,-18433,1301,6,1,26692,2020-11-02 14:56:19,2020-11-02 14:56:49,3,C7:F7:8F:B2:48:BE,6,6,147.233433235579,41877.35575312644,1068.310555141048
5943,7688,-8991,-5,9441,-3570,32755,-5831,1022,28695,6,1,26717,2020-11-02 14:56:19,2020-11-02 14:56:49,3,C7:F7:8F:B2:48:BE,6,6,-2481.557642737565,-8751.393917147334,7562.964112878457
5944,26639,-1057,19206,-31776,19713,29417,5173,-16898,18202,6,1,26743,2020-11-02 14:56:19,2020-11-02 14:56:49,3,C7:F7:8F:B2:48:BE,6,6,28413.154567507758,-2982.5121015686086,16230.258010484918
5945,-15599,-24354,12049,2022,-1282,15322,-15568,-32254,2077,6,1,26769,2020-11-02 14:56:19,2020-11-02 14:56:49,3,C7:F7:8F:B2:48:BE,6,6,12002.366698663165,21090.964753091743,19817.641570445845
5946,23796,23248,31518,-29186,-8944,26820,10032,17928,-25822,6,-1,26794,2020-11-02 14:56:19,2020-11-02 14:56:49,3,C7:F7:8F:B2:48:BE,6,6,22588.508497073875,-4795.434397991507,-39583.66502500976
5947,30647,-18479,6666,-11231,-25316,-26673,-457,-19444,25900,6,-1,26820,2020-11-02 14:56:19,2020-11-02 14:56:49,3,C7:F7:8F:B2:48:BE,6,6,6461.676726439857,35752.223879377576,-2274.385095327818
5948,6611,223,-12040,12847,-20463,9974,-19135,-8949,-10447,6,-1,26845,2020-11-02 14:56:19,2020-11-02 14:56:49,3,C7:F7:8F:B2:48:BE,6,6,-5090.456195404865,4374.621278523521,11986.100049313516
5949,-8978,20709,228,21297,25354,-22025,27069,9482,13363,6,-1,26871,2020-11-02 14:56:19,2020-11-02 14:56:49,3,C7:F7:8F:B2:48:BE,6,6,19710.642379899335,-10955.463844005204,-993.7494324079194
5950,-5154,-22804,-12329,-22230,14614,252,-24636,25607,32051,6,-1,26897,2020-11-02 14:56:19,2020-11-02 14:56:49,3,C7:F7:8F:B2:48:BE,6,6,26171.289210694835,-3031.6957021788185,2112.5376255959345
5951,-26906,31987,-22304,-16867,1043,31761,3529,-21499,30000,6,-1,26922,2020-11-02 14:56:19,2020-11-02 14:56:49,3,C7:F7:8F:B2:48:BE,6,6,39121.78438292974,-19487.365592638103,18283.817707317547
5952,-24846,16120,19171,29462,3352,24091,30667,-1787,25643,6,-1,26948,2020-11-02 14:56:19,2020-11-02 14:56:49,3,C7:F7:8F:B2:48:BE,6,6,33613.717428675016,3798.3596077665443,-10019.771550054282
5953,-28939,12523,-24863,-24302,-9962,12321,-18740,-6138,13349,6,-1,26973,2020-11-02 14:56:19,2020-11-02 14:56:49,3,C7:F7:8F:B2:48:BE,6,6,28970.82631443526,-25079.501053055734,-12007.075771752337
5954,17158,-24358,3543,-14834,-496,14376,-4916,23305,-10722,6,-1,26999,2020-11-02 14:56:19,2020-11-02 14:56:49,3,C7:F7:8F:B2:48:BE,6,6,-28004.89824548464,-1467.1243955796886,10669.357865773654
5955,11560,-4129,-10812,9475,24853,-20964,18891,7435,22296,6,-1,27025,2020-11-02 14:56:19,2020-11-02 14:56:49,3,C7:F7:8F:B2:48:BE,6,6,-15406.95549375534,-3474.004978785015,-4258.943157735145
5956,-20200,25307,-2867,-18450,21784,-9981,-11321,19721,-4845,6,-1,27050,2020-11-02 14:56:19,2020-11-02 14:56:49,3,C7:F7:8F:B2:48:BE,6,6,16774.081386649854,11260.933141160775,25466.164148225267
5957,-3308,15053,-13860,-11813,-25068,32507,195,-3067,29458,6,-1,27076,2020-11-02 14:56:19,2020-11-02 14:56:49,3,C7:F7:8F:B2:48:BE,6,6,13496.332596991871,7442.088378363606,-13860.0
5958,3091,11190,-28951,-31541,18704,1769,29628,-32510,4116,6,-1,27102,2020-11-02 14:56:19,2020-11-02 14:56:49,3,C7:F7:8F:B2:48:BE,6,6,-17287.78298059499,-24587.63682043902,-8337.353129263596
5959,-12026,15534,7935,-4410,30216,-26401,20545,-5632,-25064,6,-1,27127,2020-11-02 14:56:19,2020-11-02 14:56:49,3,C7:F7:8F:B2:48:BE,6,6,20346.69603133278,1682.7218123976756,-5663.4322553225575
5960,-9456,26044,13341,11477,14090,-11811,20282,-29695,-7651,6,-1,27153,2020-11-02 14:56:19,2020-11-02 14:56:49,3,C7:F7:8F:B2:48:BE,6,6,-29668.131627132105,-4999.376537835391,6363.674487912218
5961,-1029,9934,-29641,-12039,21002,-18728,-25289,-27133,31267,6,-1,27178,2020-11-02 14:56:19,2020-11-02 14:56:49,3,C7:F7:8F:B2:48:BE,6,6,21248.398139156237,-15640.145098423569,-16799.509392245924
5962,10710,-7216,5389,-4838,14593,32211,26683,-14074,29225,6,-1,27204,2020-11-02 14:56:19,2020-11-02 14:56:49,3,C7:F7:8F:B2:48:BE,6,6,6669.542784231903,8459.056799352527,8931.832629120852
5963,19095,27861,16358,-8920,-30200,5593,-15805,23560,-22736,6,-1,27230,2020-11-02 14:56:19,2020-11-02 14:56:49,3,C7:F7:8F:B2:48:BE,6,6,-11261.867032951997,-4918.517138417385,35460.07684835445
5964,172,12536,727,-12772,-21501,15356,-21571,9992,-27853,6,-1,27255,2020-11-02 14:56:19,2020-11-02 14:56:49,3,C7:F7:8F:B2:48:BE,6,6,10622.841982384063,6530.406227102535,-1489.4400714090461
5965,5078,23046,-5904,-14569,-13556,3341,-9792,-26617,-1743,6,-1,27281,2020-11-02 14:56:19,2020-11-02 14:56:49,3,C7:F7:8F:B2:48:BE,6,6,-20409.683403177965,7483.762246731327,10917.854277120608
5966,21471,-2305,19456,-3049,-15595,22809,11971,8710,-13523,6,-1,27306,2020-11-02 14:56:19,2020-11-02 14:56:49,3,C7:F7:8F:B2:48:BE,6,6,-16472.92145093979,4213.145544936891,-23574.245809534314
5967,-4629,6127,-13315,-23271,-8423,-20697,26565,26885,20007,6,-1,27332,2020-11-02 14:56:19,2020-11-02 14:56:49,3,C7:F7:8F:B2:48:BE,6,6,2038.389069676622,13933.481572317098,-6161.1732871688255
5968,32754,-5422,3318,539,13587,27699,-32569,26374,11039,6,-1,27358,2020-11-02 14:56:19,2020-11-02 14:56:49,3,C7:F7:8F:B2:48:BE,6,6,-5854.913428675531,-17853.832524750862,27571.586405589052
5969,24074,19653,-20000,-231,30477,-716,-4408,-28663,-8170,6,-1,27383,2020-11-02 14:56:19,2020-11-02 14:56:49,3,C7:F7:8F:B2:48:BE,6,6,9864.910805436204,21010.39300816527,-28758.386697504917
5970,17190,8152,7635,-31732,20760,-2524,20424,16907,-8434,6,-1,27409,2020-11-02 14:56:19,2020-11-02 14:56:49,3,C7:F7:8F:B2:48:BE,6,6,-14711.065602405095,5980.105454138124,-12964.077930925943
5971,-8422,12255,16867,-3337,13594,-15608,-14139,25097,-28151,6,-1,27434,2020-11-02 14:56:19,2020-11-02 14:56:49,3,C7:F7:8F:B2:48:BE,6,6,-20330.52173276378,7877.303774618374,5498.069599050449
5972,-30199,-13603,-30227,9714,11290,-12809,-31805,29957,-4601,6,1,27460,2020-11-02 14:56:19,2020-11-02 14:56:49,3,C7:F7:8F:B2:48:BE,6,6,12164.19372563601,25126.74734138642,-35090.9062015692
5973,-28414,25816,-13323,-26132,-14569,-18448,6337,11777,25608,6,1,27485,2020-11-02 14:56:19,2020-11-02 14:56:49,3,C7:F7:8F:B2:48:BE,6,6,2678.718786227346,-35389.46982559036,19792.257883524613
5974,23043,-12840,30456,12266,-9707,-8214,1214,15357,16138,6,1,27511,2020-11-02 14:56:19,2020-11-02 14:56:49,3,C7:F7:8F:B2:48:BE,6,6,4141.335584112516,21805.510490086097,-33627.10866022395
5975,-31743,-12840,-1031,-32023,10003,-23067,11706,-13319,-25331,6,1,27537,2020-11-02 14:56:19,2020-11-02 14:56:49,3,C7:F7:8F:B2:48:BE,6,6,-20072.131496456965,13631.018325510458,-24183.70291329552
5976,21501,19412,-4860,-6426,-8697,20958,-9919,5880,-27374,6,1,27562,2020-11-02 14:56:19,2020-11-02 14:56:49,3,C7:F7:8F:B2:48:BE,6,6,-2007.334352759246,-7465.296948531852,-28336.871656315096
5977,-12547,17372,25371,-3856,5113,-7975,7485,-6407,-4073,6,1,27588,2020-11-02 14:56:19,2020-11-02 14:56:49,3,C7:F7:8F:B2:48:BE,6,6,-30614.716961973216,-11962.828698019819,4746.690308004421
5978,16358,22994,17178,22031,-27920,-8245,-26308,-8706,23069,6,1,27614,2020-11-02 14:56:19,2020-11-02 14:56:49,3,C7:F7:8F:B2:48:BE,6,6,-23594.795922253878,15564.497116720482,17100.406980267806
5979,-22371,16082,14571,2348,-14600,21710,-20926,19715,-14044,6,1,27639,2020-11-02 14:56:19,2020-11-02 14:56:49,3,C7:F7:8F:B2:48:BE,6,6,-20843.259389813335,-12226.267245343042,19684.596344716094
5980,-10592,15869,3784,811,-10248,5878,-5443,5,4137,6,1,27665,2020-11-02 14:56:19,2020-11-02 14:56:49,3,C7:F7:8F:B2:48:BE,6,6,-10592.0,15869.0,3784.0
5981,23249,-4088,25547,22815,12551,-23791,451,1286,-10713,6,1,27690,2020-11-02 14:56:19,2020-11-02 14:56:49,3,C7:F7:8F:B2:48:BE,6,6,9121.5549232337,-21772.11475218774,25547.0
5982,-2571,10762,-26140,11280,30223,18715,2245,7174,15139,6,1,27716,2020-11-02 14:56:19,2020-11-02 14:56:49,3,C7:F7:8F:B2:48:BE,6,6,-54.19490121486524,-25742.646044516263,-11960.08037345207
5983,-32020,11523,-17424,-14333,-18933,-12773,-9532,10758,14110,6,1,27741,2020-11-02 14:56:19,2020-11-02 14:56:49,3,C7:F7:8F:B2:48:BE,6,6,21562.298074847757,-26843.061645784626,16618.45504889138
5984,-3092,-32264,23543,1795,-19199,7202,-21565,-18169,21017,6,1,27767,2020-11-02 14:56:19,2020-11-02 14:56:49,3,C7:F7:8F:B2:48:BE,6,6,-10626.930227534398,-34105.141096171144,18130.2706474386
5985,-16649,-1559,18924,6413,29185,-20955,451,-2295,-13037,6,1,27793,2020-11-02 14:56:19,2020-11-02 14:56:49,3,C7:F7:8F:B2:48:BE,6,6,5510.833993252136,15787.66577739777,18924.0
5986,-21490,4838,-25120,-13295,18954,1316,-18238,22027,-28659,6,-1,27818,2020-11-02 14:56:19,2020-11-02 14:56:49,3,C7:F7:8F:B2:48:BE,6,6,14995.237945015147,21309.782123185552,-20911.163736978848
5987,-29920,18916,20444,28173,-7148,-25321,28610,25610,-18169,6,-1,27844,2020-11-02 14:56:19,2020-11-02 14:56:49,3,C7:F7:8F:B2:48:BE,6,6,-39660.4634182529,-8792.624619835125,-4551.481708640911
5988,-4837,-10022,31192,18947,19738,2054,20674,28935,16388,6,-1,27869,2020-11-02 14:56:19,2020-11-02 14:56:49,3,C7:F7:8F:B2:48:BE,6,6,-17335.324583381964,24614.09201694256,-13798.946074620246
5989,-8945,-13611,-18209,-1544,-23266,25844,-20799,-14590,16643,6,-1,27895,2020-11-02 14:56:19,2020-11-02 14:56:49,3,C7:F7:8F:B2:48:BE,6,6,-3916.9081085078687,-17646.41356214129,-16434.778558391994
5990,23037,-11311,-10781,-20751,30494,-24601,8384,19453,-22268,6,-1,27921,2020-11-02 14:56:19,2020-11-02 14:56:49,3,C7:F7:8F:B2:48:BE,6,6,25139.531653306163,593.0869233985941,11938.35194462414
5991,22265,26829,28395,21225,29208,-3617,-27972,25592,8456,6,-1,27946,2020-11-02 14:56:19,2020-11-02 14:56:49,3,C7:F7:8F:B2:48:BE,6,6,24262.89106956654,-34442.741616515006,15710.22462870388
5992,18683,14792,-3846,27617,776,23770,2115,13302,-7667,6,-1,27972,2020-11-02 14:56:19,2020-11-02 14:56:49,3,C7:F7:8F:B2:48:BE,6,6,6356.73541126786,17477.23726284033,-15387.903092023902
5993,-1017,24012,7964,-542,-18444,11223,16956,-28424,-21997,6,-1,27997,2020-11-02 14:56:19,2020-11-02 14:56:49,3,C7:F7:8F:B2:48:BE,6,6,-16965.797815527,14989.961108694919,-11335.717861806239
5994,-25333,-31044,3886,10756,15350,3269,29241,-771,18969,6,-1,28023,2020-11-02 14:56:19,2020-11-02 14:56:49,3,C7:F7:8F:B2:48:BE,6,6,25796.317223558024,1453.801583969897,30871.15643535257
5995,-13103,10640,-5380,31027,-30967,-9299,29247,-11774,-31709,6,-1,28074,2020-11-02 14:56:19,2020-11-02 14:56:49,3,C7:F7:8F:B2:48:BE,6,6,6624.969607333259,14848.638439911,-7033.514283962747
5996,-10101,-575,-26427,-28876,-23800,-11328,-22595,-17662,14127,6,1,28076,2020-11-02 14:56:19,2020-11-02 14:56:49,3,C7:F7:8F:B2:48:BE,6,6,253.27095555488086,7040.385464867566,-27406.49523979952
5997,-6231,8704,-26706,18719,22806,-8,25028,-5889,-18894,6,1,28100,2020-11-02 14:56:19,2020-11-02 14:56:49,3,C7:F7:8F:B2:48:BE,6,6,8732.27405367701,27407.056309717558,629.3387700198491
5998,-11281,-16643,3838,22796,-3831,21255,-16442,-28674,-22992,6,1,28126,2020-11-02 14:56:19,2020-11-02 14:56:49,3,C7:F7:8F:B2:48:BE,6,6,-14275.519899894121,593.4942908709963,14657.35140175163
5999,-32548,26873,-5652,23828,-14317,10254,-25911,-3075,15662,6,1,28151,2020-11-02 14:56:19,2020-11-02 14:56:49,3,C7:F7:8F:B2:48:BE,6,6,25627.416262873376,-24066.087891309537,24031.94720153109
6000,18913,-15371,2785,22542,-20464,-31463,32204,28414,42,6,1,28177,2020-11-02 14:56:19,2020-11-02 14:56:49,3,C7:F7:8F:B2:48:BE,6,6,-24115.220156503612,-1689.5673478184099,4162.56579293921
6001,-17934,-1053,-28714,-18422,-22758,-23003,26318,32000,20260,6,1,28202,2020-11-02 14:56:19,2020-11-02 14:56:49,3,C7:F7:8F:B2:48:BE,6,6,26580.01377469574,17466.363046956292,-11647.31688625773
6002,11530,25307,-9258,-27905,26403,-25816,-31026,26114,28956,6,1,28228,2020-11-02 14:56:19,2020-11-02 14:56:49,3,C7:F7:8F:B2:48:BE,6,6,8613.125757972619,27487.007052315454,-5419.798979972322
6003,4628,-12077,18657,30703,13339,7201,-3381,-30205,12309,6,1,28254,2020-11-02 14:56:19,2020-11-02 14:56:49,3,C7:F7:8F:B2:48:BE,6,6,2990.1347218560386,22487.442819943357,854.3838510464075
6004,8224,9922,23526,30688,26386,-3816,12999,-9725,-13041,6,1,28305,2020-11-02 14:56:19,2020-11-02 14:56:49,3,C7:F7:8F:B2:48:BE,6,6,-25324.445462333537,5992.324972899444,6505.185581093003
6005,-4573,24254,6131,-15905,25117,-6655,1730,2561,22284,6,1,28307,2020-11-02 14:56:19,2020-11-02 14:56:49,3,C7:F7:8F:B2:48:BE,6,6,1104.5110114698177,-24656.619809404976,6131.0
6006,-756,16575,-18192,-6429,-19941,26599,-14147,252,20749,6,1,28330,2020-11-02 14:56:19,2020-11-02 14:56:49,3,C7:F7:8F:B2:48:BE,6,6,4056.2270023083474,23098.31427596397,-7501.06159917006
6007,-26881,19136,-1286,-5920,2325,29658,-4028,-9481,13842,6,-1,28356,2020-11-02 14:56:19,2020-11-02 14:56:49,3,C7:F7:8F:B2:48:BE,6,6,-11806.580229247673,-20185.920545817997,-23314.410307967493
6008,13576,22211,-5860,-27170,-4357,-2090,-11203,8696,-27368,6,-1,28382,2020-11-02 14:56:19,2020-11-02 14:56:49,3,C7:F7:8F:B2:48:BE,6,6,1876.4426629070517,-12988.317736561741,-23232.702432281487
6009,-27372,32447,4142,-30477,7662,8394,19257,21501,-8675,6,-1,28407,2020-11-02 14:56:19,2020-11-02 14:56:49,3,C7:F7:8F:B2:48:BE,6,6,-12844.20107571968,-40530.61192684696,3389.152189237319
6010,1489,18848,-7397,31517,-12021,31408,-24773,18947,-20442,6,-1,28433,2020-11-02 14:56:19,2020-11-02 14:56:49,3,C7:F7:8F:B2:48:BE,6,6,-2157.5430451004872,6482.205105965078,-19118.207525098653
6011,128,-22588,-4896,-31435,-14317,-19507,-32187,-12285,-15823,6,-1,28458,2020-11-02 14:56:19,2020-11-02 14:56:49,3,C7:F7:8F:B2:48:BE,6,6,-10256.743285895944,-18296.33536123639,9708.155000637313
6012,-1623,20197,-11064,2605,1547,-21247,-10560,-22782,1076,6,-1,28484,2020-11-02 14:56:19,2020-11-02 14:56:49,3,C7:F7:8F:B2:48:BE,6,6,4848.721059558603,1602.4506957042522,22514.15310098139
6013,-25619,-2318,6071,-16353,-7139,-5356,30406,-3072,22832,6,-1,28510,2020-11-02 14:56:19,2020-11-02 14:56:49,3,C7:F7:8F:B2:48:BE,6,6,24633.85989083954,-8727.77406049805,3944.8995966164016
6014,18414,11774,13556,17159,19212,13587,31176,13568,2604,6,-1,28535,2020-11-02 14:56:19,2020-11-02 14:56:49,3,C7:F7:8F:B2:48:BE,6,6,-14432.692495498768,16339.016038977532,-13645.568885481054
6015,-4372,2811,997,-4350,22284,4378,201,10753,14888,6,-1,28561,2020-11-02 14:56:19,2020-11-02 14:56:49,3,C7:F7:8F:B2:48:BE,6,6,-1922.1372717750635,-2554.8807089123598,4217.592544530658
6016,7423,18924,-26,-254,11529,-2015,-8760,-1278,28707,6,-1,28586,2020-11-02 14:56:19,2020-11-02 14:56:49,3,C7:F7:8F:B2:48:BE,6,6,11889.3394764577,-4223.945610112625,-15938.044776457205
6017,-15857,-1054,16589,-7936,-29939,-23776,28360,-15612,19486,6,-1,28612,2020-11-02 14:56:19,2020-11-02 14:56:49,3,C7:F7:8F:B2:48:BE,6,6,-17444.777604476716,-10890.718719516273,-10238.274566679946
6018,17949,-16676,-24879,-15636,-30193,17431,-20283,3589,26905,6,-1,28638,2020-11-02 14:56:19,2020-11-02 14:56:49,3,C7:F7:8F:B2:48:BE,6,6,-1895.186578492283,-22080.03209056957,26983.34057732883
6019,-10469,-560,22503,6876,24842,-20723,-32576,13316,11798,6,-1,28663,2020-11-02 14:56:19,2020-11-02 14:56:49,3,C7:F7:8F:B2:48:BE,6,6,15740.642704089863,17841.2935462783,7086.5352505798655
6020,1809,-26412,3322,10973,29964,17669,-3910,-23806,-20972,6,-1,28689,2020-11-02 14:56:19,2020-11-02 14:56:49,3,C7:F7:8F:B2:48:BE,6,6,-5045.591674403786,25959.758433011313,-3540.459822520961
6021,-13801,12248,10236,-7710,5135,-25600,7491,24832,21524,6,-1,28714,2020-11-02 14:56:19,2020-11-02 14:56:49,3,C7:F7:8F:B2:48:BE,6,6,3216.410756995747,1557.3597290523912,-20796.300957540694
6022,13334,27607,-23046,32229,-25846,30704,17727,-15106,9750,6,-1,28740,2020-11-02 14:56:19,2020-11-02 14:56:49,3,C7:F7:8F:B2:48:BE,6,6,4140.125078367386,-38116.95008017462,1008.7625691654794
6023,6157,27340,-13564,-15132,-25335,29410,12091,-14850,8986,6,-1,28766,2020-11-02 14:56:19,2020-11-02 14:56:49,3,C7:F7:8F:B2:48:BE,6,6,-17175.907216257845,-24980.03733721386,-7095.934817196642
6024,31496,-26171,28184,24806,29704,5844,20535,-16384,-24033,6,-1,28791,2020-11-02 14:56:19,2020-11-02 14:56:49,3,C7:F7:8F:B2:48:BE,6,6,-26809.546399102845,-2512.4328549041347,41787.47439154405
6025,-5143,-2107,28482,31472,15619,-13629,2613,-22011,24614,6,-1,28817,2020-11-02 14:56:19,2020-11-02 14:56:49,3,C7:F7:8F:B2:48:BE,6,6,-2295.3877419025544,565.8202993555824,-28922.746489625784
6026,-22635,-7470,-10707,7195,14853,-17710,7737,10507,-7379,6,-1,28843,2020-11-02 14:56:19,2020-11-02 14:56:49,3,C7:F7:8F:B2:48:BE,6,6,-7910.617960885384,21525.22202695674,12524.81194138794
6027,-26471,29115,-4925,15423,13318,18417,21571,9741,16434,6,-1,28868,2020-11-02 14:56:19,2020-11-02 14:56:49,3,C7:F7:8F:B2:48:BE,6,6,28383.027822920492,5574.958476612071,27128.882405793505
6028,22190,-7972,21143,20536,24342,-10751,8897,-28150,-8142,6,-1,28894,2020-11-02 14:56:19,2020-11-02 14:56:49,3,C7:F7:8F:B2:48:BE,6,6,-24503.85147957648,-2737.783944289742,-19875.64174413614
6029,-1851,25845,14777,-25073,-26889,2841,-28476,24075,15408,6,-1,28919,2020-11-02 14:56:19,2020-11-02 14:56:49,3,C7:F7:8F:B2:48:BE,6,6,28144.694284835212,5970.949540325765,-7872.350360600565
6030,-3084,-9974,18387,-10230,2048,-8933,-21821,18190,2092,6,-1,28945,2020-11-02 14:56:19,2020-11-02 14:56:49,3,C7:F7:8F:B2:48:BE,6,6,682.9612572985734,12468.95874928962,17062.594545658725
6031,-2319,-21250,-30790,-29436,-16381,9503,27585,22799,-29914,6,1,28996,2020-11-02 14:56:19,2020-11-02 14:56:49,3,C7:F7:8F:B2:48:BE,6,6,11126.056485636296,4431.411103026615,-35518.13373073538
6032,-8686,18914,-2900,-1547,-27127,4133,8380,25871,21023,6,1,28998,2020-11-02 14:56:19,2020-11-02 14:56:49,3,C7:F7:8F:B2:48:BE,6,6,3343.217990226519,-13264.07893388234,-15952.52630480716
6033,5921,15058,2496,993,-28654,25623,22850,30476,-1767,6,1,29022,2020-11-02 14:56:19,2020-11-02 14:56:49,3,C7:F7:8F:B2:48:BE,6,6,2011.38630277381,-15259.542553926934,5579.6332483333435
6034,-12793,-3890,17898,-16683,10518,-5881,15932,-25336,7449,6,1,29047,2020-11-02 14:56:19,2020-11-02 14:56:49,3,C7:F7:8F:B2:48:BE,6,6,12358.528977932838,-7877.905674454734,16862.286816620937
6035,-14086,25040,29691,-16678,9240,-26878,-4554,16133,-21478,6,1,29073,2020-11-02 14:56:19,2020-11-02 14:56:49,3,C7:F7:8F:B2:48:BE,6,6,-28997.304735104983,-29426.586542796766,452.5478303453474
6036,7671,1223,13828,-25891,-31474,-7170,13362,11011,-10212,6,1,29098,2020-11-02 14:56:19,2020-11-02 14:56:49,3,C7:F7:8F:B2:48:BE,6,6,-10880.01876732624,-7269.064465793294,-8963.227511045898
6037,11522,-10041,11025,-5663,-7161,-30979,-29395,-15102,8222,6,1,29124,2020-11-02 14:56:19,2020-11-02 14:56:49,3,C7:F7:8F:B2:48:BE,6,6,11896.20734790999,-6311.42747835103,13182.37171077526
6038,26384,13514,-30691,-6926,22289,-27404,-21206,-1790,27168,6,1,29150,2020-11-02 14:56:19,2020-11-02 14:56:49,3,C7:F7:8F:B2:48:BE,6,6,-30648.609194080993,-8391.53167612525,28476.763924243227
6039,19990,-10288,1826,-30976,10257,31202,-23254,9477,14372,6,1,29175,2020-11-02 14:56:19,2020-11-02 14:56:49,3,C7:F7:8F:B2:48:BE,6,6,-6208.401341613639,726.9528999136309,-21672.669707785357
6040,-8961,-14643,-7640,14854,-24052,-2612,-27348,-32758,-19160,6,1,29226,2020-11-02 14:56:19,2020-11-02 14:56:49,3,C7:F7:8F:B2:48:BE,6,6,10462.641485591235,-14017.062352832038,6865.978891666063
6041,-25411,-13091,30245,14871,-28655,4045,28467,-30448,-32208,6,1,29228,2020-11-02 14:56:19,2020-11-02 14:56:49,3,C7:F7:8F:B2:48:BE,6,6,-34881.944427117014,-7060.522163109759,21569.705764515096
6042,5779,27091,7937,-11475,-8439,21483,27454,31506,9528,6,1,29252,2020-11-02 14:56:19,2020-11-02 14:56:49,3,C7:F7:8F:B2:48:BE,6,6,24042.342222709864,15787.116521684336,-1745.8016430464984
6043,-8814,-21327,19398,16714,12582,-23807,21437,-8177,26426,6,1,29278,2020-11-02 14:56:19,2020-11-02 14:56:49,3,C7:F7:8F:B2:48:BE,6,6,4801.954911297924,-22553.563025595562,-19418.752608763272
6044,31195,30356,28320,13902,20807,7463,5830,-6392,-22990,6,1,29303,2020-11-02 14:56:19,2020-11-02 14:56:49,3,C7:F7:8F:B2:48:BE,6,6,17071.014461029852,-8399.599833108976,48318.364509934996
6045,-31729,-15923,4487,23323,-12757,14632,-17462,-7163,-24793,6,-1,29329,2020-11-02 14:56:19,2020-11-02 14:56:49,3,C7:F7:8F:B2:48:BE,6,6,-2410.926259993499,-22293.893070835373,-27885.019370892183
6046,-9983,6617,17607,-30487,13323,19492,-21561,-21754,-480,6,-1,29354,2020-11-02 14:56:19,2020-11-02 14:56:49,3,C7:F7:8F:B2:48:BE,6,6,12474.706038573753,-4066.0803680950658,16772.004253855986
6047,32013,-9014,28646,22242,-3822,7976,13761,-27641,31258,6,-1,29380,2020-11-02 14:56:19,2020-11-02 14:56:49,3,C7:F7:8F:B2:48:BE,6,6,-31635.112819103782,28340.369360847686,-11077.941253378325
6048,-27113,-26695,-7440,-17184,11035,22300,22203,-26620,28948,6,-1,29406,2020-11-02 14:56:19,2020-11-02 14:56:49,3,C7:F7:8F:B2:48:BE,6,6,32148.721223434462,-11811.255766586415,18167.150434621646
6049,-8941,-11077,4595,-9760,-10723,-26365,30275,-7425,-28398,6,-1,29431,2020-11-02 14:56:19,2020-11-02 14:56:49,3,C7:F7:8F:B2:48:BE,6,6,8760.203758629317,-12076.726255215213,-1080.2537034846225
6050,-3833,1720,520,-5671,-9708,-12303,16702,32764,-29164,6,-1,29457,2020-11-02 14:56:19,2020-11-02 14:56:49,3,C7:F7:8F:B2:48:BE,6,6,464.8047784783483,-2618.941381047904,-3293.2949398039937
6051,-25850,7610,-7123,24288,7693,-9244,27448,-4613,-26344,6,-1,29483,2020-11-02 14:56:19,2020-11-02 14:56:49,3,C7:F7:8F:B2:48:BE,6,6,24740.894098135715,-12788.372737002544,-1103.363477881826
6052,28682,26573,-29620,31220,-1010,-10281,-24268,-30467,8990,6,-1,29508,2020-11-02 14:56:19,2020-11-02 14:56:49,3,C7:F7:8F:B2:48:BE,6,6,20599.31793408302,41423.007229656214,-16307.312031797705
6053,19703,-17976,-27314,-27626,-19946,-3124,17461,-12544,7461,6,-1,29534,2020-11-02 14:56:19,2020-11-02 14:56:49,3,C7:F7:8F:B2:48:BE,6,6,-34687.16936477547,-13950.689206161991,7718.674311852856
6054,-30781,-18219,24846,-9676,8729,-32549,-23492,-26879,15149,6,-1,29559,2020-11-02 14:56:19,2020-11-02 14:56:49,3,C7:F7:8F:B2:48:BE,6,6,7353.854993095245,499.6799907486129,42923.14963568463
6055,-8248,20464,26867,-17374,30196,1273,-15805,27394,3632,6,-1,29585,2020-11-02 14:56:19,2020-11-02 14:56:49,3,C7:F7:8F:B2:48:BE,6,6,27935.2482776475,15914.065103424868,13228.942684513648
6056,18372,-29204,20982,-18145,-24078,25341,-9541,21253,-24528,6,1,29611,2020-11-02 14:56:19,2020-11-02 14:56:49,3,C7:F7:8F:B2:48:BE,6,6,7155.725712000009,-11156.273089014692,-38144.21953976707
6057,-19268,-10538,-26935,-22223,9490,24078,20930,13573,30255,6,1,29636,2020-11-02 14:56:19,2020-11-02 14:56:49,3,C7:F7:8F:B2:48:BE,6,6,22417.774356056467,-25605.597220560616,7042.462417319335
6058,-14918,-7240,-24139,-9170,31777,-9181,-14392,-6397,-28631,6,1,29662,2020-11-02 14:56:19,2020-11-02 14:56:49,3,C7:F7:8F:B2:48:BE,6,6,28745.94793092849,-4311.795517641432,-3568.549000139331
6059,30421,11663,-21574,4388,11308,9525,10957,-252,-2785,6,1,29687,2020-11-02 14:56:19,2020-11-02 14:56:49,3,C7:F7:8F:B2:48:BE,6,6,30421.0,24455.440819585674,-1842.405850984751
6060,-489,-1899,18880,-24050,-11738,-32462,10190,31751,30485,6,1,29713,2020-11-02 14:56:19,2020-11-02 14:56:49,3,C7:F7:8F:B2:48:BE,6,6,-18597.73361553617,3246.1568472226936,1971.4188009616867
6061,-17352,9139,-18241,16371,-736,-8946,30155,3591,-10227,6,1,29739,2020-11-02 14:56:19,2020-11-02 14:56:49,3,C7:F7:8F:B2:48:BE,6,6,-21912.69547161561,6551.051917919929,-13937.890871181131
6062,1820,-25408,17372,-23574,28957,-24843,-7225,4355,12555,6,1,29764,2020-11-02 14:56:19,2020-11-02 14:56:49,3,C7:F7:8F:B2:48:BE,6,6,-1566.6919233658573,1284.5369158525718,30766.22643954036
6063,-20993,-26459,-27949,11721,13586,7908,-1343,14590,14604,6,1,29790,2020-11-02 14:56:19,2020-11-02 14:56:49,3,C7:F7:8F:B2:48:BE,6,6,30999.507353456258,-4154.236239558035,30719.768816007618
6064,-3356,12931,19963,-13644,-22514,-23585,-2493,24827,29968,6,1,29815,2020-11-02 14:56:19,2020-11-02 14:56:49,3,C7:F7:8F:B2:48:BE,6,6,8736.517131445367,16051.9867645064,-15588.516777553692
6065,-10498,-6509,-6589,14279,-17649,13542,8249,6907,13589,6,1,29841,2020-11-02 14:56:19,2020-11-02 14:56:49,3,C7:F7:8F:B2:48:BE,6,6,3681.3111785976043,-12916.189479282577,3950.9496759136764
6066,-28165,-31054,23617,22012,24100,-22302,6708,24826,25115,6,1,29867,2020-11-02 14:56:19,2020-11-02 14:56:49,3,C7:F7:8F:B2:48:BE,6,6,-46385.71018234994,2366.3458077673677,-12575.656181571545
6067,17635,21704,-17625,3596,-16363,-9772,-13261,31483,-9182,6,1,29892,2020-11-02 14:56:19,2020-11-02 14:56:49,3,C7:F7:8F:B2:48:BE,6,6,-11958.165084264576,-27754.775382968768,13392.990601744881
6068,-27966,-11302,25402,-4078,5131,-27943,8501,-3842,-1496,6,1,29918,2020-11-02 14:56:19,2020-11-02 14:56:49,3,C7:F7:8F:B2:48:BE,6,6,-27966.0,-27481.542617011903,4214.45410336364
6069,-30530,21227,21025,-7640,6669,-17939,3130,21504,21037,6,1,29943,2020-11-02 14:56:19,2020-11-02 14:56:49,3,C7:F7:8F:B2:48:BE,6,6,-35854.90926162084,-16330.583283743024,-16506.19839495662
6070,-9797,-19983,-21246,47,-19965,12289,3649,6656,-19154,6,1,29969,2020-11-02 14:56:19,2020-11-02 14:56:49,3,C7:F7:8F:B2:48:BE,6,6,20119.34690739159,23052.944821400273,-3235.371552311535
6071,4285,4838,23263,-32462,-19711,1557,-3141,15872,-16596,6,1,29995,2020-11-02 14:56:19,2020-11-02 14:56:49,3,C7:F7:8F:B2:48:BE,6,6,-3661.49873089181,-19626.22482509294,-13577.16333254422
6072,-28715,-8233,22194,18226,-16883,1322,-6717,-12800,30503,6,-1,30020,2020-11-02 14:56:19,2020-11-02 14:56:49,3,C7:F7:8F:B2:48:BE,6,6,12152.649821746385,9073.564856230922,-33983.682453639114
6073,31994,1476,28824,-11498,4372,22072,-26424,4099,19999,6,-1,30046,2020-11-02 14:56:19,2020-11-02 14:56:49,3,C7:F7:8F:B2:48:BE,6,6,-28459.26800187681,27065.887197090025,-17723.58324469825
6074,-4847,1967,12465,-10248,-4326,-22232,-28473,-22268,791,6,-1,30071,2020-11-02 14:56:19,2020-11-02 14:56:49,3,C7:F7:8F:B2:48:BE,6,6,5738.217017997396,-10719.26010625205,5908.388209053155
6075,-23083,-32340,-5429,-19467,-15588,-21995,5061,-510,15121,6,-1,30097,2020-11-02 14:56:19,2020-11-02 14:56:49,3,C7:F7:8F:B2:48:BE,6,6,39012.59621156023,-7531.123809482626,-5429.0
6076,7709,32436,-1588,-28688,14359,18184,-3390,-10496,-2292,6,-1,30123,2020-11-02 14:56:19,2020-11-02 14:56:49,3,C7:F7:8F:B2:48:BE,6,6,5501.446399812429,32436.0,5628.899760165468
6077,2067,6355,-1326,12778,-7165,-9238,-21824,1790,-25843,6,-1,30148,2020-11-02 14:56:19,2020-11-02 14:56:49,3,C7:F7:8F:B2:48:BE,6,6,3551.884373169991,5798.95889585043,415.91239927173456
6078,3855,-20792,13028,3558,-7667,-6438,22460,16379,-495,6,-1,30174,2020-11-02 14:56:19,2020-11-02 14:56:49,3,C7:F7:8F:B2:48:BE,6,6,-16000.051466813034,18745.41252431251,3083.00751745461
6079,22780,31411,32252,13007,-31489,-14902,-16319,-6150,18201,6,-1,30200,2020-11-02 14:56:19,2020-11-02 14:56:49,3,C7:F7:8F:B2:48:BE,6,6,-49453.18999084794,-9370.00814547468,-3515.077820309946
6080,8692,-341,-8387,4036,29946,15308,11064,-16130,-31968,6,-1,30225,2020-11-02 14:56:19,2020-11-02 14:56:49,3,C7:F7:8F:B2:48:BE,6,6,-6374.061142061204,2682.529237129855,9908.79889034029
6081,24288,31434,13933,-16412,28155,1240,-25039,-9468,30500,6,-1,30251,2020-11-02 14:56:19,2020-11-02 14:56:49,3,C7:F7:8F:B2:48:BE,6,6,-29596.135789083724,-9556.119355657627,28370.426824680366
6082,-9244,19933,18742,-10994,-15614,-3601,15922,19720,9255,6,-1,30276,2020-11-02 14:56:19,2020-11-02 14:56:49,3,C7:F7:8F:B2:48:BE,6,6,27052.31305215483,-4762.835052125261,-8917.754750746426
6083,-28678,-29983,-2279,-30184,-15621,6389,1334,-11511,14376,6,1,30302,2020-11-02 14:56:19,2020-11-02 14:56:49,3,C7:F7:8F:B2:48:BE,6,6,21434.684184674363,25213.44848638744,-25128.432966015964
6084,-13581,5350,24341,-12516,-12032,-20242,-198,-31477,6698,6,1,30328,2020-11-02 14:56:19,2020-11-02 14:56:49,3,C7:F7:8F:B2:48:BE,6,6,6027.951997227969,19289.843093924734,19927.771830560472
6085,454,-7699,-8698,-15837,-18687,-11534,-24255,26892,6189,6,1,30353,2020-11-02 14:56:19,2020-11-02 14:56:49,3,C7:F7:8F:B2:48:BE,6,6,-9876.332330382815,6115.8784868974,435.9025502801678
6086,-25928,20209,-19744,20011,23296,32007,22715,-6644,21549,6,1,30379,2020-11-02 14:56:19,2020-11-02 14:56:49,3,C7:F7:8F:B2:48:BE,6,6,34957.826482272605,12411.443735103057,-9715.803263019034
6087,3540,-25608,14533,10541,26378,-1257,31424,-27636,-6103,6,1,30404,2020-11-02 14:56:19,2020-11-02 14:56:49,3,C7:F7:8F:B2:48:BE,6,6,16090.849822877972,-12711.324630534,-21424.661750299987
6088,-6167,23033,13990,-1254,-30199,15141,-26174,-2548,-10461,6,1,30430,2020-11-02 14:56:19,2020-11-02 14:56:49,3,C7:F7:8F:B2:48:BE,6,6,-24909.9188033037,-8665.642309791372,8286.95761854558
6089,-10498,-26394,18347,-32768,8973,21033,-15681,2061,-4325,6,1,30456,2020-11-02 14:56:19,2020-11-02 14:56:49,3,C7:F7:8F:B2:48:BE,6,6,-10498.0,27666.65949379606,16364.950273506622
6090,25598,18130,9920,25587,14612,-32477,-14406,12555,-10220,6,1,30481,2020-11-02 14:56:19,2020-11-02 14:56:49,3,C7:F7:8F:B2:48:BE,6,6,-14641.441254259733,25533.550697277293,-14697.853271400945
6091,2052,-3630,-1323,-11274,-19175,9494,4932,263,29200,6,1,30507,2020-11-02 14:56:19,2020-11-02 14:56:49,3,C7:F7:8F:B2:48:BE,6,6,-2898.8203124566526,-2997.4063448402712,-1323.0
6092,20734,-3883,-23344,29697,19993,-5111,32579,-11518,-18162,6,1,30532,2020-11-02 14:56:19,2020-11-02 14:56:49,3,C7:F7:8F:B2:48:BE,6,6,2618.5631377225873,24097.27373380171,20059.494178368266
6093,-16358,14560,-4919,28158,-4847,27377,-6845,-21761,27151,6,1,30558,2020-11-02 14:56:19,2020-11-02 14:56:49,3,C7:F7:8F:B2:48:BE,6,6,-9139.528661958007,-16284.751440570195,12451.915971291124
6094,-23035,28377,-26660,-7443,-7155,-29740,13890,-23043,-11244,6,1,30584,2020-11-02 14:56:19,2020-11-02 14:56:49,3,C7:F7:8F:B2:48:BE,6,6,33684.56976183446,-29449.65679219209,-6684.940447169491
6095,2279,9942,-22272,-17963,-18172,25036,-12740,-22274,32284,6,1,30609,2020-11-02 14:56:19,2020-11-02 14:56:49,3,C7:F7:8F:B2:48:BE,6,6,-24036.53092977327,-4723.897722828691,95.70875773285843
6096,-9000,20688,1327,29634,32233,23773,-31692,-1277,-2528,6,1,30635,2020-11-02 14:56:19,2020-11-02 14:56:49,3,C7:F7:8F:B2:48:BE,6,6,-9000.0,4595.91078038524,20214.64511434071
6097,12796,-3876,28980,-25646,-8981,3319,-30421,28424,15903,6,1,30660,2020-11-02 14:56:19,2020-11-02 14:56:49,3,C7:F7:8F:B2:48:BE,6,6,31167.858534800922,1317.435330713547,6740.204040236852
6098,8453,-5655,-23002,15612,31245,496,12584,20234,-32225,6,1,30686,2020-11-02 14:56:19,2020-11-02 14:56:49,3,C7:F7:8F:B2:48:BE,6,6,-24509.64043552318,-824.6407746876002,-5578.685446777746
6099,32497,15842,-24832,24335,2327,19185,7468,-11253,1572,6,1,30712,2020-11-02 14:56:19,2020-11-02 14:56:49,3,C7:F7:8F:B2:48:BE,6,6,17630.741792974688,29454.876624312754,27298.706633757763
6100,2561,12519,17944,13059,31227,-22800,-22226,19469,31014,6,1,30737,2020-11-02 14:56:19,2020-11-02 14:56:49,3,C7:F7:8F:B2:48:BE,6,6,-10957.419099851264,2276.921476634053,18974.240782161938
6101,16890,-6423,17192,-6391,496,-14106,16687,17937,16934,6,1,30763,2020-11-02 14:56:19,2020-11-02 14:56:49,3,C7:F7:8F:B2:48:BE,6,6,19505.771295691215,-11478.682515555553,10481.251207144493
6102,31956,-3085,-25066,-5605,-17930,17890,30771,14614,-20953,6,-1,30788,2020-11-02 14:56:19,2020-11-02 14:56:49,3,C7:F7:8F:B2:48:BE,6,6,13387.41046503406,27071.644760559473,-27329.669006388813
6103,13750,-22013,9987,31530,-3842,-18958,-3780,25,5932,6,-1,30814,2020-11-02 14:56:19,2020-11-02 14:56:49,3,C7:F7:8F:B2:48:BE,6,6,25952.457494263148,-323.4486179667838,9987.0
6104,-25673,-4606,-27657,23863,8714,-21746,1092,21784,28203,6,-1,30840,2020-11-02 14:56:19,2020-11-02 14:56:49,3,C7:F7:8F:B2:48:BE,6,6,-17547.7467975093,-13270.501365753684,31003.196445399488
6105,-9000,10205,7149,-21437,-6628,-23252,-8635,6421,16418,6,-1,30865,2020-11-02 14:56:19,2020-11-02 14:56:49,3,C7:F7:8F:B2:48:BE,6,6,-6805.667768221938,-12834.61615764626,5020.531875655266
6106,-9733,16808,15556,-10175,-16351,-23240,19131,-27121,23318,6,-1,30891,2020-11-02 14:56:19,2020-11-02 14:56:49,3,C7:F7:8F:B2:48:BE,6,6,-11967.975319598536,14958.706595598975,15881.87497546382
6107,32034,6583,31402,26913,-7388,-3802,31677,22539,-9204,6,-1,30917,2020-11-02 14:56:19,2020-11-02 14:56:49,3,C7:F7:8F:B2:48:BE,6,6,9972.8369406506,43656.36618966235,-7089.630700487918
6108,-20743,25531,22979,13324,-27360,256,19135,-17915,26889,6,-1,30942,2020-11-02 14:56:19,2020-11-02 14:56:49,3,C7:F7:8F:B2:48:BE,6,6,-36771.63798377299,1054.745569647833,16027.245639025163
6109,-10220,10177,-26958,-24832,-17398,7139,-13120,14850,11531,6,-1,30968,2020-11-02 14:56:19,2020-11-02 14:56:49,3,C7:F7:8F:B2:48:BE,6,6,23627.17634832332,17454.98245640786,8475.471565153483
6110,15612,21929,-32327,19673,-27904,-12862,446,22527,4370,6,-1,30993,2020-11-02 14:56:19,2020-11-02 14:56:49,3,C7:F7:8F:B2:48:BE,6,6,-20017.74935747748,21929.0,29800.32187177195
6111,16083,-22910,31722,-3924,-24578,-9292,-10688,-769,-9700,6,-1,31019,2020-11-02 14:56:19,2020-11-02 14:56:49,3,C7:F7:8F:B2:48:BE,6,6,20735.18493546333,-5799.049349135745,36417.570008698036
6112,18125,128,5754,-129,-5951,-12345,-2768,-3064,-13534,6,-1,31045,2020-11-02 14:56:19,2020-11-02 14:56:49,3,C7:F7:8F:B2:48:BE,6,6,-7426.271341783269,-16534.282656293515,5754.0
6113,14622,-11320,-129,21708,-5689,19466,795,14348,-14827,6,-1,31070,2020-11-02 14:56:19,2020-11-02 14:56:49,3,C7:F7:8F:B2:48:BE,6,6,-7712.221622853222,10350.425246455618,-13242.064033130537
6114,4412,1984,9035,-5070,-26089,-24070,32029,-8693,535,6,-1,31096,2020-11-02 14:56:19,2020-11-02 14:56:49,3,C7:F7:8F:B2:48:BE,6,6,1828.1214103041807,9226.666597540496,4069.3759481053016
6115,-5105,29622,-7943,26692,-23788,12773,-5335,8463,11291,6,-1,31121,2020-11-02 14:56:19,2020-11-02 14:56:49,3,C7:F7:8F:B2:48:BE,6,6,-30027.613442331123,8059.626061106507,4.0881619336778385
6116,14316,3018,-4621,19002,23563,478,23096,-5103,2850,6,-1,31147,2020-11-02 14:56:19,2020-11-02 14:56:49,3,C7:F7:8F:B2:48:BE,6,6,14316.0,-5469.880778584317,736.4572411714234
6117,28360,7910,16124,-6095,24586,21226,27205,28690,-13272,6,-1,31172,2020-11-02 14:56:19,2020-11-02 14:56:49,3,C7:F7:8F:B2:48:BE,6,6,-3547.86881481041,-24650.987287209486,22507.388312257197
6118,16827,17888,29687,-1474,-19174,19720,-20031,-6897,5929,6,-1,31201,2020-11-02 14:56:19,2020-11-02 14:56:49,3,C7:F7:8F:B2:48:BE,6,6,30798.34091170204,22943.367116647234,-3083.9170607088454
6119,11234,27058,2787,-15283,-1488,-13013,8136,-1780,-23264,6,-1,31224,2020-11-02 14:56:19,2020-11-02 14:56:49,3,C7:F7:8F:B2:48:BE,6,6,-16632.268560201745,478.88816088833323,24274.34443338657
6120,4386,28077,28588,-16081,13859,2107,15051,-24307,6420,6,-1,31249,2020-11-02 14:56:19,2020-11-02 14:56:49,3,C7:F7:8F:B2:48:BE,6,6,35731.71153059733,-14088.318696091203,-12230.810946603044
6121,-21442,31426,20661,22780,17951,16150,-569,21517,32010,6,1,31275,2020-11-02 14:56:19,2020-11-02 14:56:49,3,C7:F7:8F:B2:48:BE,6,6,36983.638651567984,-14237.036430370434,-17428.33975944213
6122,12782,-17215,-10010,-18712,3100,-18445,3524,1801,4872,6,1,31300,2020-11-02 14:56:19,2020-11-02 14:56:49,3,C7:F7:8F:B2:48:BE,6,6,12782.0,-17215.0,-10010.0
6123,-10517,-11335,20196,-22543,-29422,26349,-2367,-25340,15113,6,1,31326,2020-11-02 14:56:19,2020-11-02 14:56:49,3,C7:F7:8F:B2:48:BE,6,6,1085.5913054283192,24865.9216185522,-5241.694723808026
6124,8188,-24390,-26919,-13579,27904,-14109,-1344,-17406,16396,6,1,31352,2020-11-02 14:56:19,2020-11-02 14:56:49,3,C7:F7:8F:B2:48:BE,6,6,23970.21231298236,6233.250851700319,27805.09864198158
6125,-19981,14271,15827,-16148,-15873,-16438,-17729,-18688,-25838,6,1,31377,2020-11-02 14:56:19,2020-11-02 14:56:49,3,C7:F7:8F:B2:48:BE,6,6,-5558.9055595957125,24633.714207798155,14685.857969761899
6126,-12335,-7743,17381,-2357,21747,15294,26554,19968,4380,6,1,31403,2020-11-02 14:56:19,2020-11-02 14:56:49,3,C7:F7:8F:B2:48:BE,6,6,11435.248088780707,18215.146727294046,7186.721495312457
6127,7629,11179,21263,-16724,-4112,19921,-2756,-30204,13604,6,1,31428,2020-11-02 14:56:19,2020-11-02 14:56:49,3,C7:F7:8F:B2:48:BE,6,6,-19550.672553541444,15855.884668966431,-1284.1242419005039
6128,29649,1493,-8099,18889,12819,10723,-20685,-14585,23593,6,1,31454,2020-11-02 14:56:19,2020-11-02 14:56:49,3,C7:F7:8F:B2:48:BE,6,6,10721.597745480036,16423.50866361235,23710.79408118521
6129,-3610,998,-27548,-20469,2584,-4873,-30414,2056,20781,6,1,31480,2020-11-02 14:56:19,2020-11-02 14:56:49,3,C7:F7:8F:B2:48:BE,6,6,-193.96649727194063,-26941.788263491042,-6857.319459027144
6130,-27172,21214,28701,17961,-21739,-15869,32312,-26363,28464,6,1,31505,2020-11-02 14:56:19,2020-11-02 14:56:49,3,C7:F7:8F:B2:48:BE,6,6,19809.38282807832,-28376.17359474558,28539.094328508374
6131,13034,4069,28421,8485,-7421,5389,-25794,-19197,-9681,6,1,31531,2020-11-02 14:56:19,2020-11-02 14:56:49,3,C7:F7:8F:B2:48:BE,6,6,-26127.46821908219,-4040.799337483075,17182.040134251998
6132,32230,-4626,32255,4640,-3086,-757,-29117,19716,-11219,6,1,31556,2020-11-02 14:56:19,2020-11-02 14:56:49,3,C7:F7:8F:B2:48:BE,6,6,-44011.257651730004,8868.873068982146,-9214.66718874429
6133,15061,-14604,6902,19748,14832,-29423,-26693,2823,-30677,6,1,31582,2020-11-02 14:56:19,2020-11-02 14:56:49,3,C7:F7:8F:B2:48:BE,6,6,127.41965627405534,15668.448759531535,-15563.791912677632
6134,-7222,-29471,26343,-12753,26881,27428,-24896,16905,21287,6,1,31608,2020-11-02 14:56:19,2020-11-02 14:56:49,3,C7:F7:8F:B2:48:BE,6,6,32697.831344084996,-3981.243547730577,23014.176048849247
6135,-14372,4263,-8481,20280,-13798,-27582,6085,13834,-11747,6,1,31633,2020-11-02 14:56:19,2020-11-02 14:56:49,3,C7:F7:8F:B2:48:BE,6,6,6471.242889547817,-8543.95451793624,13482.535765200617
6136,-5347,-29032,-17220,-21976,-17391,-9909,-28986,4109,-23280,6,1,31659,2020-11-02 14:56:19,2020-11-02 14:56:49,3,C7:F7:8F:B2:48:BE,6,6,-2769.3210838919313,-9457.08967000295,-32724.15237569699
6137,6211,25516,-9541,4613,28201,-20689,-16190,-8948,31236,6,1,31685,2020-11-02 14:56:19,2020-11-02 14:56:49,3,C7:F7:8F:B2:48:BE,6,6,-12959.218715437204,-24208.725645136685,-5164.2725454766205
6138,23083,-11858,28119,8943,29,-2839,6848,29959,-21247,6,1,31736,2020-11-02 14:56:19,2020-11-02 14:56:49,3,C7:F7:8F:B2:48:BE,6,6,-5775.113182469282,29548.954609650293,23614.033183818818
6139,30444,-23898,-23579,-17422,-18926,1742,14783,13058,14087,6,1,31738,2020-11-02 14:56:19,2020-11-02 14:56:49,3,C7:F7:8F:B2:48:BE,6,6,-18756.61752762094,-34435.09793804188,-22722.986377675064
6140,14324,-14680,12504,11771,-1285,-19770,-11842,-17665,9999,6,1,31761,2020-11-02 14:56:19,2020-11-02 14:56:49,3,C7:F7:8F:B2:48:BE,6,6,-22990.853085329207,-3455.926768154415,-6042.072209264157
6141,-7435,20382,-20781,3306,-16143,23731,7869,14847,-26087,6,1,31787,2020-11-02 14:56:19,2020-11-02 14:56:49,3,C7:F7:8F:B2:48:BE,6,6,-27110.837301006235,-12210.783612732528,4295.8554912138
6142,-826,-21097,19742,-25669,-1839,-7511,-31421,-4093,-24538,6,1,31813,2020-11-02 14:56:19,2020-11-02 14:56:49,3,C7:F7:8F:B2:48:BE,6,6,19396.02534879482,15660.74149177622,-14630.366557153218
6143,-1840,-31015,-129,-12852,-19748,16346,14139,7951,-32723,6,1,31838,2020-11-02 14:56:19,2020-11-02 14:56:49,3,C7:F7:8F:B2:48:BE,6,6,-19489.910735226393,-19971.83728315663,-13660.218192548084
6144,-16161,17113,19273,18471,15407,30457,-14017,26381,-12494,6,1,31864,2020-11-02 14:56:19,2020-11-02 14:56:49,3,C7:F7:8F:B2:48:BE,6,6,-2362.9126810926336,-30162.331686232814,3183.0189932213425
6145,-15875,28379,-29426,-19423,-10510,-16382,18246,-22005,15411,6,-1,31889,2020-11-02 14:56:19,2020-11-02 14:56:49,3,C7:F7:8F:B2:48:BE,6,6,17176.531770556077,20002.13105586164,-35045.03176713089
6146,7400,31455,-29166,-18404,-18704,-12806,-5954,21262,18484,6,-1,31915,2020-11-02 14:56:19,2020-11-02 14:56:49,3,C7:F7:8F:B2:48:BE,6,6,14217.1105366519,5596.825205575948,40760.05270613436
6147,27849,23786,-25855,-3294,-9991,-29181,-24380,-7409,18229,6,-1,31966,2020-11-02 14:56:19,2020-11-02 14:56:49,3,C7:F7:8F:B2:48:BE,6,6,13610.955505505603,-6000.388408359358,42291.356695854214
6148,-3393,-1813,-5391,-31700,17420,25111,-5944,3857,30258,6,-1,31968,2020-11-02 14:56:19,2020-11-02 14:56:49,3,C7:F7:8F:B2:48:BE,6,6,-6251.832794094618,1688.9669906890206,-1387.1828354784252
6149,-16929,9934,23525,-26827,-26849,29487,-15415,-10223,-26584,6,-1,31992,2020-11-02 14:56:19,2020-11-02 14:56:49,3,C7:F7:8F:B2:48:BE,6,6,-17434.538698573124,-6215.49231188747,-24415.27263187581
6150,2320,-2120,-15173,19753,31003,29757,-19002,-30957,26650,6,-1,32017,2020-11-02 14:56:19,2020-11-02 14:56:49,3,C7:F7:8F:B2:48:BE,6,6,-10064.97393841348,-11588.528305826918,2121.0941337210224
6151,28725,28869,30652,-10997,-17630,-5335,-4161,2066,-27636,6,-1,32043,2020-11-02 14:56:19,2020-11-02 14:56:49,3,C7:F7:8F:B2:48:BE,6,6,-40624.04424635183,2869.1139870086263,30652.0
6152,-4054,-16432,3786,-15880,4649,-5618,6588,25612,29958,6,-1,32069,2020-11-02 14:56:19,2020-11-02 14:56:49,3,C7:F7:8F:B2:48:BE,6,6,-8287.64740827364,-14513.144754005398,4632.803231891117
6153,3598,-12862,-6702,-27423,26148,-22031,-7867,20998,3591,6,-1,32094,2020-11-02 14:56:19,2020-11-02 14:56:49,3,C7:F7:8F:B2:48:BE,6,6,-2545.661698345179,-12588.906798258537,-7637.570565457209
6154,25080,7358,7416,3040,26143,-7971,3138,-28415,-10997,6,-1,32120,2020-11-02 14:56:19,2020-11-02 14:56:49,3,C7:F7:8F:B2:48:BE,6,6,366.57962512070117,13047.38811083217,-23828.027674647383
6155,22516,-25933,17674,24030,-30721,32205,-10947,-30463,-12270,6,-1,32145,2020-11-02 14:56:19,2020-11-02 14:56:49,3,C7:F7:8F:B2:48:BE,6,6,-14394.223907795948,-33519.72915057269,-12692.3243247438
6156,-1816,-14174,25895,-2597,4833,-4165,19770,-22776,-7911,6,-1,32171,2020-11-02 14:56:19,2020-11-02 14:56:49,3,C7:F7:8F:B2:48:BE,6,6,11811.212147430166,812.6167811294754,27103.248487504683
6157,29334,7343,18768,28144,19452,-8522,-17860,-29167,-29404,6,-1,32197,2020-11-02 14:56:19,2020-11-02 14:56:49,3,C7:F7:8F:B2:48:BE,6,6,1455.6283675899213,-11369.641002492153,-33693.52220427417
6158,28837,7913,23330,30502,32286,-30754,21691,9233,-5841,6,-1,32225,2020-11-02 14:56:19,2020-11-02 14:56:49,3,C7:F7:8F:B2:48:BE,6,6,-10937.144526402008,-3558.8421835969475,-36141.25827805177
6159,719,8954,20745,30247,-21998,-26367,-23358,-16371,8241,6,-1,32248,2020-11-02 14:56:19,2020-11-02 14:56:49,3,C7:F7:8F:B2:48:BE,6,6,21306.885138053705,-6706.36990942858,3476.6866916213676
6160,17368,-8474,-5858,5677,-13800,-25585,967,2828,-27091,6,-1,32273,2020-11-02 14:56:19,2020-11-02 14:56:49,3,C7:F7:8F:B2:48:BE,6,6,-4939.338061919829,18683.121781706344,-5858.0
6161,15051,1472,-29709,12094,26929,-10718,17868,15114,-6363,6,-1,32299,2020-11-02 14:56:19,2020-11-02 14:56:49,3,C7:F7:8F:B2:48:BE,6,6,13469.388466388646,-15914.857515370246,-26011.861728968568
6162,3325,-29513,31418,-17626,17429,10552,-27697,5133,5148,6,1,32325,2020-11-02 14:56:19,2020-11-02 14:56:49,3,C7:F7:8F:B2:48:BE,6,6,3325.0,-4486.236615036709,-42871.68732431585
6163,-13542,7890,5299,11267,-15346,18218,-14132,28177,-6637,6,1,32350,2020-11-02 14:56:19,2020-11-02 14:56:49,3,C7:F7:8F:B2:48:BE,6,6,9909.499252911803,-12592.186812855993,-4117.756771189397
6164,29194,21965,-21551,-25876,31508,-16356,3013,1810,-14581,6,1,32376,2020-11-02 14:56:19,2020-11-02 14:56:49,3,C7:F7:8F:B2:48:BE,6,6,7823.727234068823,-35686.69434350693,-21551.0
6165,13594,-3132,8674,-4122,-16362,-4075,17341,-10481,-29435,6,1,32402,2020-11-02 14:56:19,2020-11-02 14:56:49,3,C7:F7:8F:B2:48:BE,6,6,2439.1693732349877,14861.199297915273,6560.468290931301
6166,23840,1484,22258,4073,19997,-9986,25669,-24309,-11005,6,1,32427,2020-11-02 14:56:19,2020-11-02 14:56:49,3,C7:F7:8F:B2:48:BE,6,6,-1469.4583512999907,31670.065419600258,-7798.337545402517
6167,31483,-9772,17140,-21520,289,27115,580,2311,-17402,6,1,32453,2020-11-02 14:56:19,2020-11-02 14:56:49,3,C7:F7:8F:B2:48:BE,6,6,-32546.958489232846,5231.325463030754,17140.0
6168,-13320,-3636,1255,-4375,21529,19939,-25790,6147,20235,6,1,32478,2020-11-02 14:56:19,2020-11-02 14:56:49,3,C7:F7:8F:B2:48:BE,6,6,9899.147425936913,-2852.3739806912427,9278.40309071783
6169,-7974,-20278,-26907,-8500,-7680,3038,-21955,-8958,-22512,6,1,32504,2020-11-02 14:56:19,2020-11-02 14:56:49,3,C7:F7:8F:B2:48:BE,6,6,31136.83963220876,-12004.051313670876,9228.682396575921
6170,-20758,21951,3376,-14658,-6671,-7456,9781,-21498,9748,6,1,32530,2020-11-02 14:56:19,2020-11-02 14:56:49,3,C7:F7:8F:B2:48:BE,6,6,1966.3602917132293,19755.6162293339,-23021.455114793513
6171,-4606,28373,-29848,21225,24328,-17961,23855,32267,1815,6,1,32555,2020-11-02 14:56:19,2020-11-02 14:56:49,3,C7:F7:8F:B2:48:BE,6,6,575.6308451606892,-41134.871334714306,-4973.578028602656
6172,12728,-22328,-12751,2340,-28386,-5681,-18890,8975,21536,6,1,32581,2020-11-02 14:56:19,2020-11-02 14:56:49,3,C7:F7:8F:B2:48:BE,6,6,-22814.40497014884,-17258.27446846854,-2187.340217948443
6173,13475,-9769,16903,-3273,16392,-5386,-31422,-26097,-23770,6,1,32606,2020-11-02 14:56:19,2020-11-02 14:56:49,3,C7:F7:8F:B2:48:BE,6,6,22383.31049959822,3121.0396613032553,-7208.808328090568
6174,23467,31181,12517,19004,-19196,-12028,18623,26895,-3802,6,1,32632,2020-11-02 14:56:19,2020-11-02 14:56:49,3,C7:F7:8F:B2:48:BE,6,6,-9291.08806100668,-32635.355177383848,22983.459576152247
6175,17342,9675,-4671,-17602,-21992,24,-21306,-23538,13859,6,1,32658,2020-11-02 14:56:19,2020-11-02 14:56:49,3,C7:F7:8F:B2:48:BE,6,6,12999.65535205815,-3804.4364631638277,-15254.640406297862
6176,-11537,28889,-860,23076,-3572,-9431,15561,22287,-230,6,-1,32683,2020-11-02 14:56:19,2020-11-02 14:56:49,3,C7:F7:8F:B2:48:BE,6,6,15179.086567105865,-11240.070173940312,-24732.012523715162
6177,11012,-7984,-10546,-12541,24570,27949,-5179,-750,12819,6,-1,32709,2020-11-02 14:56:19,2020-11-02 14:56:49,3,C7:F7:8F:B2:48:BE,6,6,2677.221691719111,13335.699607196791,-10546.0
6178,35,11468,20417,-26371,3858,-17116,30142,-28397,21513,6,-1,32734,2020-11-02 14:56:19,2020-11-02 14:56:49,3,C7:F7:8F:B2:48:BE,6,6,700.7270520718121,-23162.07602044102,3375.9967449341116
6179,-20451,-2603,-21031,-12303,-13033,-9971,1606,10768,16388,6,-1,32760,2020-11-02 14:56:19,2020-11-02 14:56:49,3,C7:F7:8F:B2:48:BE,6,6,14329.748943354345,-25056.068977395516,5845.825315593445
6180,16411,22227,23001,-27414,3613,-30984,-27069,-23797,-31484,6,-1,32786,2020-11-02 14:56:19,2020-11-02 14:56:49,3,C7:F7:8F:B2:48:BE,6,6,27964.762798692456,-18048.444011984753,-13587.941763163322
6181,-16900,-27952,-20521,25819,15897,-3605,-18368,-761,8200,6,-1,32811,2020-11-02 14:56:19,2020-11-02 14:56:49,3,C7:F7:8F:B2:48:BE,6,6,-29979.68572543176,-834.1424553186564,24260.22248802715
6182,-14351,11977,-18449,-23598,3599,13543,572,23558,-8948,6,-1,32837,2020-11-02 14:56:19,2020-11-02 14:56:49,3,C7:F7:8F:B2:48:BE,6,6,22690.40658989117,-13170.994647992557,1198.1985511487
6183,17124,-22835,-5108,-26417,-9724,-26646,11830,25095,-9456,6,-1,32862,2020-11-02 14:56:19,2020-11-02 14:56:49,3,C7:F7:8F:B2:48:BE,6,6,13478.200664945902,5193.1843550078775,25142.179859557786
6184,-20494,229,2331,13278,19973,-2313,-27344,-13048,-24558,6,-1,32888,2020-11-02 14:56:19,2020-11-02 14:56:49,3,C7:F7:8F:B2:48:BE,6,6,-4928.827120785032,8634.582346623567,-18073.203615097973
6185,9217,-13323,-27099,23528,-17146,-26886,-10196,8457,1556,6,-1,32914,2020-11-02 14:56:19,2020-11-02 14:56:49,3,C7:F7:8F:B2:48:BE,6,6,2093.1030200708574,-30001.46983839041,-9609.471696379598
6186,23300,-26383,30245,5365,-6654,12789,-27094,9226,3605,6,-1,32939,2020-11-02 14:56:19,2020-11-02 14:56:49,3,C7:F7:8F:B2:48:BE,6,6,-20847.79167719392,-5644.411821343612,-41075.81905909364
6187,-15357,-6684,-16354,2305,11010,23784,-30934,-25332,24086,6,-1,32965,2020-11-02 14:56:19,2020-11-02 14:56:49,3,C7:F7:8F:B2:48:BE,6,6,9337.633179205292,-10280.0750063683,18843.97212569702
6188,-543,-15670,25632,1036,-18434,-12329,6445,-24815,-11496,6,-1,32991,2020-11-02 14:56:19,2020-11-02 14:56:49,3,C7:F7:8F:B2:48:BE,6,6,-27667.42302027161,11719.913328637418,-22.53855744764951
6189,-27227,13495,27156,4639,-32766,25297,29494,-15593,1312,6,-1,33016,2020-11-02 14:56:19,2020-11-02 14:56:49,3,C7:F7:8F:B2:48:BE,6,6,16092.923182695158,29868.568795578427,-22577.85002031131
6190,-11390,-21552,6901,8507,19736,13283,22461,8984,-25811,6,-1,33042,2020-11-02 14:56:19,2020-11-02 14:56:49,3,C7:F7:8F:B2:48:BE,6,6,-5957.236418374826,-24254.80371643432,4249.757161630821
6191,-28229,31953,30434,18504,-24266,-11755,12229,-18926,-10711,6,-1,33067,2020-11-02 14:56:19,2020-11-02 14:56:49,3,C7:F7:8F:B2:48:BE,6,6,-20625.77424144281,-43706.47124092519,-20209.423905871583
6192,-13056,13521,-21028,31290,22069,1837,-13370,29454,797,6,-1,33093,2020-11-02 14:56:19,2020-11-02 14:56:49,3,C7:F7:8F:B2:48:BE,6,6,-305.18589332345164,-24747.42766824435,-13524.97860906
6193,-17379,31715,-1593,-21997,24081,29736,-31034,17165,-27374,6,-1,33118,2020-11-02 14:56:19,2020-11-02 14:56:49,3,C7:F7:8F:B2:48:BE,6,6,-30498.97808324267,19211.983006341543,3334.7503417687926
6194,-9461,-16171,-11315,-1544,-18436,21280,22979,-31985,-2548,6,-1,33144,2020-11-02 14:56:19,2020-11-02 14:56:49,3,C7:F7:8F:B2:48:BE,6,6,16144.012516703728,2006.8507585762618,14641.871358993536
6195,-32490,29648,-20777,-31241,18185,-10214,16574,24336,10759,6,1,33170,2020-11-02 14:56:19,2020-11-02 14:56:49,3,C7:F7:8F:B2:48:BE,6,6,-8600.143584691288,-1262.6636182790508,-47861.58108451671
6196,20001,8149,3033,21749,-15335,10763,-13638,7181,25091,6,1,33195,2020-11-02 14:56:19,2020-11-02 14:56:49,3,C7:F7:8F:B2:48:BE,6,6,-2773.112319110739,-2241.9202155995067,-21515.78334182798
6197,3606,25564,2532,-13589,11033,1271,15941,-4344,-18429,6,1,33221,2020-11-02 14:56:19,2020-11-02 14:56:49,3,C7:F7:8F:B2:48:BE,6,6,-5396.107286103529,12302.335777623968,22191.59562923436
6198,-24843,17370,-11037,7909,-19430,-18454,-17342,13061,-4090,6,1,33249,2020-11-02 14:56:19,2020-11-02 14:56:49,3,C7:F7:8F:B2:48:BE,6,6,18044.89765401489,-18753.71119490649,19062.709751611048
6199,21482,4047,-26391,11480,-22765,15079,-28098,-28414,18187,6,1,33272,2020-11-02 14:56:19,2020-11-02 14:56:49,3,C7:F7:8F:B2:48:BE,6,6,-3763.3535350030616,-16966.1835786859,-29535.15192012577
6200,-29466,24258,22780,3531,-11000,-17179,6456,-14590,-15089,6,1,33298,2020-11-02 14:56:19,2020-11-02 14:56:49,3,C7:F7:8F:B2:48:BE,6,6,1766.3939362402816,18426.748651469432,-40409.88624826335
6201,-1823,27595,-28909,6605,-29179,12778,-19664,7685,-9966,6,1,33323,2020-11-02 14:56:19,2020-11-02 14:56:49,3,C7:F7:8F:B2:48:BE,6,6,-15711.68249465953,-33643.30693668753,14893.23895433234
6202,6390,22494,-19651,26603,4634,15592,28204,4871,-9706,6,1,33349,2020-11-02 14:56:19,2020-11-02 14:56:49,3,C7:F7:8F:B2:48:BE,6,6,-21433.96039190484,-21356.432423793205,-4178.764535865697
6203,25070,9966,10057,14101,-4315,-32038,32303,15881,17438,6,1,33374,2020-11-02 14:56:19,2020-11-02 14:56:49,3,C7:F7:8F:B2:48:BE,6,6,14603.293115946191,-14678.59166886345,-20006.30105213183
6204,-2883,-28448,19493,23852,22032,16609,14648,-2806,-17883,6,1,33400,2020-11-02 14:56:19,2020-11-02 14:56:49,3,C7:F7:8F:B2:48:BE,6,6,2023.4610290735573,6234.330454973691,-33979.643483150445
6205,-1880,24257,-6644,32570,-13054,5368,1090,-10997,1321,6,1,33426,2020-11-02 14:56:19,2020-11-02 14:56:49,3,C7:F7:8F:B2:48:BE,6,6,4574.964888031562,24257.0,-5171.733971626766
6206,-6510,1685,-8486,-951,24329,29712,-17729,-13813,11304,6,1,33451,2020-11-02 14:56:19,2020-11-02 14:56:49,3,C7:F7:8F:B2:48:BE,6,6,-135.45756600762707,-5514.811475491069,-9316.653188651133
6207,14290,-25703,18067,3916,-12500,25646,-20024,-32758,-23776,6,1,33477,2020-11-02 14:56:19,2020-11-02 14:56:49,3,C7:F7:8F:B2:48:BE,6,6,-14899.090618756145,-25579.264960246554,-17747.763262664826
6208,-18408,12497,-1630,-3048,-14813,21036,-14134,19978,22805,6,1,33502,2020-11-02 14:56:19,2020-11-02 14:56:49,3,C7:F7:8F:B2:48:BE,6,6,-15605.537605343952,8974.810864941459,13175.975826735732
6209,5149,8655,-22589,5101,-15860,10530,-5178,22027,24334,6,1,33528,2020-11-02 14:56:19,2020-11-02 14:56:49,3,C7:F7:8F:B2:48:BE,6,6,11965.714135837905,612.9981282676395,21636.313584207204
6210,-7393,6599,11492,2022,7695,-31975,30144,19211,-3832,6,1,33554,2020-11-02 14:56:19,2020-11-02 14:56:49,3,C7:F7:8F:B2:48:BE,6,6,6886.044872288901,12891.844526300618,4080.6916970676098
6211,20511,-24114,26597,10477,19739,3591,11452,-249,-7931,6,1,33579,2020-11-02 14:56:19,2020-11-02 14:56:49,3,C7:F7:8F:B2:48:BE,6,6,-18713.887185398,-36391.2207917872,-5920.810898482703
6212,18951,-19505,30439,-4121,24347,-9227,-3259,-31997,24582,6,1,33605,2020-11-02 14:56:19,2020-11-02 14:56:49,3,C7:F7:8F:B2:48:BE,6,6,-37354.21790763653,-13409.0887496082,-9538.180665825994
6213,23030,-27959,14318,5084,-26860,12783,-15039,12800,-1272,6,1,33630,2020-11-02 14:56:19,2020-11-02 14:56:49,3,C7:F7:8F:B2:48:BE,6,6,8115.300288272714,24654.369960311666,-29041.274904715232
6214,495,5566,-16125,-12338,-21494,-3603,21051,4351,18956,6,1,33656,2020-11-02 14:56:19,2020-11-02 14:56:49,3,C7:F7:8F:B2:48:BE,6,6,-33.560018211033764,3272.220857508763,16749.102972543402
6215,-1552,-32581,1317,24782,769,-26380,-16333,1792,26638,6,1,33682,2020-11-02 14:56:19,2020-11-02 14:56:49,3,C7:F7:8F:B2:48:BE,6,6,12181.851283500051,-8470.624002317365,29077.75407967495
6216,-6879,32712,-27339,14827,-13556,13548,31022,13569,22800,6,1,33707,2020-11-02 14:56:19,2020-11-02 14:56:49,3,C7:F7:8F:B2:48:BE,6,6,34774.87200006731,12151.044738743243,22536.124226139553
6217,1805,26320,4645,-15615,-13807,-23084,13358,26372,30997,6,1,33733,2020-11-02 14:56:19,2020-11-02 14:56:49,3,C7:F7:8F:B2:48:BE,6,6,-19610.765161850784,12791.861794920962,-13013.939126428288
6218,-2349,-18725,7714,1031,-17142,8393,-5328,24330,-17893,6,1,33759,2020-11-02 14:56:19,2020-11-02 14:56:49,3,C7:F7:8F:B2:48:BE,6,6,1617.0354927730705,19144.787588650393,-6819.935952820226
6219,27049,16359,5157,23828,-11262,8927,12854,21263,-20959,6,1,33784,2020-11-02 14:56:19,2020-11-02 14:56:49,3,C7:F7:8F:B2:48:BE,6,6,23109.509574193118,14907.392891625896,-16418.895681956754
6220,18602,28108,-3093,30258,26888,12780,13119,13841,12582,6,1,33810,2020-11-02 14:56:19,2020-11-02 14:56:49,3,C7:F7:8F:B2:48:BE,6,6,1141.7664657200621,18854.866460798574,-28086.49314320338
6221,23948,26816,29889,-21438,-26852,20472,-28226,-23794,-25047,6,1,33835,2020-11-02 14:56:19,2020-11-02 14:56:49,3,C7:F7:8F:B2:48:BE,6,6,40241.22387963592,14829.974872510014,-18619.146783613392
6222,29608,30125,-3926,-24764,-711,-7903,-25402,19209,-14813,6,1,33861,2020-11-02 14:56:19,2020-11-02 14:56:49,3,C7:F7:8F:B2:48:BE,6,6,-4494.901893634376,30356.123480445338,-29289.322102202314
6223,10012,-32554,397,25104,9509,812,-19256,-13049,1561,6,1,33887,2020-11-02 14:56:19,2020-11-02 14:56:49,3,C7:F7:8F:B2:48:BE,6,6,-7986.414908335766,32284.240377530667,7355.655589934229
6224,-8174,25324,973,14057,30991,19470,11717,-30458,29715,6,1,33938,2020-11-02 14:56:19,2020-11-02 14:56:49,3,C7:F7:8F:B2:48:BE,6,6,-5458.285216439812,-21818.793657092872,14255.291889161663
6225,-9211,-18978,-14870,-27434,30713,-13044,6335,16903,-24047,6,1,33940,2020-11-02 14:56:19,2020-11-02 14:56:49,3,C7:F7:8F:B2:48:BE,6,6,10051.795148627412,-15093.913134343653,18364.615584948097
6226,-11513,20180,3556,-15911,27644,3345,23877,-4345,21519,6,1,33963,2020-11-02 14:56:19,2020-11-02 14:56:49,3,C7:F7:8F:B2:48:BE,6,6,12879.45036061118,8769.551776229775,-17596.631071104995
6227,8976,-26431,-2321,-20266,-21252,30994,-31938,-12025,29452,6,1,33989,2020-11-02 14:56:19,2020-11-02 14:56:49,3,C7:F7:8F:B2:48:BE,6,6,592.380461056433,-20587.37570851022,18983.214291210064
6228,27411,11967,-29447,14556,1032,-4338,23352,17414,26122,6,1,34015,2020-11-02 14:56:19,2020-11-02 14:56:49,3,C7:F7:8F:B2:48:BE,6,6,-5987.931769666491,39128.40846117097,-13957.440432170299
6229,23826,-5699,2570,-2335,-4076,29705,-5069,-2302,-8694,6,1,34040,2020-11-02 14:56:19,2020-11-02 14:56:49,3,C7:F7:8F:B2:48:BE,6,6,8077.699597194095,-23128.07052517547,2570.0
6230,16661,-23611,-5863,4326,-4342,31739,-3793,27649,28172,6,1,34066,2020-11-02 14:56:19,2020-11-02 14:56:49,3,C7:F7:8F:B2:48:BE,6,6,-13650.755448334588,20316.995056596872,16441.39892344875
6231,-19952,-32301,-7386,12269,13317,-22033,-14804,25346,21518,6,-1,34091,2020-11-02 14:56:19,2020-11-02 14:56:49,3,C7:F7:8F:B2:48:BE,6,6,10448.493696991305,-8283.27458608736,-36307.11008322491
6232,-18660,25310,-1484,-4103,-9727,29159,-2774,4613,-15857,6,-1,34117,2020-11-02 14:56:19,2020-11-02 14:56:49,3,C7:F7:8F:B2:48:BE,6,6,30779.61784292768,6434.813551559044,-1484.0
6233,-13561,10189,22056,-5611,-22775,7881,-20179,-25590,27411,6,-1,34143,2020-11-02 14:56:19,2020-11-02 14:56:49,3,C7:F7:8F:B2:48:BE,6,6,440.4906438809885,11180.18264889833,25475.34223381358
6234,7344,2264,-13057,27939,-17140,-14396,7224,-10736,-18660,6,-1,34168,2020-11-02 14:56:19,2020-11-02 14:56:49,3,C7:F7:8F:B2:48:BE,6,6,-6495.053358207191,-13259.60862982134,3397.402221993881
6235,12166,496,-19230,-6630,-19200,-23577,12355,-3822,23077,6,-1,34194,2020-11-02 14:56:19,2020-11-02 14:56:49,3,C7:F7:8F:B2:48:BE,6,6,5124.850129817906,-20501.816116402257,8453.515190507087
6236,-11865,29930,11228,-32739,513,-1282,19900,-20973,26919,6,-1,34219,2020-11-02 14:56:19,2020-11-02 14:56:49,3,C7:F7:8F:B2:48:BE,6,6,-31937.16165505864,10777.810744696952,5148.5541630779035
6237,20921,-21544,-15665,-988,21775,-26107,-14656,-27886,12838,6,-1,34245,2020-11-02 14:56:19,2020-11-02 14:56:49,3,C7:F7:8F:B2:48:BE,6,6,2267.8999875082864,7729.197579395788,-32898.94430563574
6238,-19026,-19480,5565,-17628,22038,8976,-61,22032,-30686,6,-1,34273,2020-11-02 14:56:19,2020-11-02 14:56:49,3,C7:F7:8F:B2:48:BE,6,6,24245.56077921934,13289.24677731725,-2824.3589702344448
6239,13004,-21249,-3925,-24046,13342,16931,31171,8462,-11238,6,-1,34296,2020-11-02 14:56:19,2020-11-02 14:56:49,3,C7:F7:8F:B2:48:BE,6,6,4314.916123106575,-24842.004430961188,-534.7491960348179
6240,19460,-28943,-13890,-12043,13328,-27354,-23106,7693,-21486,6,-1,34322,2020-11-02 14:56:19,2020-11-02 14:56:49,3,C7:F7:8F:B2:48:BE,6,6,4428.0426351013,-29096.693828532545,-23304.415797662918
6241,-27372,-31262,220,-25376,16143,24349,24132,-9462,21260,6,-1,34347,2020-11-02 14:56:19,2020-11-02 14:56:49,3,C7:F7:8F:B2:48:BE,6,6,31323.44884297318,-25273.998402522775,-10327.341639111106
6242,29700,28379,-786,-16923,10780,6925,30783,31750,16394,6,-1,34373,2020-11-02 14:56:19,2020-11-02 14:56:49,3,C7:F7:8F:B2:48:BE,6,6,-21089.01281166619,28547.256302933463,20697.418515457546
6243,12024,-31544,12787,-30489,-24036,-9721,6972,-6655,-22518,6,-1,34399,2020-11-02 14:56:19,2020-11-02 14:56:49,3,C7:F7:8F:B2:48:BE,6,6,-26711.698069686157,24276.578312144666,-490.72669402865995
6244,-14333,-8258,-20483,-32034,25615,-21245,568,-19970,-31221,6,-1,34424,2020-11-02 14:56:19,2020-11-02 14:56:49,3,C7:F7:8F:B2:48:BE,6,6,12763.781842530869,14036.062786464034,18255.343232344847
6245,-22258,29628,11283,28125,-12026,28919,-15566,-4355,-17140,6,1,34450,2020-11-02 14:56:19,2020-11-02 14:56:49,3,C7:F7:8F:B2:48:BE,6,6,7380.354609476713,21100.5642495328,-31636.048918752706
6246,24583,-12094,12581,-29206,-8694,-24090,-29394,27391,-32241,6,1,34476,2020-11-02 14:56:19,2020-11-02 14:56:49,3,C7:F7:8F:B2:48:BE,6,6,12023.86645673711,-13977.398303483524,23852.23801022302
6247,10752,-21042,-17098,18935,21254,6365,-32468,11011,-16878,6,1,34501,2020-11-02 14:56:19,2020-11-02 14:56:49,3,C7:F7:8F:B2:48:BE,6,6,15827.690659707136,9528.393585042311,-22570.042004151077
6248,-7697,8421,-24769,2824,5635,21211,4653,13832,-27115,6,1,34527,2020-11-02 14:56:19,2020-11-02 14:56:49,3,C7:F7:8F:B2:48:BE,6,6,6254.907159256933,-20125.231741211952,17306.40328871344
6249,-29740,-32272,-2008,-15585,-22008,5347,11058,15116,32281,6,1,34552,2020-11-02 14:56:19,2020-11-02 14:56:49,3,C7:F7:8F:B2:48:BE,6,6,-18873.745371403817,8289.897044710857,38794.857786097215
6250,-8525,29433,-5129,1580,27395,-2324,23354,26126,20509,6,1,34578,2020-11-02 14:56:19,2020-11-02 14:56:49,3,C7:F7:8F:B2:48:BE,6,6,-16431.034553245732,25696.235584870392,5916.784200635099
6251,-26963,27384,17846,-27095,17409,28927,19778,-11762,5663,6,1,34604,2020-11-02 14:56:19,2020-11-02 14:56:49,3,C7:F7:8F:B2:48:BE,6,6,23771.57752549657,-29628.38219074299,-18773.321808049048
6252,5060,-28692,-4943,15643,-5634,-4598,-4423,-498,-18915,6,1,34629,2020-11-02 14:56:19,2020-11-02 14:56:49,3,C7:F7:8F:B2:48:BE,6,6,-9058.377304051963,27690.79747167705,-4943.0
6253,-28467,20460,-2381,3604,14595,15372,-69,-5106,20763,6,1,34655,2020-11-02 14:56:19,2020-11-02 14:56:49,3,C7:F7:8F:B2:48:BE,6,6,25294.801035819997,-24272.50974988535,-2381.0
6254,-17206,-11258,24236,27150,8459,-10996,10941,9742,-5608,6,1,34680,2020-11-02 14:56:19,2020-11-02 14:56:49,3,C7:F7:8F:B2:48:BE,6,6,-6249.065799417465,-26476.614147267697,16435.047183724633
6255,14827,25607,27048,15864,-24048,-4331,26299,4108,5141,6,-1,34706,2020-11-02 14:56:19,2020-11-02 14:56:49,3,C7:F7:8F:B2:48:BE,6,6,14827.0,3732.1416936343303,-37059.19415446909
6256,32250,20718,-16185,-12576,-5367,-6382,-2494,-20471,-24815,6,-1,34731,2020-11-02 14:56:19,2020-11-02 14:56:49,3,C7:F7:8F:B2:48:BE,6,6,3696.67454119378,-35976.259488384836,20574.148817408925
6257,19447,-561,29402,18132,-26104,2576,26428,30727,30991,6,-1,34757,2020-11-02 14:56:19,2020-11-02 14:56:49,3,C7:F7:8F:B2:48:BE,6,6,28366.059272583072,-16155.490613532002,13317.091964103241
6258,24566,17851,-21247,11220,1795,-26347,20789,9477,-17651,6,-1,34783,2020-11-02 14:56:19,2020-11-02 14:56:49,3,C7:F7:8F:B2:48:BE,6,6,-34832.27371396868,9857.093393957544,-7945.563777225927
6259,13069,22455,-1271,15076,9478,-2025,-19665,10242,-25077,6,-1,34808,2020-11-02 14:56:19,2020-11-02 14:56:49,3,C7:F7:8F:B2:48:BE,6,6,13395.015295574442,18775.16072873783,-12029.469308385442
6260,10535,2240,-2808,4083,-30701,-22264,6701,-22786,-26100,6,-1,34859,2020-11-02 14:56:19,2020-11-02 14:56:49,3,C7:F7:8F:B2:48:BE,6,6,4146.990433472434,-10267.950583970707,1122.6531743257574
6261,18205,705,14600,-29448,19220,8942,-27605,11262,-7921,6,-1,34861,2020-11-02 14:56:19,2020-11-02 14:56:49,3,C7:F7:8F:B2:48:BE,6,6,-8467.147651771284,-8116.337952895896,-20186.914545751803
6262,-22006,25285,-1521,12536,-6646,-24101,29226,31745,-24045,6,-1,34885,2020-11-02 14:56:19,2020-11-02 14:56:49,3,C7:F7:8F:B2:48:BE,6,6,-15712.001253604887,9450.114741689365,-28102.260584793243
6263,-16385,18893,-11998,-4617,-29438,-2095,-21207,25607,-32490,6,-1,34911,2020-11-02 14:56:19,2020-11-02 14:56:49,3,C7:F7:8F:B2:48:BE,6,6,20619.72514716538,-2200.967018061001,-18421.410289138104
6264,-16156,6096,13605,14343,-3320,28107,9771,-17394,-9703,6,-1,34936,2020-11-02 14:56:19,2020-11-02 14:56:49,3,C7:F7:8F:B2:48:BE,6,6,828.3666201126234,-16382.636666939616,-14635.456999415113
6265,27833,-14623,19983,15896,-11509,31959,-28877,30228,-29407,6,-1,34962,2020-11-02 14:56:19,2020-11-02 14:56:49,3,C7:F7:8F:B2:48:BE,6,6,26864.611254899915,8640.390114344576,24320.045801664128
6266,20413,2281,17661,26643,30713,16364,11324,15639,-13529,6,-1,34987,2020-11-02 14:56:19,2020-11-02 14:56:49,3,C7:F7:8F:B2:48:BE,6,6,-13194.648712744513,3919.1199773902313,-23331.227892035393
6267,8368,218,17677,-12265,6900,-20241,10819,11290,20012,6,-1,35013,2020-11-02 14:56:19,2020-11-02 14:56:49,3,C7:F7:8F:B2:48:BE,6,6,-10502.721890485296,16403.195932665472,-1781.9295961703956
6268,-23913,17841,-20252,-6349,-14588,17396,-23358,25882,-28878,6,1,35039,2020-11-02 14:56:19,2020-11-02 14:56:49,3,C7:F7:8F:B2:48:BE,6,6,-4821.136217059364,-3377.24343935004,-35575.65496695635
6269,-30053,-13119,9917,3650,12063,14084,9162,18711,2608,6,1,35090,2020-11-02 14:56:19,2020-11-02 14:56:49,3,C7:F7:8F:B2:48:BE,6,6,28950.530461540086,-15433.093707024034,9865.306058387378
6270,-26178,6652,11694,8242,-21717,-4837,29129,6420,15908,6,1,35092,2020-11-02 14:56:19,2020-11-02 14:56:49,3,C7:F7:8F:B2:48:BE,6,6,-4954.226166932552,-20655.48855646328,20373.827808752467
6271,-17164,22022,-25150,-17394,-3814,14117,-30780,-30190,22296,6,1,35116,2020-11-02 14:56:19,2020-11-02 14:56:49,3,C7:F7:8F:B2:48:BE,6,6,-12739.640802973108,-28854.699446053226,20425.517180457347
6272,-22786,19954,22727,-3080,-20208,-12508,-17219,-19183,5647,6,1,35141,2020-11-02 14:56:19,2020-11-02 14:56:49,3,C7:F7:8F:B2:48:BE,6,6,26130.48809141054,-16547.075853988685,21846.562974229983
6273,-1035,9171,10965,-32526,-14308,-17630,580,7182,-3065,6,1,35167,2020-11-02 14:56:19,2020-11-02 14:56:49,3,C7:F7:8F:B2:48:BE,6,6,8667.51646184506,9171.0,6795.337253120325
6274,7418,32195,-21280,31469,23591,-26600,-2497,-4857,16644,6,1,35192,2020-11-02 14:56:19,2020-11-02 14:56:49,3,C7:F7:8F:B2:48:BE,6,6,-32361.807890159525,-6652.679090442343,-21280.0
6275,-25106,-8009,12768,22759,-16087,-25084,9533,29953,-24572,6,1,35218,2020-11-02 14:56:19,2020-11-02 14:56:49,3,C7:F7:8F:B2:48:BE,6,6,16160.722001596869,4345.9583697698845,-24029.582835233115
6276,-31007,-8278,-31761,25300,6431,9207,7480,13053,-16121,6,1,35244,2020-11-02 14:56:19,2020-11-02 14:56:49,3,C7:F7:8F:B2:48:BE,6,6,23994.565059609093,-1045.643402251087,38234.64308026839
6277,26344,3220,-2546,12741,-24814,-15378,-18897,21500,-13557,6,1,35269,2020-11-02 14:56:19,2020-11-02 14:56:49,3,C7:F7:8F:B2:48:BE,6,6,7506.585067910402,24925.78329355583,-5763.103315134787
6278,-25871,2215,-7625,19666,20490,22769,16935,9214,11790,6,1,35297,2020-11-02 14:56:19,2020-11-02 14:56:49,3,C7:F7:8F:B2:48:BE,6,6,-1465.8250746033837,-11243.042736792402,24572.359224733053
6279,15893,-12864,-444,-5634,-15332,16617,-16861,28160,-7407,6,1,35320,2020-11-02 14:56:19,2020-11-02 14:56:49,3,C7:F7:8F:B2:48:BE,6,6,-6306.485191148014,18982.53818447818,4261.287318247712
6280,20739,4297,4901,13077,-23528,-27694,12326,-32251,-31722,6,1,35346,2020-11-02 14:56:19,2020-11-02 14:56:49,3,C7:F7:8F:B2:48:BE,6,6,8164.932213685346,5587.287049128521,-19357.330300859256
6281,24520,10711,-22774,21782,30985,25801,27435,1805,17435,6,1,35372,2020-11-02 14:56:19,2020-11-02 14:56:49,3,C7:F7:8F:B2:48:BE,6,6,-20854.347273656007,27454.3116234587,6779.96829430468
6282,-20555,25313,-29702,9751,-15356,725,-20686,24595,6433,6,-1,35397,2020-11-02 14:56:19,2020-11-02 14:56:49,3,C7:F7:8F:B2:48:BE,6,6,21310.36850568607,-20949.69732649049,-32441.380582217833
6283,657,-29476,-1830,31006,-19712,18643,9280,5143,-725,6,-1,35423,2020-11-02 14:56:19,2020-11-02 14:56:49,3,C7:F7:8F:B2:48:BE,6,6,657.0,-14386.058865570836,-25791.951967936253
6284,128,-32552,11223,-16611,32764,-16914,20672,25111,-32203,6,-1,35448,2020-11-02 14:56:19,2020-11-02 14:56:49,3,C7:F7:8F:B2:48:BE,6,6,-26036.15128472797,20008.829882931645,10361.967477012247
6285,-10111,27618,20164,-3032,-6640,-1271,-21563,27670,1589,6,-1,35474,2020-11-02 14:56:19,2020-11-02 14:56:49,3,C7:F7:8F:B2:48:BE,6,6,24666.041696161574,-24496.068928591936,7943.685233497803
6286,-9019,-28681,-2867,-5091,-6103,6946,-12350,19475,-22998,6,-1,35500,2020-11-02 14:56:19,2020-11-02 14:56:49,3,C7:F7:8F:B2:48:BE,6,6,-15411.775940462318,3572.464746896768,-25726.959964075948
6287,-22031,-25089,-3389,-15360,20742,7976,-32323,-1007,-17632,6,-1,35525,2020-11-02 14:56:19,2020-11-02 14:56:49,3,C7:F7:8F:B2:48:BE,6,6,21264.812745892603,6937.322024085277,-25019.782273558354
6288,-21766,-13590,-1839,-15892,-25603,31273,-15039,-7151,-9449,6,-1,35551,2020-11-02 14:56:19,2020-11-02 14:56:49,3,C7:F7:8F:B2:48:BE,6,6,-8968.489310826397,21339.833178830253,-11225.261528413866
6289,26618,32468,-24608,-13591,12038,7980,25913,-9458,12560,6,-1,35576,2020-11-02 14:56:19,2020-11-02 14:56:49,3,C7:F7:8F:B2:48:BE,6,6,27274.9049717692,36152.85437184429,17812.72835781143
6290,-24826,-4668,-14627,-2839,-8945,-15065,4916,26633,-8949,6,-1,35602,2020-11-02 14:56:19,2020-11-02 14:56:49,3,C7:F7:8F:B2:48:BE,6,6,10820.703098866066,-25491.85436250581,-9227.533506142572
6291,13055,-8527,3819,2790,-1002,23574,-19408,-4093,-16629,6,-1,35628,2020-11-02 14:56:19,2020-11-02 14:56:49,3,C7:F7:8F:B2:48:BE,6,6,2733.242547544996,-15608.127572979138,-2577.451035790613
6292,28418,-11347,-18683,9702,-19937,-17391,2093,31743,-11507,6,-1,35653,2020-11-02 14:56:19,2020-11-02 14:56:49,3,C7:F7:8F:B2:48:BE,6,6,-21127.917021645542,-18898.523048313236,21951.049426367616
6293,-3808,-22859,-25314,19440,6435,-20738,-29655,-5381,1811,6,-1,35679,2020-11-02 14:56:19,2020-11-02 14:56:49,3,C7:F7:8F:B2:48:BE,6,6,-3808.0,17789.9751913188,-29100.67455734079
6294,-23531,27835,24596,13819,23057,-8992,27943,-11267,-21738,6,1,35704,2020-11-02 14:56:19,2020-11-02 14:56:49,3,C7:F7:8F:B2:48:BE,6,6,-18295.744426161178,-3032.3862039814085,-39868.894790331164
6295,29960,-10832,13842,-3581,-1010,8899,-12249,28420,-8422,6,1,35730,2020-11-02 14:56:19,2020-11-02 14:56:49,3,C7:F7:8F:B2:48:BE,6,6,2131.358420831164,28318.815374403486,20000.919855656666
6296,-17211,-5462,11265,25089,-25079,-13399,27690,-23793,-5089,6,1,35756,2020-11-02 14:56:19,2020-11-02 14:56:49,3,C7:F7:8F:B2:48:BE,6,6,8805.66062690875,12095.58156680086,15136.36143478928
6297,128,-1840,25345,-8191,-31227,20419,-24779,-29159,7725,6,1,35781,2020-11-02 14:56:19,2020-11-02 14:56:49,3,C7:F7:8F:B2:48:BE,6,6,5843.18730382276,-24174.58201522709,-5217.0638793773
6298,-8316,-24598,1559,-508,16638,-12832,25786,28700,12863,6,1,35807,2020-11-02 14:56:19,2020-11-02 14:56:49,3,C7:F7:8F:B2:48:BE,6,6,-7689.096113674964,-24670.391947687367,-2982.8682676495964
6299,-31081,-26671,-13802,-20450,-12794,-26118,20676,-25061,-11591,6,1,35833,2020-11-02 14:56:19,2020-11-02 14:56:49,3,C7:F7:8F:B2:48:BE,6,6,14207.912102897388,-37084.53112461533,17051.064217337833
6300,5783,23739,10745,31279,542,25618,11205,-3047,21824,6,1,35858,2020-11-02 14:56:19,2020-11-02 14:56:49,3,C7:F7:8F:B2:48:BE,6,6,-6259.213723750118,-2930.658995963917,25781.22798490782
6301,8875,-10804,18655,19762,-726,-31967,-22591,-23018,-31949,6,1,35884,2020-11-02 14:56:19,2020-11-02 14:56:49,3,C7:F7:8F:B2:48:BE,6,6,-18063.9441784071,-14078.301902260875,4358.486235861024
6302,-22834,16358,-25124,12834,-29659,-5334,28094,1810,13607,6,1,35909,2020-11-02 14:56:19,2020-11-02 14:56:49,3,C7:F7:8F:B2:48:BE,6,6,36514.07558110081,-8400.752858334043,4042.3671123302956
6303,-3353,7131,968,10766,30483,31028,-326,-9714,-15844,6,1,35935,2020-11-02 14:56:19,2020-11-02 14:56:49,3,C7:F7:8F:B2:48:BE,6,6,7577.075428202694,-579.5666074800715,-2298.439579980518
6304,28421,-19009,1212,1781,-21752,-19142,-12223,28172,23314,6,1,35960,2020-11-02 14:56:19,2020-11-02 14:56:49,3,C7:F7:8F:B2:48:BE,6,6,27264.57836308741,17779.255959250953,10540.639934012797
6305,-12012,-11869,-15157,-18977,24840,-22228,8763,30216,-11766,6,1,35986,2020-11-02 14:56:19,2020-11-02 14:56:49,3,C7:F7:8F:B2:48:BE,6,6,-69.39366203515237,-15389.825331485845,-16674.66385826191
6306,-7924,-13919,-27409,14556,-6894,1048,32053,-11005,17672,6,1,36012,2020-11-02 14:56:19,2020-11-02 14:56:49,3,C7:F7:8F:B2:48:BE,6,6,13146.834902013368,28663.01315799081,-3657.0516490813916
6307,-24823,32670,17160,2021,-8662,4110,13361,-14082,13578,6,1,36037,2020-11-02 14:56:19,2020-11-02 14:56:49,3,C7:F7:8F:B2:48:BE,6,6,30790.705458120392,2886.365209630594,-31962.121053958697
6308,-4577,-30297,-31710,-29973,23835,-1804,8493,13819,26383,6,1,36063,2020-11-02 14:56:19,2020-11-02 14:56:49,3,C7:F7:8F:B2:48:BE,6,6,31895.941657239277,21151.315223970036,21900.959067909374
6309,28172,8632,-32478,-26381,-1266,27609,-215,-8195,-17901,6,1,36089,2020-11-02 14:56:19,2020-11-02 14:56:49,3,C7:F7:8F:B2:48:BE,6,6,-40906.7171090428,-14550.369116529268,6157.982294022619
6310,17152,-29253,21540,14062,25861,31177,-19673,-19964,-11498,6,1,36114,2020-11-02 14:56:19,2020-11-02 14:56:49,3,C7:F7:8F:B2:48:BE,6,6,35153.936488463216,-83.12326773007135,19444.653581060695
6311,-27684,22442,-18383,24592,9501,7602,18985,-11506,-23781,6,-1,36140,2020-11-02 14:56:19,2020-11-02 14:56:49,3,C7:F7:8F:B2:48:BE,6,6,20019.56430472417,6842.178424140187,-34064.402951780095
6312,1936,4814,-18226,25128,-29912,23246,26427,32531,18988,6,-1,36165,2020-11-02 14:56:19,2020-11-02 14:56:49,3,C7:F7:8F:B2:48:BE,6,6,9697.915596068357,15728.960367588752,4202.381092470841
6313,29605,-16647,-16400,29452,-32536,-27156,-23996,20244,-17101,6,-1,36191,2020-11-02 14:56:19,2020-11-02 14:56:49,3,C7:F7:8F:B2:48:BE,6,6,33487.11867232198,17198.219312118395,-2317.923535861846
6314,-4431,28652,24075,31503,24303,-14865,9406,-26344,-5832,6,-1,36216,2020-11-02 14:56:19,2020-11-02 14:56:49,3,C7:F7:8F:B2:48:BE,6,6,12722.069928903657,-28656.04095194116,-20908.293657894625
6315,20887,20701,-7458,-24549,21749,-11528,-19514,8729,10046,6,-1,36242,2020-11-02 14:56:19,2020-11-02 14:56:49,3,C7:F7:8F:B2:48:BE,6,6,26256.723443438183,1014.1789801576879,-15164.954632672341
6316,2709,-27436,24014,-31210,-10761,27142,30157,-10982,-29119,6,-1,36268,2020-11-02 14:56:19,2020-11-02 14:56:49,3,C7:F7:8F:B2:48:BE,6,6,-22109.40579381185,-20997.490705170654,20174.849008873178
6317,-8537,3047,-2628,-1776,14336,20498,-20276,28188,30525,6,-1,36293,2020-11-02 14:56:19,2020-11-02 14:56:49,3,C7:F7:8F:B2:48:BE,6,6,-2131.5667337786567,-4735.7719959901615,-7880.3457323548655
6318,31940,25846,9428,-2562,23807,30751,8384,24606,-24785,6,-1,36321,2020-11-02 14:56:19,2020-11-02 14:56:49,3,C7:F7:8F:B2:48:BE,6,6,22360.37638051263,-35116.46539618716,6626.758347804973
6319,10449,17891,17121,-19463,-29960,-31697,18482,29,19221,6,-1,36345,2020-11-02 14:56:19,2020-11-02 14:56:49,3,C7:F7:8F:B2:48:BE,6,6,-7503.957996710022,21401.202635780304,-14424.88347009714
6320,4075,25777,11754,-17672,18938,5189,-22489,7957,-12534,6,-1,36370,2020-11-02 14:56:19,2020-11-02 14:56:49,3,C7:F7:8F:B2:48:BE,6,6,-17263.775875879728,19614.242647202296,-11681.583706161748
6321,4379,27285,26103,11513,8715,19273,-27867,21770,14857,6,-1,36396,2020-11-02 14:56:19,2020-11-02 14:56:49,3,C7:F7:8F:B2:48:BE,6,6,35773.419370270305,12161.100610866746,-4169.361280957299
6322,25658,-1875,2827,17153,-26601,-6612,-30427,4609,-26101,6,-1,36421,2020-11-02 14:56:19,2020-11-02 14:56:49,3,C7:F7:8F:B2:48:BE,6,6,-14317.070121256691,21537.63834929151,-996.070016688844
6323,9523,7352,4098,31510,-9172,25868,18727,10492,-25328,6,-1,36447,2020-11-02 14:56:19,2020-11-02 14:56:49,3,C7:F7:8F:B2:48:BE,6,6,4243.5826737731595,7106.595280990354,-9644.757467300973
6324,-20681,-13897,7929,15137,-6110,-16919,-31190,2043,-30697,6,-1,36473,2020-11-02 14:56:19,2020-11-02 14:56:49,3,C7:F7:8F:B2:48:BE,6,6,5204.712108473399,-23106.496098641543,-11077.013176455715
6325,24348,-27744,-21023,5397,1045,-5699,21806,-14337,18206,6,-1,36498,2020-11-02 14:56:19,2020-11-02 14:56:49,3,C7:F7:8F:B2:48:BE,6,6,20947.20219624804,-33726.70723520362,15107.78303459396
6326,-30755,128,28165,27644,-11006,12953,-32719,-18934,-5850,6,-1,36524,2020-11-02 14:56:19,2020-11-02 14:56:49,3,C7:F7:8F:B2:48:BE,6,6,-6863.8049596859055,-39230.07636092649,-12371.05186276689
6327,128,-11864,-26862,-11520,-25845,8624,-30916,11540,28983,6,-1,36550,2020-11-02 14:56:19,2020-11-02 14:56:49,3,C7:F7:8F:B2:48:BE,6,6,16558.519756184225,22967.069580784453,7788.90636453296
6328,-3951,23782,25368,7957,24329,-26905,28859,-6636,22339,6,-1,36575,2020-11-02 14:56:19,2020-11-02 14:56:49,3,C7:F7:8F:B2:48:BE,6,6,-15274.755308638098,-29208.778451725917,-11758.335792926813
6329,-12071,-27426,-23587,16677,26123,10237,-8255,2067,-4796,6,-1,36601,2020-11-02 14:56:19,2020-11-02 14:56:49,3,C7:F7:8F:B2:48:BE,6,6,-12071.0,-34666.10715940346,10334.072740829555
6330,-29540,21984,-9741,12574,-7415,12042,-2875,25362,-6845,6,-1,36626,2020-11-02 14:56:19,2020-11-02 14:56:49,3,C7:F7:8F:B2:48:BE,6,6,32914.51250600476,-10572.98329260472,-15988.803200563754
6331,13992,24770,18661,-4829,22555,-21210,-24123,3346,12348,6,-1,36652,2020-11-02 14:56:19,2020-11-02 14:56:49,3,C7:F7:8F:B2:48:BE,6,6,21741.2099574565,25337.73336072531,6548.3541998415185
6332,-17988,32683,12743,13604,2582,7732,10179,12562,-21712,6,-1,36677,2020-11-02 14:56:19,2020-11-02 14:56:49,3,C7:F7:8F:B2:48:BE,6,6,-37386.9289727711,-12335.32502840894,2046.4555769615554
6333,24545,-3147,9906,9500,-8679,-9418,17343,3601,-1757,6,-1,36703,2020-11-02 14:56:19,2020-11-02 14:56:49,3,C7:F7:8F:B2:48:BE,6,6,24545.0,1717.5715869605572,-10250.970336688415
6334,9487,-27684,-1098,-23291,-21984,22314,23483,21261,-14055,6,-1,36729,2020-11-02 14:56:19,2020-11-02 14:56:49,3,C7:F7:8F:B2:48:BE,6,6,18334.49287140978,-1424.962580356492,-22790.97369119642
6335,-26093,1246,21697,14824,13582,9241,-27325,778,22292,6,-1,36754,2020-11-02 14:56:19,2020-11-02 14:56:49,3,C7:F7:8F:B2:48:BE,6,6,28264.04702736176,13380.06216559486,-13239.12973272411
6336,4859,21956,-5920,-17199,-9466,26895,10557,-26105,-239,6,-1,36780,2020-11-02 14:56:19,2020-11-02 14:56:49,3,C7:F7:8F:B2:48:BE,6,6,8385.426116773015,16844.385657703624,-13662.85173946821
6337,14570,-10341,29436,10181,-15104,-25062,-27340,-23803,-23281,6,-1,36805,2020-11-02 14:56:19,2020-11-02 14:56:49,3,C7:F7:8F:B2:48:BE,6,6,31358.3802213203,-12566.772733012534,6665.394959934511
6338,18442,-2394,9755,6875,-10474,-3552,2861,-9984,22798,6,-1,36831,2020-11-02 14:56:19,2020-11-02 14:56:49,3,C7:F7:8F:B2:48:BE,6,6,-1400.294138282563,2617.8072348830906,20789.05689557093
6339,17979,-11596,14867,-2836,-25315,-22780,-7896,13564,-1775,6,-1,36857,2020-11-02 14:56:19,2020-11-02 14:56:49,3,C7:F7:8F:B2:48:BE,6,6,8694.835435914305,6244.80359229205,-23751.6654328926
6340,-2013,425,4120,18442,17699,-4646,-13785,11006,16919,6,-1,36882,2020-11-02 14:56:19,2020-11-02 14:56:49,3,C7:F7:8F:B2:48:BE,6,6,-2057.3617242852038,-4081.946855925833,558.7187135253458
6341,-2806,13992,-2032,16400,9752,-21568,-30678,-17660,-12003,6,-1,36908,2020-11-02 14:56:19,2020-11-02 14:56:49,3,C7:F7:8F:B2:48:BE,6,6,4978.87858429587,-3340.777383950483,-13108.344613784187
6342,28614,18844,-27133,29966,-18156,27567,-29392,13838,18470,6,1,36933,2020-11-02 14:56:19,2020-11-02 14:56:49,3,C7:F7:8F:B2:48:BE,6,6,-1975.67965920589,-31399.242665592472,-30335.478748677055
6343,-20340,24011,8437,-26349,16396,-7481,29501,-28909,19764,6,1,36959,2020-11-02 14:56:19,2020-11-02 14:56:49,3,C7:F7:8F:B2:48:BE,6,6,23195.086498856148,-18358.470085954126,13652.15105445689
6344,-15977,-6668,-2567,-9200,-9730,26087,-4422,-16876,-26307,6,1,36985,2020-11-02 14:56:19,2020-11-02 14:56:49,3,C7:F7:8F:B2:48:BE,6,6,-825.285331705421,11156.810478377405,-13459.596058977402
6345,-21607,-15877,11769,-6376,-27633,26623,-1601,-29677,-13249,6,1,37010,2020-11-02 14:56:19,2020-11-02 14:56:49,3,C7:F7:8F:B2:48:BE,6,6,-16582.77264107533,1918.3793741141453,24057.897063363143
6346,6052,228,26862,3611,12039,6424,2497,-8686,-13253,6,1,37036,2020-11-02 14:56:19,2020-11-02 14:56:49,3,C7:F7:8F:B2:48:BE,6,6,8252.97126486308,17485.187668804967,19606.18294028736
6347,-11860,-27454,-14125,10529,19471,-12245,23231,14099,14131,6,1,37061,2020-11-02 14:56:19,2020-11-02 14:56:49,3,C7:F7:8F:B2:48:BE,6,6,-20006.9267579434,26281.46927528963,-1704.2873684609094
6348,-23853,-26699,27317,3101,-20707,-21965,16316,-29168,-16345,6,1,37087,2020-11-02 14:56:19,2020-11-02 14:56:49,3,C7:F7:8F:B2:48:BE,6,6,4556.714638585334,42946.33707553117,12762.021097669407
6349,7681,21987,30635,-22012,23319,29988,15686,-3828,8991,6,1,37113,2020-11-02 14:56:19,2020-11-02 14:56:49,3,C7:F7:8F:B2:48:BE,6,6,35289.661111065194,-13531.168010758123,7244.064185994555
6350,9212,27113,-5433,29414,24073,-1261,13890,1290,2331,6,1,37138,2020-11-02 14:56:19,2020-11-02 14:56:49,3,C7:F7:8F:B2:48:BE,6,6,9212.0,-6342.776259358744,26914.706896485335
6351,-28679,24540,-23326,-21032,17664,24597,-9157,-17656,7704,6,1,37164,2020-11-02 14:56:19,2020-11-02 14:56:49,3,C7:F7:8F:B2:48:BE,6,6,23235.142324435248,24398.49755423127,28872.831438212088
6352,26110,31425,-17681,-26925,-23300,-16104,-23500,-9722,1557,6,1,37189,2020-11-02 14:56:19,2020-11-02 14:56:49,3,C7:F7:8F:B2:48:BE,6,6,-15629.947467121045,-7159.725866099525,41064.870067946664
6353,-27891,1961,-21747,3029,8441,28704,13101,-11261,-21231,6,1,37215,2020-11-02 14:56:19,2020-11-02 14:56:49,3,C7:F7:8F:B2:48:BE,6,6,26618.671018944297,-15355.672066379517,-17616.330479842472
6354,-8394,32696,19999,19955,-22513,-12264,6697,3071,2065,6,1,37241,2020-11-02 14:56:19,2020-11-02 14:56:49,3,C7:F7:8F:B2:48:BE,6,6,-8394.0,837.145967491575,38318.24113433591
6355,22589,-12355,-17652,-22512,28189,-19210,-19671,-17924,-17388,6,1,37266,2020-11-02 14:56:19,2020-11-02 14:56:49,3,C7:F7:8F:B2:48:BE,6,6,26198.722691090945,-6104.2310690761915,-15838.792328035654
6356,13087,16058,-6408,-30194,31248,-31530,-5333,24575,-29159,6,1,37292,2020-11-02 14:56:19,2020-11-02 14:56:49,3,C7:F7:8F:B2:48:BE,6,6,-16449.273324124977,1002.5746239786076,14092.822578588883
6357,-19720,-22859,32764,-3069,-7162,31940,-979,1286,-30946,6,1,37318,2020-11-02 14:56:19,2020-11-02 14:56:49,3,C7:F7:8F:B2:48:BE,6,6,16326.23169718986,-25394.220593860977,32764.0
6358,-31783,-17480,27410,28671,29699,-9794,-4048,22030,-17884,6,1,37345,2020-11-02 14:56:19,2020-11-02 14:56:49,3,C7:F7:8F:B2:48:BE,6,6,-37446.213254007045,12318.871229490822,-22650.47711565145
6359,-5721,-31027,22800,-23793,17,11976,28986,15380,5168,6,1,37369,2020-11-02 14:56:19,2020-11-02 14:56:49,3,C7:F7:8F:B2:48:BE,6,6,35315.56640416378,13062.286833952037,-9870.765027122365
6360,-9327,-3857,-15895,17943,16904,1763,8890,19988,2875,6,1,37394,2020-11-02 14:56:19,2020-11-02 14:56:49,3,C7:F7:8F:B2:48:BE,6,6,7563.693999000698,11291.235309788099,13031.45967528102
6361,-7034,13559,-25095,23321,-25844,7936,-20545,13843,-21187,6,1,37420,2020-11-02 14:56:19,2020-11-02 14:56:49,3,C7:F7:8F:B2:48:BE,6,6,-25933.84950787368,13439.424902493049,-3146.4217761148557
6362,-8284,-10284,-26398,-31711,-235,-1254,-8000,-28143,-20424,6,1,37446,2020-11-02 14:56:19,2020-11-02 14:56:49,3,C7:F7:8F:B2:48:BE,6,6,-5076.860656552626,27326.64484491922,9935.77794606934
6363,-2890,30406,2756,-30432,538,-989,-11840,10768,-7888,6,1,37471,2020-11-02 14:56:19,2020-11-02 14:56:49,3,C7:F7:8F:B2:48:BE,6,6,-22473.966386149867,16220.278034332632,-13126.15280130291
6364,10454,-31275,-31315,-492,23573,-14297,-14657,17422,20520,6,-1,37497,2020-11-02 14:56:19,2020-11-02 14:56:49,3,C7:F7:8F:B2:48:BE,6,6,6633.808444052926,14670.30665062057,-42530.17345725702
6365,18423,-8220,31930,-10756,-8951,19235,-23620,-23284,-13280,6,-1,37522,2020-11-02 14:56:19,2020-11-02 14:56:49,3,C7:F7:8F:B2:48:BE,6,6,-3543.7165623007695,37413.382471837824,3765.7819828096253
6366,6658,20196,17093,-28185,27394,-6627,-3261,-6901,11803,6,-1,37548,2020-11-02 14:56:19,2020-11-02 14:56:49,3,C7:F7:8F:B2:48:BE,6,6,-13875.639854342284,-18212.120624947063,14837.901131055089
6367,17927,14798,-10016,1240,-15873,-14054,-7620,20234,-14570,6,-1,37599,2020-11-02 14:56:19,2020-11-02 14:56:49,3,C7:F7:8F:B2:48:BE,6,6,8041.158531526073,18610.221063487203,15155.125550090397
6368,-15875,15545,8951,-11310,-30210,-23524,-204,11528,1299,6,-1,37601,2020-11-02 14:56:19,2020-11-02 14:56:49,3,C7:F7:8F:B2:48:BE,6,6,14745.452297702563,15545.0,10710.166316924226
6369,-13818,-30797,8460,-22817,18944,30753,20270,-18940,-13809,6,-1,37625,2020-11-02 14:56:19,2020-11-02 14:56:49,3,C7:F7:8F:B2:48:BE,6,6,20197.942329675316,-26262.33267264569,10644.103590175962
6370,25387,-12351,23815,-27400,-27104,6675,-16341,-26113,-6896,6,-1,37650,2020-11-02 14:56:19,2020-11-02 14:56:49,3,C7:F7:8F:B2:48:BE,6,6,14121.029812695353,27599.939465548523,-20075.882384767705
6371,-3016,-10563,30219,28670,23319,1777,-726,-20483,6421,6,-1,37676,2020-11-02 14:56:19,2020-11-02 14:56:49,3,C7:F7:8F:B2:48:BE,6,6,8197.579854533731,-6783.192236937373,-30342.20119907742
6372,9240,4795,30223,-29952,-17136,29656,-10710,-6656,-27623,6,-1,37702,2020-11-02 14:56:19,2020-11-02 14:56:49,3,C7:F7:8F:B2:48:BE,6,6,-17708.40550321754,-22368.093546770564,14418.04839832825
6373,-3842,17597,5651,13052,-1533,15562,20011,19207,31261,6,-1,37727,2020-11-02 14:56:19,2020-11-02 14:56:49,3,C7:F7:8F:B2:48:BE,6,6,-16515.65180870919,-8394.166790615878,3622.206954993369
6374,-12328,-17727,2344,-8192,-5884,-25149,16429,-24049,13602,6,-1,37753,2020-11-02 14:56:19,2020-11-02 14:56:49,3,C7:F7:8F:B2:48:BE,6,6,-2739.430773135027,-6619.501118569646,20503.613656632726
6375,26539,6861,19734,14102,6161,25545,3895,19990,24364,6,1,37778,2020-11-02 14:56:19,2020-11-02 14:56:49,3,C7:F7:8F:B2:48:BE,6,6,20545.561894492235,13291.54333025766,-23281.695821814006
6376,128,-3356,-6942,-18912,-19188,-20510,-26438,28694,-23751,6,1,37830,2020-11-02 14:56:19,2020-11-02 14:56:49,3,C7:F7:8F:B2:48:BE,6,6,-4407.718259722261,-6290.245334363492,689.4326482182998
6377,29081,7393,-2336,13082,-4609,-22781,-23104,-6379,-23749,6,1,37832,2020-11-02 14:56:19,2020-11-02 14:56:49,3,C7:F7:8F:B2:48:BE,6,6,-4033.9456898324643,9358.91765596176,28318.824984105704
6378,12454,27864,-284,4130,-20969,-3566,-8255,-12268,20791,6,1,37855,2020-11-02 14:56:19,2020-11-02 14:56:49,3,C7:F7:8F:B2:48:BE,6,6,-18204.84609298536,-12370.737864891567,21145.535968824574
6379,22186,-24867,-28464,11045,-31711,5150,-30015,-19951,22319,6,1,37881,2020-11-02 14:56:19,2020-11-02 14:56:49,3,C7:F7:8F:B2:48:BE,6,6,14428.326212232112,-22502.310447761924,34731.18207354826
6380,-9257,21745,15800,30221,27674,16167,25791,-13810,11814,6,1,37906,2020-11-02 14:56:19,2020-11-02 14:56:49,3,C7:F7:8F:B2:48:BE,6,6,-9686.924129717478,26587.481444348996,2728.810244684534
6381,13292,23782,-19520,-13331,-14335,24616,-15687,7438,28702,6,1,37932,2020-11-02 14:56:19,2020-11-02 14:56:49,3,C7:F7:8F:B2:48:BE,6,6,-27696.29622345337,-3834.275864775076,-18479.845564709834
6382,3831,-27187,28374,-10270,19203,13868,21822,-23284,-5866,6,1,37958,2020-11-02 14:56:19,2020-11-02 14:56:49,3,C7:F7:8F:B2:48:BE,6,6,4870.900466001303,34817.66648049312,17969.35823849737
6383,773,4274,31966,28893,-3323,-6103,8503,-23544,7953,6,1,37983,2020-11-02 14:56:19,2020-11-02 14:56:49,3,C7:F7:8F:B2:48:BE,6,6,28950.977318174395,-421.619614684937,-14225.080323958267
6384,12561,-6747,-17150,21980,17936,-6116,19249,-17661,-15346,6,1,38009,2020-11-02 14:56:19,2020-11-02 14:56:49,3,C7:F7:8F:B2:48:BE,6,6,14390.398418295912,9577.063646647277,-14093.24360361282
6385,-14553,23476,-7397,23791,-31724,12302,-25811,32511,-25841,6,1,38034,2020-11-02 14:56:19,2020-11-02 14:56:49,3,C7:F7:8F:B2:48:BE,6,6,24241.409680552308,-13155.62406783836,-7543.978133938141
6386,32535,17598,8708,-18945,-10217,-20234,-27604,-29699,-2798,6,-1,38060,2020-11-02 14:56:19,2020-11-02 14:56:49,3,C7:F7:8F:B2:48:BE,6,6,16541.975815106907,-18093.05656909928,-29035.313552978747
6387,-11998,-29495,-26852,31479,-8184,17125,28203,6655,19990,6,-1,38086,2020-11-02 14:56:19,2020-11-02 14:56:49,3,C7:F7:8F:B2:48:BE,6,6,-26651.85865836127,4852.110022863457,31639.72805478519
6388,2845,29631,22042,-29689,-25843,-20274,-19925,3076,6682,6,-1,38111,2020-11-02 14:56:19,2020-11-02 14:56:49,3,C7:F7:8F:B2:48:BE,6,6,23603.811396613546,-11774.848929733405,-26002.941568888942
6389,-21779,-27971,19967,9745,24340,-836,31024,8459,21793,6,-1,38137,2020-11-02 14:56:19,2020-11-02 14:56:49,3,C7:F7:8F:B2:48:BE,6,6,-16995.25107533133,-8903.25539248415,35878.63229420335
6390,-32080,-26944,10472,-32487,25877,26301,-14277,-7921,13614,6,-1,38163,2020-11-02 14:56:19,2020-11-02 14:56:49,3,C7:F7:8F:B2:48:BE,6,6,-4587.778762188523,-39801.25796886813,-16111.50117539716
6391,-115,29659,-5424,16144,-32762,-24622,30650,-8177,2106,6,-1,38188,2020-11-02 14:56:19,2020-11-02 14:56:49,3,C7:F7:8F:B2:48:BE,6,6,25164.592112463313,3211.9314928809645,-16294.66421557648
6392,-7030,-28700,24791,-29939,-19969,23273,-17216,-29937,-32192,6,-1,38214,2020-11-02 14:56:19,2020-11-02 14:56:49,3,C7:F7:8F:B2:48:BE,6,6,-36740.4218953455,-11704.03322933338,928.2166334840877
6393,-7516,5076,-9003,-20462,-30960,525,19907,19982,10560,6,-1,38239,2020-11-02 14:56:19,2020-11-02 14:56:49,3,C7:F7:8F:B2:48:BE,6,6,7913.946569034725,5375.986556849391,-8472.205099207533
6394,-9785,11723,13782,23828,17174,-996,14787,22285,-30406,6,-1,38265,2020-11-02 14:56:19,2020-11-02 14:56:49,3,C7:F7:8F:B2:48:BE,6,6,19640.261988167098,5016.874129766369,-3494.218224759228
6395,-26925,-5404,29115,16646,-12269,-27624,16834,-11765,-29132,6,-1,38290,2020-11-02 14:56:19,2020-11-02 14:56:49,3,C7:F7:8F:B2:48:BE,6,6,30801.221971651492,18721.925701526896,-17395.869885681488
6396,21468,3568,2263,7155,-32757,23835,-9538,-16118,-30673,6,-1,38316,2020-11-02 14:56:19,2020-11-02 14:56:49,3,C7:F7:8F:B2:48:BE,6,6,-5749.801305332292,-5928.09569407037,20261.398850798614
6397,-28177,-3104,29913,7660,-2057,22059,-699,-31221,21801,6,-1,38342,2020-11-02 14:56:19,2020-11-02 14:56:49,3,C7:F7:8F:B2:48:BE,6,6,-20046.445141916025,5992.928754886691,35504.796240944735
6398,-14073,-22088,-2087,-4125,-6413,18488,-5059,-22773,9760,6,-1,38369,2020-11-02 14:56:19,2020-11-02 14:56:49,3,C7:F7:8F:B2:48:BE,6,6,26273.120127046368,37.14266451191128,80.13246697861814
6399,-20208,3751,16372,-16163,23296,-22730,-11723,-17657,-745,6,-1,38393,2020-11-02 14:56:19,2020-11-02 14:56:49,3,C7:F7:8F:B2:48:BE,6,6,21448.569547876228,13326.05068810173,7269.861512302691
6400,-13794,23990,-16614,-30745,28182,-14807,-7888,-15872,-7660,6,-1,38418,2020-11-02 14:56:19,2020-11-02 14:56:49,3,C7:F7:8F:B2:48:BE,6,6,16572.48628556663,-27694.890095295435,-406.56232512757924
6401,32319,23486,-25573,15867,-10989,-14065,-2770,-5382,-29419,6,-1,38444,2020-11-02 14:56:19,2020-11-02 14:56:49,3,C7:F7:8F:B2:48:BE,6,6,-13353.617342752463,37653.5637206273,-25573.0
6402,-17866,9928,14871,-17405,12821,13299,-26578,-27399,26904,6,-1,38470,2020-11-02 14:56:19,2020-11-02 14:56:49,3,C7:F7:8F:B2:48:BE,6,6,-19970.13058534043,4024.1180868131887,14963.493543549033
6403,4640,7863,1303,16394,22541,5839,-18386,-24580,15133,6,-1,38495,2020-11-02 14:56:19,2020-11-02 14:56:49,3,C7:F7:8F:B2:48:BE,6,6,8928.915523779175,-1246.2146394094761,-1943.088943341705
6404,-11777,-24930,-12525,4879,22789,17333,3121,9476,-25565,6,-1,38521,2020-11-02 14:56:19,2020-11-02 14:56:49,3,C7:F7:8F:B2:48:BE,6,6,29915.339565710987,3503.43259781274,3142.7174070841465
6405,-24389,22421,5640,-8167,-10733,-26456,-9928,-32244,-8402,6,-1,38546,2020-11-02 14:56:19,2020-11-02 14:56:49,3,C7:F7:8F:B2:48:BE,6,6,2253.1435428203636,27695.7164087089,18899.862401187456
6406,128,8146,-9771,27424,13580,4822,-26043,15373,-13765,6,-1,38572,2020-11-02 14:56:19,2020-11-02 14:56:49,3,C7:F7:8F:B2:48:BE,6,6,-2845.029305769578,-11191.035625116772,-5339.725731409763
6407,14491,-19736,-5946,-13032,15874,-31744,30398,-17907,16190,6,-1,38598,2020-11-02 14:56:19,2020-11-02 14:56:49,3,C7:F7:8F:B2:48:BE,6,6,17257.57482777415,-10554.322102121483,-15021.188003232157
6408,-30542,-3616,-22342,-29160,12307,-13296,-1344,12812,-18373,6,-1,38623,2020-11-02 14:56:19,2020-11-02 14:56:49,3,C7:F7:8F:B2:48:BE,6,6,7019.16374728516,4653.110463371098,37069.31463224623
6409,-22593,-17457,-8247,-32491,-28897,9252,29633,27914,-20939,6,1,38649,2020-11-02 14:56:19,2020-11-02 14:56:49,3,C7:F7:8F:B2:48:BE,6,6,-5645.476351818044,12185.394978177112,-26511.28538918623
6410,-32286,-24887,-1614,-4844,-12764,9776,32449,2312,-7124,6,1,38674,2020-11-02 14:56:19,2020-11-02 14:56:49,3,C7:F7:8F:B2:48:BE,6,6,-24686.91316914841,22517.239729030236,23406.917656203877
6411,-29425,20955,27793,-4874,16147,-2017,1216,18182,26149,6,1,38700,2020-11-02 14:56:19,2020-11-02 14:56:49,3,C7:F7:8F:B2:48:BE,6,6,-5745.875574220521,-38711.45095681848,-23362.405220854587
6412,-3842,28886,-22849,-27943,-9972,-12528,-6726,14596,-13791,6,1,38726,2020-11-02 14:56:19,2020-11-02 14:56:49,3,C7:F7:8F:B2:48:BE,6,6,9912.5578432931,30357.220950073417,18746.175455057284
6413,11260,-11580,-26907,-12339,30733,-5615,26688,-4863,26911,6,1,38751,2020-11-02 14:56:19,2020-11-02 14:56:49,3,C7:F7:8F:B2:48:BE,6,6,-17042.62762781907,-158.81973046773237,26351.361802243016
6414,-2310,-18019,22537,29635,27916,-12525,19512,-4098,-26851,6,1,38777,2020-11-02 14:56:19,2020-11-02 14:56:49,3,C7:F7:8F:B2:48:BE,6,6,-9583.48581519633,-11329.487444741213,-24854.30232111499
6415,19489,-25182,-22720,-26163,-5637,7697,-6865,29180,-20197,6,1,38802,2020-11-02 14:56:19,2020-11-02 14:56:49,3,C7:F7:8F:B2:48:BE,6,6,-1628.445662287355,32822.78127137599,21217.111946171826
6416,-25034,-26191,24122,-16390,-23277,29686,-9685,-2822,-9444,6,1,38828,2020-11-02 14:56:19,2020-11-02 14:56:49,3,C7:F7:8F:B2:48:BE,6,6,-8353.485382503644,24386.57179662853,35072.13878525489
6417,22047,-22867,-1510,22036,-31719,13269,-20180,22781,13602,6,1,38854,2020-11-02 14:56:19,2020-11-02 14:56:49,3,C7:F7:8F:B2:48:BE,6,6,-11585.383502000948,-28572.866008286543,-7785.898482774338
6418,12287,-24918,24583,-7909,-18671,-25150,-9424,-11006,21033,6,1,38879,2020-11-02 14:56:19,2020-11-02 14:56:49,3,C7:F7:8F:B2:48:BE,6,6,20940.467432038644,-10280.63074179497,28844.521789736595
6419,30170,-28756,21757,3098,32265,-19014,-18121,20489,3890,6,1,38905,2020-11-02 14:56:19,2020-11-02 14:56:49,3,C7:F7:8F:B2:48:BE,6,6,-32335.023501051415,31538.57224760094,13048.685787055656
6420,13221,22472,-2584,17692,28683,16586,-30911,7948,-1732,6,1,38930,2020-11-02 14:56:19,2020-11-02 14:56:49,3,C7:F7:8F:B2:48:BE,6,6,24659.3658504449,8852.31695745917,121.82503270132872
6421,-15452,-20255,7387,-3817,9721,25835,26044,-13556,9539,6,-1,38956,2020-11-02 14:56:19,2020-11-02 14:56:49,3,C7:F7:8F:B2:48:BE,6,6,-17529.51794414388,7550.3487611642195,-18420.242458521647
6422,-32599,21497,-7485,-12277,-1531,-12039,17856,-1012,15685,6,-1,38982,2020-11-02 14:56:19,2020-11-02 14:56:49,3,C7:F7:8F:B2:48:BE,6,6,31957.043520409326,-21225.373419298456,10443.750650317299
6423,12699,-6413,17379,8199,22802,-23789,14016,-29685,8259,6,-1,39007,2020-11-02 14:56:19,2020-11-02 14:56:49,3,C7:F7:8F:B2:48:BE,6,6,6229.774599879964,-14606.185582817892,-15883.011746988454
6424,2492,31943,27350,14350,-22003,-26577,-20290,-7670,11836,6,-1,39033,2020-11-02 14:56:19,2020-11-02 14:56:49,3,C7:F7:8F:B2:48:BE,6,6,13625.17070182518,36944.568813269594,-14968.011609686588
6425,5353,-31053,30656,-9198,18713,25913,21181,-27639,-31950,6,-1,39058,2020-11-02 14:56:19,2020-11-02 14:56:49,3,C7:F7:8F:B2:48:BE,6,6,-33779.53290532545,-21067.143828457905,18650.8005621502
6426,24597,22482,-20829,-8956,26390,-25815,-26180,30726,-4567,6,-1,39084,2020-11-02 14:56:19,2020-11-02 14:56:49,3,C7:F7:8F:B2:48:BE,6,6,-22393.822254102546,1068.2232905131132,32274.999579446423
6427,-19697,7906,-11585,-30491,-32757,-11506,20294,-5373,-6875,6,-1,39110,2020-11-02 14:56:19,2020-11-02 14:56:49,3,C7:F7:8F:B2:48:BE,6,6,-15852.727387725758,13228.899200433012,12584.75785683747
6428,-7936,-21031,13537,2771,-18178,29702,29504,13315,-17628,6,-1,39135,2020-11-02 14:56:19,2020-11-02 14:56:49,3,C7:F7:8F:B2:48:BE,6,6,-23890.60656157667,-10491.696765207518,-2774.2824490098074
6429,-28418,-23102,29174,-2616,19447,11022,-18888,14339,-2270,6,-1,39161,2020-11-02 14:56:19,2020-11-02 14:56:49,3,C7:F7:8F:B2:48:BE,6,6,-11471.854818110138,26987.841771602056,36502.88135946496
6430,30470,-10582,19230,17609,15096,24091,-4817,-1023,-28641,6,-1,39187,2020-11-02 14:56:19,2020-11-02 14:56:49,3,C7:F7:8F:B2:48:BE,6,6,-11908.03712236576,29976.628828011315,19230.0
6431,-17105,26818,9535,9195,14082,13337,13098,-1027,-16611,6,-1,39212,2020-11-02 14:56:19,2020-11-02 14:56:49,3,C7:F7:8F:B2:48:BE,6,6,-10913.51898291241,23805.88107007366,20417.578306134128
6432,13104,24525,-20461,-6384,-18156,-9216,17962,21755,29727,6,-1,39238,2020-11-02 14:56:19,2020-11-02 14:56:49,3,C7:F7:8F:B2:48:BE,6,6,-23243.913950204093,3162.366634643233,-25329.091249857396
6433,-14556,-22595,6153,-25830,-22001,-14882,9773,-23812,14115,6,-1,39263,2020-11-02 14:56:19,2020-11-02 14:56:49,3,C7:F7:8F:B2:48:BE,6,6,16790.340243467537,5090.242687597403,21270.742203551705
6434,29191,10425,-10754,8732,-32757,16333,18993,16385,-31960,6,1,39289,2020-11-02 14:56:19,2020-11-02 14:56:49,3,C7:F7:8F:B2:48:BE,6,6,8121.140702379931,-3579.9916413198316,-31585.983529727677
6435,32497,5552,-11533,16666,10247,-29504,7223,-4090,-19921,6,1,39315,2020-11-02 14:56:19,2020-11-02 14:56:49,3,C7:F7:8F:B2:48:BE,6,6,-30378.93502537047,-17163.28041267722,-1559.4595859238152
6436,-11070,-18250,-1825,6687,17930,29373,13120,-15350,22074,6,1,39340,2020-11-02 14:56:19,2020-11-02 14:56:49,3,C7:F7:8F:B2:48:BE,6,6,-20121.40740427741,-6479.4575897312225,-3476.149941237405
6437,13207,-21278,30130,-26604,-5126,-28202,-8772,30987,68,6,1,39366,2020-11-02 14:56:19,2020-11-02 14:56:49,3,C7:F7:8F:B2:48:BE,6,6,-29033.663750809137,13856.968307999645,22361.257377796195
6438,-6240,-1289,-5168,-14073,-7161,19954,31936,16907,31675,6,1,39393,2020-11-02 14:56:19,2020-11-02 14:56:49,3,C7:F7:8F:B2:48:BE,6,6,-4425.483043386692,-3799.089714223834,5769.693421315862
6439,-5978,481,10973,18444,-745,26386,20929,-4344,-18759,6,1,39417,2020-11-02 14:56:19,2020-11-02 14:56:49,3,C7:F7:8F:B2:48:BE,6,6,5632.449995067854,2848.049492989706,-10795.30894131989
6440,-18219,23741,-9772,-10224,-25310,-19667,22977,-12794,9279,6,1,39442,2020-11-02 14:56:19,2020-11-02 14:56:49,3,C7:F7:8F:B2:48:BE,6,6,29066.729735100118,2859.848072987268,-11747.574962777539
6441,-6403,7633,-22078,27153,6944,14628,30914,7172,567,6,1,39468,2020-11-02 14:56:19,2020-11-02 14:56:49,3,C7:F7:8F:B2:48:BE,6,6,-14888.551503587074,-19005.936674371962,-1950.535120113927
6442,4084,28906,4796,25593,28180,-9198,31426,-1279,-3791,6,1,39494,2020-11-02 14:56:19,2020-11-02 14:56:49,3,C7:F7:8F:B2:48:BE,6,6,4084.0,12798.539954284432,-26358.22124193105
6443,18665,-10263,209,21984,-11521,13589,-13634,-13055,-12242,6,1,39519,2020-11-02 14:56:19,2020-11-02 14:56:49,3,C7:F7:8F:B2:48:BE,6,6,10787.082999416483,12850.53303061399,13124.69870864847
6444,-24334,18136,-19489,-23850,24053,-2525,8773,31235,25642,6,1,39545,2020-11-02 14:56:19,2020-11-02 14:56:49,3,C7:F7:8F:B2:48:BE,6,6,27304.185548798778,-8467.113744874903,-21992.4671046274
6445,15615,-26176,-14618,25301,-22282,-978,-8899,-26365,-26589,6,1,39570,2020-11-02 14:56:19,2020-11-02 14:56:49,3,C7:F7:8F:B2:48:BE,6,6,19695.144541684145,17652.190140683593,-21052.282292410062
6446,10759,-2886,-25611,-18728,-31233,15661,23095,-27648,6685,6,1,39596,2020-11-02 14:56:19,2020-11-02 14:56:49,3,C7:F7:8F:B2:48:BE,6,6,18661.02603357159,-3319.144197695409,-20512.38131395934
6447,-6142,-8777,25092,26590,-16892,30242,31282,-517,18713,6,1,39622,2020-11-02 14:56:19,2020-11-02 14:56:49,3,C7:F7:8F:B2:48:BE,6,6,3036.34603464456,-22222.50587803942,15534.129916361639
6448,-32496,-7492,-2548,-13586,-7677,6171,-29649,-8201,-12778,6,-1,39647,2020-11-02 14:56:19,2020-11-02 14:56:49,3,C7:F7:8F:B2:48:BE,6,6,4827.003120920806,9782.699761843458,-31616.62869820641
6449,17456,-7482,-14320,17664,2067,-29176,-32722,16372,6679,6,-1,39673,2020-11-02 14:56:19,2020-11-02 14:56:49,3,C7:F7:8F:B2:48:BE,6,6,-19214.44574938018,-8437.8012016872,-11196.57293214902
6450,-29400,18128,-5366,16130,-1265,-18713,-2260,-1037,-2790,6,-1,39699,2020-11-02 14:56:19,2020-11-02 14:56:49,3,C7:F7:8F:B2:48:BE,6,6,-29400.0,18128.0,-5366.0
6451,18719,-2353,11274,-19970,16647,27855,15403,-28936,7199,6,-1,39724,2020-11-02 14:56:19,2020-11-02 14:56:49,3,C7:F7:8F:B2:48:BE,6,6,7131.930592079329,-6053.857237353742,-19887.86123693301
6452,4083,17095,32021,28157,-17402,-5189,18986,-1536,1059,6,-1,39750,2020-11-02 14:56:19,2020-11-02 14:56:49,3,C7:F7:8F:B2:48:BE,6,6,4083.0,-21442.725507469622,-29288.103195859432
6453,-9295,-24641,18193,20245,26396,29110,-23763,-22006,-7639,6,-1,39775,2020-11-02 14:56:19,2020-11-02 14:56:49,3,C7:F7:8F:B2:48:BE,6,6,9267.7528116594,-10106.6021031432,28922.767964887462
6454,128,-7728,22211,11052,-13542,-19752,6714,-20722,13621,6,-1,39801,2020-11-02 14:56:19,2020-11-02 14:56:49,3,C7:F7:8F:B2:48:BE,6,6,21167.019648232075,8694.65161295589,-5424.684464619202
6455,-23382,26578,-24905,8481,7421,21246,13378,-4594,-31176,6,-1,39826,2020-11-02 14:56:19,2020-11-02 14:56:49,3,C7:F7:8F:B2:48:BE,6,6,-17742.39990914664,-19135.141899348426,34531.44397437955
6456,-17219,232,-827,9758,29202,6142,-19270,-4339,-8904,6,-1,39852,2020-11-02 14:56:19,2020-11-02 14:56:49,3,C7:F7:8F:B2:48:BE,6,6,-9594.937916025856,14302.136540164931,785.9839528186791
6457,-13171,-13045,31683,-10211,-26584,271,-21058,2825,14135,6,-1,39878,2020-11-02 14:56:19,2020-11-02 14:56:49,3,C7:F7:8F:B2:48:BE,6,6,-10327.572563131847,-19211.301094671704,-29525.021764650945
6458,16860,-20982,-24372,-16384,-19949,7975,-24386,30725,-21712,6,-1,39903,2020-11-02 14:56:19,2020-11-02 14:56:49,3,C7:F7:8F:B2:48:BE,6,6,-147.5592285609382,-32505.6649809304,16182.035669889665
6459,-27415,-10778,17863,-22803,6386,24626,-6982,17927,-16087,6,-1,39929,2020-11-02 14:56:19,2020-11-02 14:56:49,3,C7:F7:8F:B2:48:BE,6,6,-4021.257540617493,-30912.975789991833,-14664.640929780917
6460,28684,30916,-19761,746,17655,26938,9793,24840,27936,6,-1,39955,2020-11-02 14:56:19,2020-11-02 14:56:49,3,C7:F7:8F:B2:48:BE,6,6,45068.59188129032,1186.7760229067753,11682.534892271684
6461,-12269,-9793,-9257,1772,28171,1070,9020,6405,2329,6,-1,39980,2020-11-02 14:56:19,2020-11-02 14:56:49,3,C7:F7:8F:B2:48:BE,6,6,-17771.81511591196,2498.3164250000045,3169.26829511458
6462,-30454,-25941,-18717,-24347,-30188,31775,-19656,-9985,-27115,6,-1,40006,2020-11-02 14:56:19,2020-11-02 14:56:49,3,C7:F7:8F:B2:48:BE,6,6,5523.780034253012,-41644.19541178415,-13636.587866410115
6463,-28391,-15714,-18182,9694,27150,14357,-29388,7419,12308,6,-1,40031,2020-11-02 14:56:19,2020-11-02 14:56:49,3,C7:F7:8F:B2:48:BE,6,6,1665.6718345968384,-34824.93057723685,12962.004036030254
6464,-27096,-19546,-12276,-1055,26643,20468,-29649,-12552,-11499,6,-1,40057,2020-11-02 14:56:19,2020-11-02 14:56:49,3,C7:F7:8F:B2:48:BE,6,6,-7440.082497249314,-31221.049994328685,-15389.305302246532
6465,16390,31160,21023,1260,-24562,-16166,-11990,-25349,3354,6,-1,40083,2020-11-02 14:56:19,2020-11-02 14:56:49,3,C7:F7:8F:B2:48:BE,6,6,-38777.24361813192,6149.02437734735,11834.65696954648
6466,7428,3021,30771,-13066,-30960,-17453,20776,5377,6430,6,1,40108,2020-11-02 14:56:19,2020-11-02 14:56:49,3,C7:F7:8F:B2:48:BE,6,6,10184.016235472402,2288.3172203677145,-30036.735568543445
6467,31978,-16687,13871,31499,3091,8135,16937,13064,17186,6,1,40134,2020-11-02 14:56:19,2020-11-02 14:56:49,3,C7:F7:8F:B2:48:BE,6,6,18618.279875604232,-27059.99577025443,-20360.976827929528
6468,-20820,11194,11742,13093,-215,-13891,-6606,-7410,-29140,6,1,40159,2020-11-02 14:56:19,2020-11-02 14:56:49,3,C7:F7:8F:B2:48:BE,6,6,-17731.326733397516,-3787.2630410066613,-19180.96167901202
6469,128,-21045,14525,27438,15395,-10282,-7614,-28914,24378,6,1,40185,2020-11-02 14:56:19,2020-11-02 14:56:49,3,C7:F7:8F:B2:48:BE,6,6,-15397.933584587023,-19131.064983421835,7126.712280198897
6470,2980,29137,-15213,32036,-18919,30209,31934,19979,-28100,6,1,40211,2020-11-02 14:56:19,2020-11-02 14:56:49,3,C7:F7:8F:B2:48:BE,6,6,9688.985502755751,-1544.570283644296,31512.19447398533
6471,-11078,12001,-19759,18711,23810,7687,-11839,26889,-14278,6,1,40236,2020-11-02 14:56:19,2020-11-02 14:56:49,3,C7:F7:8F:B2:48:BE,6,6,-24738.850038336503,1119.8291531703471,-6625.665811705869
6472,28387,1015,-31561,18701,13352,28436,17347,23047,-970,6,1,40262,2020-11-02 14:56:19,2020-11-02 14:56:49,3,C7:F7:8F:B2:48:BE,6,6,-42309.793336149356,3449.046190328017,966.5315459492413
6473,-518,-7166,20942,-4617,-25580,-17645,-5439,15364,2866,6,1,40287,2020-11-02 14:56:19,2020-11-02 14:56:49,3,C7:F7:8F:B2:48:BE,6,6,19258.070773914846,-7166.0,-8243.930983874554
6474,20996,8183,32478,14567,-27398,24602,20158,-24316,22318,6,1,40313,2020-11-02 14:56:19,2020-11-02 14:56:49,3,C7:F7:8F:B2:48:BE,6,6,38601.32009760632,7310.141887948969,4371.944796104799
6475,25360,13289,-2587,11742,-19474,-30175,4421,3591,-24279,6,1,40339,2020-11-02 14:56:19,2020-11-02 14:56:49,3,C7:F7:8F:B2:48:BE,6,6,-26633.550585248257,10506.241203352518,-2587.0
6476,2583,-10028,-7955,18654,2296,13093,3902,-25337,-23261,6,1,40364,2020-11-02 14:56:19,2020-11-02 14:56:49,3,C7:F7:8F:B2:48:BE,6,6,12627.974555228579,720.755670032443,3244.9141585896546
6477,31519,-13366,17145,-14880,26888,-27365,13368,-12028,23071,6,1,40390,2020-11-02 14:56:19,2020-11-02 14:56:49,3,C7:F7:8F:B2:48:BE,6,6,-10479.688787545785,3207.605909779879,36686.99673240824
6478,24,-16449,-27380,12517,-27127,-23539,-7373,-29951,23582,6,1,40417,2020-11-02 14:56:19,2020-11-02 14:56:49,3,C7:F7:8F:B2:48:BE,6,6,-23570.02935288752,21554.637289818584,-293.09487948958986
6479,-30942,21957,-22511,23536,-5628,-3077,-6096,25088,-21986,6,1,40441,2020-11-02 14:56:19,2020-11-02 14:56:49,3,C7:F7:8F:B2:48:BE,6,6,-43977.18192659743,881.6989463349637,-3390.0458349384216
6480,-12520,4039,13840,18429,-16374,-8474,-4817,-23295,9505,6,1,40467,2020-11-02 14:56:19,2020-11-02 14:56:49,3,C7:F7:8F:B2:48:BE,6,6,6682.1319649745365,17882.24862312804,428.7395285028724
6481,25613,25286,-19179,16392,-25335,10453,14129,18949,29989,6,1,40492,2020-11-02 14:56:19,2020-11-02 14:56:49,3,C7:F7:8F:B2:48:BE,6,6,679.7791453377304,22085.67104583903,-34278.311521551805
6482,15850,-4157,32017,-24559,8976,-17723,-1995,7946,-25812,6,1,40518,2020-11-02 14:56:19,2020-11-02 14:56:49,3,C7:F7:8F:B2:48:BE,6,6,-20061.698642738644,29587.59632257725,3961.543817775073
6483,128,5838,-15665,3370,-219,4038,-30656,17419,16184,6,1,40543,2020-11-02 14:56:19,2020-11-02 14:56:49,3,C7:F7:8F:B2:48:BE,6,6,-15179.944138033175,-6907.38029180138,-1161.1401597680206
6484,-19295,14788,-7015,21539,-23539,16351,17341,-29177,25663,6,1,40569,2020-11-02 14:56:19,2020-11-02 14:56:49,3,C7:F7:8F:B2:48:BE,6,6,-12413.840346931942,6510.010495708599,21064.389978982268
6485,1206,20677,-6702,-13290,19729,6642,4546,-24571,8770,6,1,40595,2020-11-02 14:56:19,2020-11-02 14:56:49,3,C7:F7:8F:B2:48:BE,6,6,-20565.47482787618,6240.48723635819,3468.0157376865664
6486,31911,-15902,-3685,13339,-16342,-227,-17210,6402,7486,6,1,40620,2020-11-02 14:56:19,2020-11-02 14:56:49,3,C7:F7:8F:B2:48:BE,6,6,-815.0165748517388,26905.346309797475,-23668.604477927813
6487,-31257,-15895,-26686,19968,-26591,-9441,21959,-768,28470,6,1,40646,2020-11-02 14:56:19,2020-11-02 14:56:49,3,C7:F7:8F:B2:48:BE,6,6,35189.99441491637,10908.1096899725,24175.837236167896
6488,27862,13796,24783,23795,30767,-1763,22470,10238,11311,6,-1,40671,2020-11-02 14:56:19,2020-11-02 14:56:49,3,C7:F7:8F:B2:48:BE,6,6,12299.709932205815,-12595.660872496092,-35649.462994113506
6489,25581,13773,16095,-12581,7441,-14293,20163,10493,-22233,6,-1,40697,2020-11-02 14:56:19,2020-11-02 14:56:49,3,C7:F7:8F:B2:48:BE,6,6,-4273.274282199587,15458.146134244733,-29084.65162248684
6490,-23799,26278,-17947,458,-14074,-11211,9149,16638,-13793,6,-1,40723,2020-11-02 14:56:19,2020-11-02 14:56:49,3,C7:F7:8F:B2:48:BE,6,6,17822.904591072886,-31463.948118333967,16473.752904068388
6491,31269,17309,-32261,-8765,-31222,-22745,8770,-17668,-26856,6,-1,40748,2020-11-02 14:56:19,2020-11-02 14:56:49,3,C7:F7:8F:B2:48:BE,6,6,-7652.468493453223,-46978.78143670558,7249.674729182836
6492,-17117,-4956,15896,17101,19979,270,-13766,-19463,32533,6,-1,40774,2020-11-02 14:56:19,2020-11-02 14:56:49,3,C7:F7:8F:B2:48:BE,6,6,20729.446196765843,-11849.847148869712,-328.06085382827496
6493,16395,-31811,-5091,12780,17432,-17157,-31179,16887,-21994,6,-1,40800,2020-11-02 14:56:19,2020-11-02 14:56:49,3,C7:F7:8F:B2:48:BE,6,6,34929.904810066946,9162.698484015575,-1612.6789670235821
6494,-13552,31676,-24305,8697,21524,16619,31538,29941,9499,6,-1,40825,2020-11-02 14:56:19,2020-11-02 14:56:49,3,C7:F7:8F:B2:48:BE,6,6,29283.550471920662,19100.208963096582,-23567.2313673991
6495,-22778,2484,-24042,-26630,19979,8916,-30417,25336,17440,6,-1,40851,2020-11-02 14:56:19,2020-11-02 14:56:49,3,C7:F7:8F:B2:48:BE,6,6,-21417.53276613971,-20946.2515673297,-14337.682500650862
6496,29699,-7244,11574,14857,-20980,27073,-30674,32254,-2779,6,-1,40876,2020-11-02 14:56:19,2020-11-02 14:56:49,3,C7:F7:8F:B2:48:BE,6,6,11937.350155670483,-13153.438426446775,27439.940630813824
6497,-7475,-17734,-11503,6182,-13280,2747,-22477,24325,-8658,6,-1,40902,2020-11-02 14:56:19,2020-11-02 14:56:49,3,C7:F7:8F:B2:48:BE,6,6,10367.397292656653,13343.195825657962,-14736.539231935001
6498,7300,1736,-8768,22591,-18644,8416,13631,15109,8505,6,-1,40953,2020-11-02 14:56:19,2020-11-02 14:56:49,3,C7:F7:8F:B2:48:BE,6,6,-5174.120253456435,5360.733858644936,-8813.202147888684
6499,-873,-24367,128,1072,32263,1545,-1605,-5630,-30662,6,-1,40955,2020-11-02 14:56:19,2020-11-02 14:56:49,3,C7:F7:8F:B2:48:BE,6,6,23118.4707128073,-7749.137364963353,128.0
6500,22999,2758,128,19218,-28920,-31203,26048,-8190,-25034,6,-1,40979,2020-11-02 14:56:19,2020-11-02 14:56:49,3,C7:F7:8F:B2:48:BE,6,6,-8025.490676328195,11901.882782210141,18180.033956038118
6501,-25154,-3622,-9800,26124,16925,-21728,-16447,13826,-25295,6,-1,41004,2020-11-02 14:56:19,2020-11-02 14:56:49,3,C7:F7:8F:B2:48:BE,6,6,-5620.3712220210955,17834.400174973583,19804.75189760224
6502,-4640,-32293,10663,12014,11795,32555,-1600,-4864,5162,6,-1,41030,2020-11-02 14:56:19,2020-11-02 14:56:49,3,C7:F7:8F:B2:48:BE,6,6,-4640.0,-32293.0,10663.0
6503,-13599,-5173,13509,-20779,4875,-5839,-27717,257,-4574,6,-1,41055,2020-11-02 14:56:19,2020-11-02 14:56:49,3,C7:F7:8F:B2:48:BE,6,6,-13599.0,-6842.346458387337,-12745.010982474447
6504,-261,-20837,12777,9418,16137,6197,1089,-12802,-3814,6,-1,41081,2020-11-02 14:56:19,2020-11-02 14:56:49,3,C7:F7:8F:B2:48:BE,6,6,-11509.478898212932,-20837.0,-5554.434758964341
6505,-3061,128,7938,2502,15120,26155,-711,2042,-7404,6,-1,41107,2020-11-02 14:56:19,2020-11-02 14:56:49,3,C7:F7:8F:B2:48:BE,6,6,-1546.157072206965,2644.901379648093,7938.0
6506,9512,-13162,28216,8920,-8698,-13543,-3277,23029,18961,6,-1,41132,2020-11-02 14:56:19,2020-11-02 14:56:49,3,C7:F7:8F:B2:48:BE,6,6,29152.898022844078,9139.405426927642,-11244.503070918661
6507,-23252,25774,15397,1798,-25066,25842,1585,26610,-12781,6,-1,41158,2020-11-02 14:56:19,2020-11-02 14:56:49,3,C7:F7:8F:B2:48:BE,6,6,21960.56127563812,-13950.167658566115,-27661.32245133698
6508,30234,-30295,1551,-20198,5139,26319,-22736,-27660,28698,6,-1,41183,2020-11-02 14:56:19,2020-11-02 14:56:49,3,C7:F7:8F:B2:48:BE,6,6,23952.126943214284,25531.862308411495,-24671.988244980683
6509,-1023,-11873,-7163,-12524,6661,7094,-6351,10235,2338,6,-1,41209,2020-11-02 14:56:19,2020-11-02 14:56:49,3,C7:F7:8F:B2:48:BE,6,6,4597.5777020828245,-12442.465941751387,4167.798886902728
6510,1227,3977,8966,3598,27648,-23136,-11980,29957,-17622,6,-1,41235,2020-11-02 14:56:19,2020-11-02 14:56:49,3,C7:F7:8F:B2:48:BE,6,6,-6402.745859899349,-7476.1175794168375,-907.5931865523573
6511,128,-1862,27107,-1752,11821,18880,-12482,-24567,19768,6,-1,41260,2020-11-02 14:56:19,2020-11-02 14:56:49,3,C7:F7:8F:B2:48:BE,6,6,3678.2497074392886,-26204.507080668005,6169.859378376718
6512,-12129,-14099,18600,-27613,-11260,14835,13755,27655,830,6,-1,41286,2020-11-02 14:56:19,2020-11-02 14:56:49,3,C7:F7:8F:B2:48:BE,6,6,23488.292973664415,-11045.67789047952,4259.992385331091
6513,-851,27895,-16186,7691,18690,18692,11454,-26873,13886,6,-1,41311,2020-11-02 14:56:19,2020-11-02 14:56:49,3,C7:F7:8F:B2:48:BE,6,6,-30959.13873885257,-1299.3418255942834,-8982.497501738559
6514,19860,20707,-11536,-16113,-10988,-20451,5567,30726,-4294,6,-1,41337,2020-11-02 14:56:19,2020-11-02 14:56:49,3,C7:F7:8F:B2:48:BE,6,6,16695.68143581364,20707.0,15771.909123306152
6515,-23103,-27467,31680,-2027,6165,-27849,17856,22790,51,6,-1,41363,2020-11-02 14:56:19,2020-11-02 14:56:49,3,C7:F7:8F:B2:48:BE,6,6,17898.85378920191,22721.44204878784,38146.74563126385
6516,-18172,23498,-8541,-13306,-19941,-27857,30400,-7676,-22231,6,-1,41388,2020-11-02 14:56:19,2020-11-02 14:56:49,3,C7:F7:8F:B2:48:BE,6,6,-11284.275899343638,-68.44386216546263,-28774.75806788346
6517,32010,-4127,11442,15590,24844,-4589,-12355,-10238,18724,6,-1,41414,2020-11-02 14:56:19,2020-11-02 14:56:49,3,C7:F7:8F:B2:48:BE,6,6,-19673.04806029203,-9439.82755771397,26390.385156303877
6518,25346,12757,-11558,-31793,17142,-3057,-1725,18179,-3295,6,-1,41441,2020-11-02 14:56:19,2020-11-02 14:56:49,3,C7:F7:8F:B2:48:BE,6,6,-26723.414871990833,12757.0,7865.505551422553
6519,17673,-4926,-28181,-2610,506,28182,15932,-25597,-22242,6,-1,41465,2020-11-02 14:56:19,2020-11-02 14:56:49,3,C7:F7:8F:B2:48:BE,6,6,9911.127407081285,-26541.808966094595,-18112.732988920878
6520,-758,25256,31227,-8754,6663,-25572,-7116,9985,-17637,6,-1,41491,2020-11-02 14:56:19,2020-11-02 14:56:49,3,C7:F7:8F:B2:48:BE,6,6,9688.21397395123,-38945.03117741595,-1728.7815318991306
6521,-27862,-12375,20526,17627,1538,-8420,-24274,-9220,-6631,6,1,41516,2020-11-02 14:56:19,2020-11-02 14:56:49,3,C7:F7:8F:B2:48:BE,6,6,-4040.79094807656,-7486.697406414027,-35754.29646152663
6522,-23227,-23360,21282,3329,14604,-29186,27948,-8711,-26854,6,1,41542,2020-11-02 14:56:19,2020-11-02 14:56:49,3,C7:F7:8F:B2:48:BE,6,6,-13469.485168741321,-32405.495940303015,-17508.953571017955
6523,-15579,-11584,16637,-27638,-21231,-15913,-4820,-21509,-21986,6,1,41568,2020-11-02 14:56:19,2020-11-02 14:56:49,3,C7:F7:8F:B2:48:BE,6,6,-14579.16279946076,9622.889527897956,-18669.01377150628
6524,-6414,22968,-3831,16630,2047,-1855,-18132,-16382,8483,6,1,41593,2020-11-02 14:56:19,2020-11-02 14:56:49,3,C7:F7:8F:B2:48:BE,6,6,20759.664393594354,-10753.467286987796,-6061.704098107555
6525,-10798,-2368,10049,-30723,12046,11199,-2772,-5109,-473,6,1,41619,2020-11-02 14:56:19,2020-11-02 14:56:49,3,C7:F7:8F:B2:48:BE,6,6,-10798.0,-2368.0,10049.0
6526,-5975,-12321,-23812,-3794,26407,24784,-21448,10000,-16589,6,1,41644,2020-11-02 14:56:19,2020-11-02 14:56:49,3,C7:F7:8F:B2:48:BE,6,6,515.4307962144067,-20109.892199168575,18704.159345774744
6527,5264,-29192,1718,-13286,-29695,-10000,-30397,-3825,-16582,6,1,41670,2020-11-02 14:56:19,2020-11-02 14:56:49,3,C7:F7:8F:B2:48:BE,6,6,-11218.191295902461,-654.9949036022953,-27505.585791340516
6528,-13389,11256,7913,-27890,-21241,3851,-11707,25615,29242,6,1,41695,2020-11-02 14:56:19,2020-11-02 14:56:49,3,C7:F7:8F:B2:48:BE,6,6,7794.628327832597,-17497.350100202493,-1290.3234873059546
6529,-9821,24548,-27428,-26855,25360,-8167,-3399,3599,-22730,6,1,41721,2020-11-02 14:56:19,2020-11-02 14:56:49,3,C7:F7:8F:B2:48:BE,6,6,13186.930266966596,-22916.39620739178,-27428.0
6530,-23341,7626,-31279,-11750,-18898,-30929,-25670,24841,27695,6,1,41747,2020-11-02 14:56:19,2020-11-02 14:56:49,3,C7:F7:8F:B2:48:BE,6,6,17139.034452656324,-8745.553042404299,-34800.9022586075
6531,767,31444,11708,2067,-18668,18480,-3397,12037,20519,6,1,41772,2020-11-02 14:56:19,2020-11-02 14:56:49,3,C7:F7:8F:B2:48:BE,6,6,-14660.900999952322,-29671.996134913526,-5569.678288669241
6532,21017,10219,-27971,-20739,16149,-4571,-5701,-22526,27424,6,1,41798,2020-11-02 14:56:19,2020-11-02 14:56:49,3,C7:F7:8F:B2:48:BE,6,6,18753.806938884467,6079.655275485504,30656.999331805288
6533,-31706,13539,3788,-31519,-25340,-2544,31557,-24832,22044,6,1,41824,2020-11-02 14:56:19,2020-11-02 14:56:49,3,C7:F7:8F:B2:48:BE,6,6,-12649.512937878386,-5745.3042656336,31779.005685038977
6534,2577,23239,8169,-9526,-14344,24581,-12226,-8704,-3814,6,1,41849,2020-11-02 14:56:19,2020-11-02 14:56:49,3,C7:F7:8F:B2:48:BE,6,6,22034.20306403325,-2242.7856547800493,-11085.504897823135
6535,-27381,-27466,16650,-22840,23289,-19448,-29130,18689,-32231,6,1,41875,2020-11-02 14:56:19,2020-11-02 14:56:49,3,C7:F7:8F:B2:48:BE,6,6,29605.28801935351,16329.545559671165,25262.535108451542
6536,-20456,16323,-2780,-3616,24576,30218,9264,19968,10520,6,1,41900,2020-11-02 14:56:19,2020-11-02 14:56:49,3,C7:F7:8F:B2:48:BE,6,6,2484.8991431473946,24522.594595066726,-9224.114893819864
6537,13345,11731,-29671,-14335,-12781,13564,31278,-6402,-31207,6,1,41926,2020-11-02 14:56:19,2020-11-02 14:56:49,3,C7:F7:8F:B2:48:BE,6,6,30831.959309044996,15655.640365868287,604.0173010675335
6538,-16096,-29226,-32282,11529,30996,-6426,-21201,-770,5150,6,1,41952,2020-11-02 14:56:19,2020-11-02 14:56:49,3,C7:F7:8F:B2:48:BE,6,6,-16096.0,24377.884605455984,36083.31113081326
6539,-15077,14531,-27615,-29704,7423,-32567,28719,-22013,16162,6,1,41977,2020-11-02 14:56:19,2020-11-02 14:56:49,3,C7:F7:8F:B2:48:BE,6,6,12841.011853579641,25670.024744614966,19421.95559636265
6540,-29974,2472,16417,29702,-1782,20404,-20431,20748,-7384,6,1,42003,2020-11-02 14:56:19,2020-11-02 14:56:49,3,C7:F7:8F:B2:48:BE,6,6,14657.315902772394,-23068.937872839037,20665.34647532986
6541,174,-9798,-17415,29219,3108,-16454,13631,8976,-8393,6,1,42028,2020-11-02 14:56:19,2020-11-02 14:56:49,3,C7:F7:8F:B2:48:BE,6,6,16051.185467445674,11856.72258003628,-1044.4518896141958
6542,-25188,-5398,24798,1821,28178,-29461,27069,24332,32320,6,1,42054,2020-11-02 14:56:19,2020-11-02 14:56:49,3,C7:F7:8F:B2:48:BE,6,6,28652.657018916856,-18261.76371203451,-11137.674078645601
6543,14252,-19752,2278,-6626,-26104,21767,-27455,30219,28224,6,1,42080,2020-11-02 14:56:19,2020-11-02 14:56:49,3,C7:F7:8F:B2:48:BE,6,6,-4479.195130402042,-22300.59056858374,9003.930434881016
6544,-20294,26813,5058,10023,16164,-9186,14789,-23031,27195,6,1,42105,2020-11-02 14:56:19,2020-11-02 14:56:49,3,C7:F7:8F:B2:48:BE,6,6,-31615.361346723745,-12497.961554717134,797.905315747746
6545,-18202,8634,10180,14365,-19646,-19411,-4922,-25851,-17616,6,1,42131,2020-11-02 14:56:19,2020-11-02 14:56:49,3,C7:F7:8F:B2:48:BE,6,6,-18187.27465304629,-11313.811351183802,7121.226959203339
6546,14593,4308,24004,6925,-25826,13610,16328,-25085,-9178,6,1,42156,2020-11-02 14:56:19,2020-11-02 14:56:49,3,C7:F7:8F:B2:48:BE,6,6,-27511.72065612302,-868.4422146732122,-7075.137006392709
