id,accelerationx,accelerationy,accelerationz,angularvelocityx,angularvelocityy,angularvelocityz,pitch,roll,yaw,mdlcircle_id,hallsensor,timestamp,starttime,endtime,train_mode,blemac,training_id,training_handle_id,accelerationWorldx,accelerationWorldy,accelerationWorldz
16524,-30223,-30977,-3081,-25346,-15106,-23297,23237,32534,21251,15,1,57859,2020-11-02 14:34:50,2020-11-02 14:35:20,3,D7:F2:3B:06:4D:C8,15,15,30126.359042776254,-22391.727273187742,-21760.281697370403
16525,-13583,-17412,26873,-17922,-28162,-17921,22981,-21738,-27901,15,1,57885,2020-11-02 14:34:50,2020-11-02 14:35:20,3,D7:F2:3B:06:4D:C8,15,15,-33199.20573146195,-10087.384367591472,2427.1747816205716
16526,-3339,-15872,-2057,5375,-31234,-6657,26053,-7914,-10493,15,1,57910,2020-11-02 14:34:50,2020-11-02 14:35:20,3,D7:F2:3B:06:4D:C8,15,15,372.73276426112284,15739.790333897477,4406.883766494624
16527,-8717,-31999,-25865,-29697,24062,22528,28101,7447,772,15,1,57936,2020-11-02 14:34:50,2020-11-02 14:35:20,3,D7:F2:3B:06:4D:C8,15,15,29894.34557174041,1341.2456828751565,29554.17868687156
16528,-10765,20993,4598,-23297,-6146,4353,21701,24087,-1277,15,1,57962,2020-11-02 14:34:50,2020-11-02 14:35:20,3,D7:F2:3B:06:4D:C8,15,15,8239.375703955064,-21431.78227819242,-7108.042936648053
16529,12788,-24321,19957,7423,-12289,-21503,-4156,-28905,-22525,15,1,57987,2020-11-02 14:34:50,2020-11-02 14:35:20,3,D7:F2:3B:06:4D:C8,15,15,-25969.085442590214,20865.04950690653,-6601.677389102608
16530,-19729,-14084,12533,-14851,1536,-24574,6340,-18665,259,15,1,58013,2020-11-02 14:34:50,2020-11-02 14:35:20,3,D7:F2:3B:06:4D:C8,15,15,20248.404832230764,-18155.773528444246,2244.6771112872666
16531,19434,-26883,19188,22524,4607,-18941,-13374,-1001,4866,15,1,58038,2020-11-02 14:34:50,2020-11-02 14:35:20,3,D7:F2:3B:06:4D:C8,15,15,19434.0,28634.874432828008,16459.617225688235
16532,31470,21249,5361,-9734,-14337,9732,3521,18200,-7680,15,1,58064,2020-11-02 14:34:50,2020-11-02 14:35:20,3,D7:F2:3B:06:4D:C8,15,15,1456.0267727581072,37060.35584180416,-9748.396427919008
16533,-15377,24572,-32529,-13320,-13566,-30460,-16706,14104,24831,15,1,58090,2020-11-02 14:34:50,2020-11-02 14:35:20,3,D7:F2:3B:06:4D:C8,15,15,-29072.41330433181,27235.056785204666,17647.02866118793
16534,-10776,9720,7663,6645,-18172,27653,-14917,-20201,-25603,15,1,58115,2020-11-02 14:34:50,2020-11-02 14:35:20,3,D7:F2:3B:06:4D:C8,15,15,-10294.731970388764,7447.605633720873,10386.231702712228
16535,14830,-13060,-5393,-9232,16389,-13818,-14524,-9706,-15109,15,1,58141,2020-11-02 14:34:50,2020-11-02 14:35:20,3,D7:F2:3B:06:4D:C8,15,15,2092.7918497130845,3296.7535997012683,20107.923487437267
16536,26101,-11014,-18447,-17172,14852,6408,-29376,-4331,-5895,15,1,58166,2020-11-02 14:34:50,2020-11-02 14:35:20,3,D7:F2:3B:06:4D:C8,15,15,26358.472868340214,-14093.719859848094,-15794.308296379942
16537,-6160,-24584,4343,14057,-18175,28167,-3013,8981,17656,15,1,58192,2020-11-02 14:34:50,2020-11-02 14:35:20,3,D7:F2:3B:06:4D:C8,15,15,3146.312906055765,24384.015414493882,7529.994180801974
16538,6138,8959,9975,-15898,23809,1797,30007,29204,14327,15,1,58218,2020-11-02 14:34:50,2020-11-02 14:35:20,3,D7:F2:3B:06:4D:C8,15,15,-14032.194961083467,1568.7722557652742,4251.565380384605
16539,18934,21244,-22018,29923,12800,-22526,-462,20,-14346,15,1,58243,2020-11-02 14:34:50,2020-11-02 14:35:20,3,D7:F2:3B:06:4D:C8,15,15,11437.790332301189,-26057.26087512495,-22018.0
16540,14077,511,-12283,26083,-30209,9986,16174,-16877,24310,15,1,58269,2020-11-02 14:34:50,2020-11-02 14:35:20,3,D7:F2:3B:06:4D:C8,15,15,15435.065984535255,1109.23929947728,10479.66913740782
16541,22785,509,16137,-27673,1280,-12035,5930,-13549,14582,15,1,58294,2020-11-02 14:34:50,2020-11-02 14:35:20,3,D7:F2:3B:06:4D:C8,15,15,19504.278676181086,-10648.613938657996,16911.777242717173
16542,31230,6141,-2296,13805,10758,22263,-12249,-27884,28151,15,1,58320,2020-11-02 14:34:50,2020-11-02 14:35:20,3,D7:F2:3B:06:4D:C8,15,15,12118.585836777223,21134.88172324202,-20609.53781289704
16543,24058,-21507,28935,29937,-7927,16883,-27097,5910,14586,15,-1,58345,2020-11-02 14:34:50,2020-11-02 14:35:20,3,D7:F2:3B:06:4D:C8,15,15,14042.300927386397,-11843.082343375734,-39257.20090980437
16544,-2057,23551,4872,-13836,-22010,27380,24104,-20457,25085,15,-1,58371,2020-11-02 14:34:50,2020-11-02 14:35:20,3,D7:F2:3B:06:4D:C8,15,15,-12128.664004660068,3867.269401330178,20507.485726914416
16545,22009,13057,-7671,-13834,-24576,-9483,12328,12313,-3586,15,-1,58397,2020-11-02 14:34:50,2020-11-02 14:35:20,3,D7:F2:3B:06:4D:C8,15,15,4539.552623995594,1541.5913163837658,-26281.962049801856
16546,-8203,27651,5389,-14856,-31234,-32268,11047,-9702,13567,15,-1,58422,2020-11-02 14:34:50,2020-11-02 14:35:20,3,D7:F2:3B:06:4D:C8,15,15,1550.2872010080764,-28391.142374595907,7242.097435123014
16547,-21267,30723,-29166,-7938,-18177,26099,-17370,-15844,29439,15,-1,58448,2020-11-02 14:34:50,2020-11-02 14:35:20,3,D7:F2:3B:06:4D:C8,15,15,-36931.869745257005,3114.341017474231,-29549.643841275785
16548,-1561,1020,-11762,-19959,16641,-9230,3881,-18914,257,15,-1,58473,2020-11-02 14:34:50,2020-11-02 14:35:20,3,D7:F2:3B:06:4D:C8,15,15,3205.231821993453,1020.0,11424.003412432987
16549,23018,-14351,6,-19698,-20988,-28434,12085,-23008,13835,15,-1,58499,2020-11-02 14:34:50,2020-11-02 14:35:20,3,D7:F2:3B:06:4D:C8,15,15,4946.244629431396,-25145.63144957123,-8888.83817313351
16550,-290,-20503,28424,-23792,-507,17642,-11577,-737,19240,15,-1,58524,2020-11-02 14:34:50,2020-11-02 14:35:20,3,D7:F2:3B:06:4D:C8,15,15,-4564.343968131514,-34075.01421282321,6814.767460190977
16551,19178,-20760,18937,31247,4351,-8205,29393,-7395,25903,15,-1,58550,2020-11-02 14:34:50,2020-11-02 14:35:20,3,D7:F2:3B:06:4D:C8,15,15,16417.206991251227,236.00199399576013,29796.021054248864
16552,18399,-29459,20221,13580,-9225,4600,-10280,-27876,3893,15,-1,58576,2020-11-02 14:34:50,2020-11-02 14:35:20,3,D7:F2:3B:06:4D:C8,15,15,15002.317696679627,1098.6191552309465,-37268.86398429194
16553,1760,-13070,22781,4109,-25350,7933,23006,-8421,-9928,15,-1,58601,2020-11-02 14:34:50,2020-11-02 14:35:20,3,D7:F2:3B:06:4D:C8,15,15,24483.04491367815,9591.052637397568,-1220.1155934942217
16554,21734,-11019,18426,24332,21503,-27137,481,-20453,-26823,15,-1,58627,2020-11-02 14:34:50,2020-11-02 14:35:20,3,D7:F2:3B:06:4D:C8,15,15,24102.982300654774,-11049.135827190043,-15174.499487186651
16555,-31507,-29439,-28677,-15090,-9215,12800,-27934,-16101,6457,15,-1,58678,2020-11-02 14:34:50,2020-11-02 14:35:20,3,D7:F2:3B:06:4D:C8,15,15,-25633.4899503829,35860.66812875292,-27178.167217880295
16556,-7184,13572,28146,-15343,-16890,-18688,13283,3868,1079,15,-1,58680,2020-11-02 14:34:50,2020-11-02 14:35:20,3,D7:F2:3B:06:4D:C8,15,15,-7184.0,-31241.030241053453,628.1158154222812
16557,4595,-5890,-26388,30989,-18935,14597,9697,-7396,25906,15,-1,58703,2020-11-02 14:34:50,2020-11-02 14:35:20,3,D7:F2:3B:06:4D:C8,15,15,2205.378260056017,-26548.595352787954,-6514.680385406355
16558,-19209,-11274,29675,-8700,23812,-21235,-27170,-26338,27438,15,-1,58729,2020-11-02 14:34:50,2020-11-02 14:35:20,3,D7:F2:3B:06:4D:C8,15,15,-5810.463465131432,16356.868293479867,32793.07481695069
16559,23039,5362,10986,11767,-11526,12308,-17440,16929,5425,15,-1,58755,2020-11-02 14:34:50,2020-11-02 14:35:20,3,D7:F2:3B:06:4D:C8,15,15,-20165.230290289583,-3757.995358225887,-16108.374195651784
16560,8452,30449,-26132,21993,26607,1046,-18165,-15072,11218,15,-1,58780,2020-11-02 14:34:50,2020-11-02 14:35:20,3,D7:F2:3B:06:4D:C8,15,15,15969.306893193747,-37746.13019413868,-1292.370580803834
16561,-19965,21745,28405,19168,9198,30998,-4851,-20452,-10280,15,-1,58806,2020-11-02 14:34:50,2020-11-02 14:35:20,3,D7:F2:3B:06:4D:C8,15,15,26811.160540869674,-1509.9207523414048,-30938.1978268509
16562,25606,13040,-21504,731,7154,25110,24588,-4072,-4132,15,-1,58831,2020-11-02 14:34:50,2020-11-02 14:35:20,3,D7:F2:3B:06:4D:C8,15,15,25606.0,-24797.793675163186,4187.247884235727
16563,21510,-15894,-8436,7896,-27925,-22760,29449,-2284,-31264,15,-1,58859,2020-11-02 14:34:50,2020-11-02 14:35:20,3,D7:F2:3B:06:4D:C8,15,15,18182.113087196296,17052.881543843316,12848.168224928146
16564,-29941,32744,18707,-28712,-20511,-13543,-23547,-22257,-11805,15,-1,58883,2020-11-02 14:34:50,2020-11-02 14:35:20,3,D7:F2:3B:06:4D:C8,15,15,-43932.95332038554,-10543.659161755477,-16652.679364881635
16565,-25073,-29469,31508,12763,-26393,4370,25089,-13814,-11802,15,-1,58908,2020-11-02 14:34:50,2020-11-02 14:35:20,3,D7:F2:3B:06:4D:C8,15,15,35501.50402100943,-26015.16983878382,-23509.264227225067
16566,-22007,-8992,-23520,10718,12020,29187,29948,6920,26088,15,-1,58934,2020-11-02 14:34:50,2020-11-02 14:35:20,3,D7:F2:3B:06:4D:C8,15,15,-12300.155313704203,24165.769501132872,19572.334471821967
16567,19201,-31260,-16851,9451,1024,-20745,7416,5383,-2329,15,1,58959,2020-11-02 14:34:50,2020-11-02 14:35:20,3,D7:F2:3B:06:4D:C8,15,15,19201.0,-2710.222516440186,-35409.01714127887
16568,14330,8935,21544,22526,7434,15600,-4875,4103,-25115,15,1,58985,2020-11-02 14:34:50,2020-11-02 14:35:20,3,D7:F2:3B:06:4D:C8,15,15,-16128.743382551897,5004.674005346238,21544.0
16569,11773,3559,-25576,20235,-8940,-1560,-26891,-7417,-31263,15,1,59011,2020-11-02 14:34:50,2020-11-02 14:35:20,3,D7:F2:3B:06:4D:C8,15,15,-19159.07927103232,-4732.542046991644,20394.472615386647
16570,-13072,-27669,5906,-7659,-30171,6116,-24075,1802,8155,15,1,59036,2020-11-02 14:34:50,2020-11-02 14:35:20,3,D7:F2:3B:06:4D:C8,15,15,-18520.292095505723,-3642.958023260423,-24800.38746749556
16571,9471,32498,-8440,5402,12075,-25372,29685,-755,29139,15,1,59062,2020-11-02 14:34:50,2020-11-02 14:35:20,3,D7:F2:3B:06:4D:C8,15,15,3765.481736660957,-8762.814169251,-33557.229923312305
16572,31989,6905,-21249,1558,-4063,-9241,-25101,10257,1483,15,1,59087,2020-11-02 14:34:50,2020-11-02 14:35:20,3,D7:F2:3B:06:4D:C8,15,15,33368.44373403132,11567.887020734925,-16589.939711894618
16573,30450,7937,19461,-2533,14098,19954,-11278,-14318,-12348,15,1,59113,2020-11-02 14:34:50,2020-11-02 14:35:20,3,D7:F2:3B:06:4D:C8,15,15,25514.794708174522,6094.701952202383,26091.73909714586
16574,-31245,3068,15346,31771,-16629,-10502,-24332,-493,26561,15,1,59138,2020-11-02 14:34:50,2020-11-02 14:35:20,3,D7:F2:3B:06:4D:C8,15,15,10115.997624149799,32548.442740375016,-7708.944950168265
16575,9196,-12551,17390,19220,-20985,12290,-266,24597,192,15,1,59164,2020-11-02 14:34:50,2020-11-02 14:35:20,3,D7:F2:3B:06:4D:C8,15,15,-19171.702130866644,-12551.0,-4407.306819966504
16576,-21778,-31495,-30224,12814,-16123,20489,18938,-23018,4289,15,1,59190,2020-11-02 14:34:50,2020-11-02 14:35:20,3,D7:F2:3B:06:4D:C8,15,15,33516.07658881035,35445.02480403245,-171.20670116106703
16577,-19976,-16650,-18709,-1787,-14330,1806,-18178,5144,30916,15,1,59215,2020-11-02 14:34:50,2020-11-02 14:35:20,3,D7:F2:3B:06:4D:C8,15,15,7608.1071484324775,23082.25256758494,20871.41775309452
16578,-32265,-28682,28398,17147,15367,19214,-13822,13849,11977,15,1,59241,2020-11-02 14:34:50,2020-11-02 14:35:20,3,D7:F2:3B:06:4D:C8,15,15,-45318.0198238733,8288.917802338274,23403.091118677195
16579,-8707,-14601,31220,15090,-29434,25359,-27130,-8935,4559,15,-1,59266,2020-11-02 14:34:50,2020-11-02 14:35:20,3,D7:F2:3B:06:4D:C8,15,15,21765.59508251806,-14083.52339528392,-24322.88406991153
16580,-20228,-20233,-27394,8683,10757,17935,24585,-5351,11733,15,-1,59292,2020-11-02 14:34:50,2020-11-02 14:35:20,3,D7:F2:3B:06:4D:C8,15,15,15243.619540100426,-15269.388806398478,33218.2982375031
16581,6908,23800,-24312,7143,13578,18188,9995,-4327,5851,15,-1,59318,2020-11-02 14:34:50,2020-11-02 14:35:20,3,D7:F2:3B:06:4D:C8,15,15,-24302.911995355564,23814.15372863494,6891.179778161722
16582,-23808,13297,-22262,-1056,-9717,-8443,-8437,6427,-31008,15,-1,59343,2020-11-02 14:34:50,2020-11-02 14:35:20,3,D7:F2:3B:06:4D:C8,15,15,1883.3673069944562,-34345.15128610193,7489.407701662094
16583,19714,16873,-12524,-32553,-10761,-21762,-27386,-10470,-3360,15,-1,59369,2020-11-02 14:34:50,2020-11-02 14:35:20,3,D7:F2:3B:06:4D:C8,15,15,-6982.145365757119,-1550.7343635952311,27911.205098042636
16584,9469,8681,-27865,7137,-1292,-12553,24318,-2024,9950,15,-1,59394,2020-11-02 14:34:50,2020-11-02 14:35:20,3,D7:F2:3B:06:4D:C8,15,15,27636.058601276723,-6491.995904795205,11643.97703359642
16585,27116,15333,-14814,-5903,17658,25326,-30985,4887,-1319,15,-1,59420,2020-11-02 14:34:50,2020-11-02 14:35:20,3,D7:F2:3B:06:4D:C8,15,15,27116.0,18554.89649456738,10501.014287957667
16586,22759,11748,-16611,22780,31229,2288,6899,13077,5334,15,-1,59445,2020-11-02 14:34:50,2020-11-02 14:35:20,3,D7:F2:3B:06:4D:C8,15,15,-8643.043674539156,20325.146017982875,-21073.659895416444
16587,4588,30440,-7908,-23546,7427,-26384,-9232,-17645,-10542,15,-1,59471,2020-11-02 14:34:50,2020-11-02 14:35:20,3,D7:F2:3B:06:4D:C8,15,15,8064.777609385498,5563.872766948167,30235.450880454337
16588,7664,-27415,5402,28943,27405,-16140,-11281,29715,5327,15,-1,59497,2020-11-02 14:34:50,2020-11-02 14:35:20,3,D7:F2:3B:06:4D:C8,15,15,-22746.1919483197,-10266.761455442793,14720.906428179966
16589,12277,12014,-25355,-28403,-22510,1774,-8723,-17133,26569,15,-1,59522,2020-11-02 14:34:50,2020-11-02 14:35:20,3,D7:F2:3B:06:4D:C8,15,15,-22045.631639446205,-2814.812322098408,21071.400219473115
16590,-31245,5892,17930,8203,-1782,-29195,-19477,-30957,-25148,15,-1,59548,2020-11-02 14:34:50,2020-11-02 14:35:20,3,D7:F2:3B:06:4D:C8,15,15,19939.919936756844,-18034.027630143595,24690.565593986386
16591,-32267,-21744,23041,14608,13059,-30211,23788,20499,-9534,15,-1,59573,2020-11-02 14:34:50,2020-11-02 14:35:20,3,D7:F2:3B:06:4D:C8,15,15,43998.67346277283,-9944.976810488579,3172.172087881556
16592,18419,-11516,-23542,-24553,-4089,26879,-12306,-23789,9922,15,1,59625,2020-11-02 14:34:50,2020-11-02 14:35:20,3,D7:F2:3B:06:4D:C8,15,15,15763.321373398412,-6200.150279488049,-27187.854214533465
16593,-10255,19707,-27652,8991,-31218,29950,30961,4117,-10049,15,1,59627,2020-11-02 14:34:50,2020-11-02 14:35:20,3,D7:F2:3B:06:4D:C8,15,15,-23149.458455952477,-2677.1045276910063,-26741.347433215604
16594,7404,12275,8688,28447,524,-20733,-17164,-6634,-67,15,1,59650,2020-11-02 14:34:50,2020-11-02 14:35:20,3,D7:F2:3B:06:4D:C8,15,15,16434.907265792088,2791.773625645349,-1753.855235749371
16595,-30997,-1549,6118,11542,-27123,-28660,30201,24345,-12354,15,1,59676,2020-11-02 14:34:50,2020-11-02 14:35:20,3,D7:F2:3B:06:4D:C8,15,15,-2482.1442460946155,-18465.38934874264,-25563.874709067895
16596,4083,18676,-18201,12806,11531,-25069,12033,-17125,2501,15,1,59701,2020-11-02 14:34:50,2020-11-02 14:35:20,3,D7:F2:3B:06:4D:C8,15,15,-24028.13277379619,8778.164146299801,-6506.376535786876
16597,-17677,27381,-28168,-24581,25867,-18922,17676,-27620,-9008,15,1,59727,2020-11-02 14:34:50,2020-11-02 14:35:20,3,D7:F2:3B:06:4D:C8,15,15,-239.245823419913,-42440.310719936686,-7375.26280421266
16598,3570,4855,-15367,-27145,7693,8218,8983,15131,24029,15,1,59752,2020-11-02 14:34:50,2020-11-02 14:35:20,3,D7:F2:3B:06:4D:C8,15,15,15249.116278559413,-6140.170177711714,-1491.0992293318527
16599,-30477,17906,12283,22251,5892,-17895,21019,19224,29924,15,1,59778,2020-11-02 14:34:50,2020-11-02 14:35:20,3,D7:F2:3B:06:4D:C8,15,15,-10487.806012468649,-33149.187349230735,13837.69334572881
16600,23030,19950,17413,17378,1020,14877,24089,17428,-1818,15,1,59804,2020-11-02 14:34:50,2020-11-02 14:35:20,3,D7:F2:3B:06:4D:C8,15,15,-26536.399990232843,138.01161456789487,22965.112613540885
16601,-6148,27624,11015,-10535,-773,-6885,-12779,18192,23785,15,1,59829,2020-11-02 14:34:50,2020-11-02 14:35:20,3,D7:F2:3B:06:4D:C8,15,15,-2358.4431362082696,-466.83939763342005,30272.649569373494
16602,-28930,8417,-2536,-10799,7671,-2027,11792,-13556,20715,15,1,59855,2020-11-02 14:34:50,2020-11-02 14:35:20,3,D7:F2:3B:06:4D:C8,15,15,-3910.028393702028,1766.1880198336466,-29930.15774831533
16603,29697,-3101,-27106,26071,-19721,31758,2314,-503,-12820,15,1,59883,2020-11-02 14:34:50,2020-11-02 14:35:20,3,D7:F2:3B:06:4D:C8,15,15,-15178.043925526927,-25712.934344309582,-27106.0
16604,3840,-20001,-18922,5594,-11006,22017,19460,22537,-25875,15,1,59906,2020-11-02 14:34:50,2020-11-02 14:35:20,3,D7:F2:3B:06:4D:C8,15,15,-15988.903635775732,-15865.940119662178,-16292.777223210645
16605,-8969,-24356,8994,21211,31751,25846,-10499,20746,-32020,15,1,59932,2020-11-02 14:34:50,2020-11-02 14:35:20,3,D7:F2:3B:06:4D:C8,15,15,8895.391845849586,10359.48533099233,-23834.907186430315
16606,15868,31206,23848,-796,26630,13297,-12041,-15862,4586,15,1,59957,2020-11-02 14:34:50,2020-11-02 14:35:20,3,D7:F2:3B:06:4D:C8,15,15,28222.49636805662,8698.64685364873,30367.074367981815
16607,26370,10475,17182,15346,9996,18412,23027,-19958,-26138,15,1,59983,2020-11-02 14:34:50,2020-11-02 14:35:20,3,D7:F2:3B:06:4D:C8,15,15,10637.646322233155,-21735.178579319698,22688.01758303623
16608,30209,-31500,18719,-30723,21776,9191,7920,15882,-2591,15,1,60008,2020-11-02 14:34:50,2020-11-02 14:35:20,3,D7:F2:3B:06:4D:C8,15,15,-27476.962526387004,-32771.01799946542,-20647.31342335457
16609,29692,30972,-8166,-28146,-15846,-28187,-8466,-5367,15580,15,1,60034,2020-11-02 14:34:50,2020-11-02 14:35:20,3,D7:F2:3B:06:4D:C8,15,15,-21324.442307828707,22894.48994168986,-30474.147971189403
16610,5124,8186,25106,19740,-3801,-9756,16367,-3830,-5932,15,1,60060,2020-11-02 14:34:50,2020-11-02 14:35:20,3,D7:F2:3B:06:4D:C8,15,15,-19307.818187949488,-18486.74401029203,-3004.273742357527
16611,11520,32763,7950,10277,-15318,-5658,8688,2061,24268,15,1,60085,2020-11-02 14:34:50,2020-11-02 14:35:20,3,D7:F2:3B:06:4D:C8,15,15,804.1087198095838,-15916.438714017742,31864.517206912824
16612,22262,-22537,-510,24617,22045,-3347,-5391,14095,965,15,1,60111,2020-11-02 14:34:50,2020-11-02 14:35:20,3,D7:F2:3B:06:4D:C8,15,15,-9728.002562893582,-22537.0,-20030.544429354282
16613,-11803,27123,23535,-32472,-29170,-9224,30453,-8944,-12864,15,1,60136,2020-11-02 14:34:50,2020-11-02 14:35:20,3,D7:F2:3B:06:4D:C8,15,15,23401.140461607498,-21587.225145161792,-20377.49981298518
16614,6372,5877,10980,15131,3335,21253,-1543,28690,5568,15,1,60162,2020-11-02 14:34:50,2020-11-02 14:35:20,3,D7:F2:3B:06:4D:C8,15,15,-8721.493090029582,5877.0,9224.876274539743
16615,3820,-12551,27123,-5108,-20983,-7927,-6915,9236,-20031,15,1,60187,2020-11-02 14:34:50,2020-11-02 14:35:20,3,D7:F2:3B:06:4D:C8,15,15,-20785.59172663571,-19166.95956499127,10409.801516244332
16616,-26385,-3079,24058,-4085,20238,2317,24066,11286,-8764,15,1,60213,2020-11-02 14:34:50,2020-11-02 14:35:20,3,D7:F2:3B:06:4D:C8,15,15,3221.733702964925,32405.428440291533,14964.774289922474
16617,-30499,-11276,-11016,-3580,-29170,13844,29960,-3049,-30774,15,1,60239,2020-11-02 14:34:50,2020-11-02 14:35:20,3,D7:F2:3B:06:4D:C8,15,15,4545.3840109044295,-33150.01445079667,7688.007486038649
16618,12772,30442,10996,7414,18693,8738,-16881,-490,30419,15,1,60264,2020-11-02 14:34:50,2020-11-02 14:35:20,3,D7:F2:3B:06:4D:C8,15,15,1062.886111647138,-13004.675897950794,-32256.782882099782
16619,21263,13794,2814,13797,-13826,22054,26386,18707,-21286,15,1,60290,2020-11-02 14:34:50,2020-11-02 14:35:20,3,D7:F2:3B:06:4D:C8,15,15,21583.124409619868,10032.933188025494,9155.173038424095
16620,-21730,17375,11784,8417,25083,15132,-16880,26639,-546,15,1,60315,2020-11-02 14:34:50,2020-11-02 14:35:20,3,D7:F2:3B:06:4D:C8,15,15,29871.695212613486,3484.609592707234,-2912.9885188818057
16621,26362,-24605,-18925,-5662,5632,-12781,23053,17933,-30239,15,1,60341,2020-11-02 14:34:50,2020-11-02 14:35:20,3,D7:F2:3B:06:4D:C8,15,15,-7850.575500969668,-20332.965216671902,-34401.39072481205
16622,1525,10209,-11488,-24873,-25607,26125,-14840,-29429,-26909,15,1,60367,2020-11-02 14:34:50,2020-11-02 14:35:20,3,D7:F2:3B:06:4D:C8,15,15,13660.073627503698,6664.9072173954555,-2739.498179354736
16623,2305,7658,-10196,-5923,-32011,-25585,-15101,-31991,-21787,15,1,60392,2020-11-02 14:34:50,2020-11-02 14:35:20,3,D7:F2:3B:06:4D:C8,15,15,177.1416924814248,12609.234229682714,-2981.985573704642
16624,-2551,-28942,14123,-13843,3073,-9470,15360,21768,-9754,15,1,60418,2020-11-02 14:34:50,2020-11-02 14:35:20,3,D7:F2:3B:06:4D:C8,15,15,-1761.6006993564079,1266.7909283012514,32231.942195902506
16625,-26611,-4113,10521,-23045,19216,-31505,8958,-24311,20197,15,1,60443,2020-11-02 14:34:50,2020-11-02 14:35:20,3,D7:F2:3B:06:4D:C8,15,15,-17323.029094590453,13656.6748405428,18685.861668321795
16626,4876,11759,10508,23042,-10984,1250,-17925,23052,25056,15,1,60469,2020-11-02 14:34:50,2020-11-02 14:35:20,3,D7:F2:3B:06:4D:C8,15,15,-11571.610121685937,2143.3840448991195,11574.595674483293
16627,-4602,-5389,30477,-27387,-5866,6877,16888,28942,13529,15,1,60495,2020-11-02 14:34:50,2020-11-02 14:35:20,3,D7:F2:3B:06:4D:C8,15,15,16686.489123673222,24743.815999515562,-9400.63319716567
16628,-15873,-9220,-21990,30218,-4587,-15648,-22796,24079,-30511,15,1,60520,2020-11-02 14:34:50,2020-11-02 14:35:20,3,D7:F2:3B:06:4D:C8,15,15,-7786.773941437106,-5085.008810685387,-27092.97816741836
16629,-19975,-32254,-27884,14099,-5355,25827,25586,-12785,8906,15,-1,60546,2020-11-02 14:34:50,2020-11-02 14:35:20,3,D7:F2:3B:06:4D:C8,15,15,-16438.76685384245,-25638.98879369637,-35906.09690514583
16630,-21007,-9218,-8944,-16357,22288,6121,10482,-6129,-7229,15,-1,60571,2020-11-02 14:34:50,2020-11-02 14:35:20,3,D7:F2:3B:06:4D:C8,15,15,1733.1929428133371,2012.1666118585927,-24478.72416506023
16631,21996,-16132,-1784,11809,32267,-16911,6644,11792,30143,15,-1,60597,2020-11-02 14:34:50,2020-11-02 14:35:20,3,D7:F2:3B:06:4D:C8,15,15,-13265.098412070985,19407.77655214277,-13950.751571874875
16632,-23570,-26626,2819,-8674,-2301,29177,18935,-22000,701,15,-1,60622,2020-11-02 14:34:50,2020-11-02 14:35:20,3,D7:F2:3B:06:4D:C8,15,15,24258.21226340756,25961.722911762692,3156.5199565849202
16633,490,-5635,3837,5150,-4350,-13316,14843,-15600,188,15,-1,60648,2020-11-02 14:34:50,2020-11-02 14:35:20,3,D7:F2:3B:06:4D:C8,15,15,5907.154539123387,-1143.9868027869934,3242.3314830478325
16634,-7701,-14082,9454,23831,12805,-14593,2815,-21487,-26693,15,-1,60674,2020-11-02 14:34:50,2020-11-02 14:35:20,3,D7:F2:3B:06:4D:C8,15,15,6546.015772875288,13964.73343792878,-10446.154244929648
16635,26086,-9732,-3848,13,26631,-26366,-14847,-15086,-8005,15,-1,60699,2020-11-02 14:34:50,2020-11-02 14:35:20,3,D7:F2:3B:06:4D:C8,15,15,-10536.028876638682,17428.626543635917,19370.94206054794
16636,5089,13046,26373,-9980,-16890,-31736,10756,-8685,29117,15,-1,60725,2020-11-02 14:34:50,2020-11-02 14:35:20,3,D7:F2:3B:06:4D:C8,15,15,-19762.92417845369,13423.77492736707,17912.572696742416
16637,-23326,29172,-24569,-26881,2821,11281,4103,19732,-6720,15,-1,60750,2020-11-02 14:34:50,2020-11-02 14:35:20,3,D7:F2:3B:06:4D:C8,15,15,35151.033687367744,-752.4952781232482,27614.890956980806
16638,-9239,-6671,20230,31993,16640,-23016,21258,28947,-4923,15,-1,60776,2020-11-02 14:34:50,2020-11-02 14:35:20,3,D7:F2:3B:06:4D:C8,15,15,17486.889615976892,3749.3821817704575,-14807.602331696437
16639,499,4594,3334,26611,20736,28186,25612,-30703,-3382,15,-1,60801,2020-11-02 14:34:50,2020-11-02 14:35:20,3,D7:F2:3B:06:4D:C8,15,15,-5282.126824154841,-479.6592748908006,-2082.896107239897
16640,6653,-22546,24577,-20501,32257,-18153,-18164,-19697,22991,15,-1,60827,2020-11-02 14:34:50,2020-11-02 14:35:20,3,D7:F2:3B:06:4D:C8,15,15,21871.243991443178,-14130.735684415915,21876.57306992883
16641,8966,4833,2305,18143,-12805,-14060,-30710,-7923,-12846,15,-1,60853,2020-11-02 14:34:50,2020-11-02 14:35:20,3,D7:F2:3B:06:4D:C8,15,15,-927.3673451677405,-9.303518826555546,10401.921613416149
16642,-9976,4053,-18175,4050,-14350,27410,-32763,26123,20437,15,-1,60878,2020-11-02 14:34:50,2020-11-02 14:35:20,3,D7:F2:3B:06:4D:C8,15,15,-10028.03982502422,-17336.46924364496,-6720.36170394723
16643,15355,24272,20249,-26934,11247,-17646,29182,-16120,-5417,15,-1,60904,2020-11-02 14:34:50,2020-11-02 14:35:20,3,D7:F2:3B:06:4D:C8,15,15,9551.080725145726,26302.30620321732,21257.788111041693
16644,-8177,-1316,-17890,31697,22766,-5358,-7945,-18938,-24357,15,-1,60929,2020-11-02 14:34:50,2020-11-02 14:35:20,3,D7:F2:3B:06:4D:C8,15,15,5850.133968703529,17345.167007605374,7319.043586869748
16645,-28652,5101,-23773,-12318,12023,-7671,-6414,-22011,30686,15,-1,60955,2020-11-02 14:34:50,2020-11-02 14:35:20,3,D7:F2:3B:06:4D:C8,15,15,-7807.572813150262,-34411.83584951417,12922.08165248339
16646,-15859,3320,-30440,-16647,-8442,4864,-14352,-9467,-3874,15,-1,60981,2020-11-02 14:34:50,2020-11-02 14:35:20,3,D7:F2:3B:06:4D:C8,15,15,-16687.70676276998,-29060.621169910264,-8131.7046932832245
16647,21775,-7945,1027,10503,17942,-6666,-25616,9991,-21284,15,-1,61006,2020-11-02 14:34:50,2020-11-02 14:35:20,3,D7:F2:3B:06:4D:C8,15,15,-5455.983853438576,-5238.333531072116,-21934.458758042405
16648,-5357,6906,-12534,28683,-5091,3057,29680,2057,14808,15,-1,61032,2020-11-02 14:34:50,2020-11-02 14:35:20,3,D7:F2:3B:06:4D:C8,15,15,11376.999670002268,-684.5918173372447,-10177.752873419711
16649,-16886,-2310,-4081,5139,19738,-22294,-30480,22026,-21038,15,-1,61057,2020-11-02 14:34:50,2020-11-02 14:35:20,3,D7:F2:3B:06:4D:C8,15,15,-15618.735199033565,-5517.442174975678,5721.940197893506
16650,-2307,25336,12041,1816,-1524,25069,-9231,-26102,-2611,15,-1,61083,2020-11-02 14:34:50,2020-11-02 14:35:20,3,D7:F2:3B:06:4D:C8,15,15,-9703.111091965244,23821.25134954707,11428.842692008799
16651,-12811,-21508,16905,-15593,26621,-25612,30708,-9975,-29749,15,-1,61108,2020-11-02 14:34:50,2020-11-02 14:35:20,3,D7:F2:3B:06:4D:C8,15,15,-17725.359167348,-24281.23647573188,2954.3201583612886
16652,-6151,8455,-30189,20759,-20234,-30474,-22025,26632,-23606,15,1,61134,2020-11-02 14:34:50,2020-11-02 14:35:20,3,D7:F2:3B:06:4D:C8,15,15,21125.080403536347,-5135.604439106517,-23410.55514055901
16653,7,-6400,23567,-30689,-6907,-11541,17915,-31993,29640,15,1,61160,2020-11-02 14:34:50,2020-11-02 14:35:20,3,D7:F2:3B:06:4D:C8,15,15,-3704.896370980032,23136.294331310826,-6881.072990112331
16654,-28428,1782,29707,-221,-12016,-10271,-9986,16393,-22077,15,1,61185,2020-11-02 14:34:50,2020-11-02 14:35:20,3,D7:F2:3B:06:4D:C8,15,15,-21147.30894643247,-29237.298023069918,19794.04672204067
16655,-6949,-8712,7416,6687,-31731,31982,13058,-14581,-29249,15,1,61211,2020-11-02 14:34:50,2020-11-02 14:35:20,3,D7:F2:3B:06:4D:C8,15,15,6649.420206371489,11486.945169175764,-1737.7866956125997
16656,20181,-2057,-28431,-11765,-5885,-11513,10501,14861,19647,15,1,61236,2020-11-02 14:34:50,2020-11-02 14:35:20,3,D7:F2:3B:06:4D:C8,15,15,20481.3137408964,-25962.603731195737,-11237.649484828642
16657,-24092,-5129,30734,31998,6656,10778,28167,-15604,-8766,15,1,61262,2020-11-02 14:34:50,2020-11-02 14:35:20,3,D7:F2:3B:06:4D:C8,15,15,35772.9268766864,-6458.928544781211,-15162.1174553114
16658,10734,-13832,4374,-31236,22785,9757,18441,13323,-28985,15,1,61288,2020-11-02 14:34:50,2020-11-02 14:35:20,3,D7:F2:3B:06:4D:C8,15,15,-15426.682734111822,-6051.928461101108,-7146.081284366316
16659,-24337,10738,7697,3060,-18943,-14305,10250,-23031,23500,15,1,61313,2020-11-02 14:34:50,2020-11-02 14:35:20,3,D7:F2:3B:06:4D:C8,15,15,-17435.857022754062,-19154.878428180575,9793.852371957642
16660,-525,21733,6415,-4885,20990,-1497,26633,19207,-22063,15,1,61339,2020-11-02 14:34:50,2020-11-02 14:35:20,3,D7:F2:3B:06:4D:C8,15,15,1049.545030418818,9594.88141637309,20508.238462502362
16661,27396,26580,1028,8931,18937,19250,1287,5380,10712,15,1,61364,2020-11-02 14:34:50,2020-11-02 14:35:20,3,D7:F2:3B:06:4D:C8,15,15,-7564.176804630333,37414.174389772284,1028.0
16662,-16613,-313,-2027,-6441,19697,2102,-6399,-22784,-14625,15,1,61390,2020-11-02 14:34:50,2020-11-02 14:35:20,3,D7:F2:3B:06:4D:C8,15,15,-8597.839868792236,-14281.539204579385,-1520.938703126684
16663,-8662,-18214,-21992,-12832,-16137,-29912,-1541,-15106,9959,15,1,61416,2020-11-02 14:34:50,2020-11-02 14:35:20,3,D7:F2:3B:06:4D:C8,15,15,28078.731290926575,10019.275529157978,1275.5669181807007
16664,12082,4330,29199,24037,6410,-13302,26359,-11009,24810,15,1,61441,2020-11-02 14:34:50,2020-11-02 14:35:20,3,D7:F2:3B:06:4D:C8,15,15,-1985.1516000964193,-31775.674394607264,-1915.9631761949095
16665,-21978,-29195,6429,12272,-5094,-3605,-1805,-27391,-5145,15,1,61467,2020-11-02 14:34:50,2020-11-02 14:35:20,3,D7:F2:3B:06:4D:C8,15,15,19231.262741675135,-29195.0,12430.730403345486
16666,-11258,-6150,-491,-11257,23333,20959,3827,21763,12513,15,1,61492,2020-11-02 14:34:50,2020-11-02 14:35:20,3,D7:F2:3B:06:4D:C8,15,15,982.9178359331455,12630.722810767973,2074.8153665688037
16667,-26879,-18699,5110,-4342,2329,-28444,-19981,-5116,-20774,15,1,61518,2020-11-02 14:34:50,2020-11-02 14:35:20,3,D7:F2:3B:06:4D:C8,15,15,29324.168434142543,-15247.35399629468,-2420.058626916819
16668,25607,-28168,-25086,5893,-11765,-32533,-23821,20485,20694,15,1,61543,2020-11-02 14:34:50,2020-11-02 14:35:20,3,D7:F2:3B:06:4D:C8,15,15,20506.9832871218,-40698.21407222671,1257.4087612686726
16669,-13824,16892,19460,-1786,-21750,-19733,-16397,1285,-16174,15,1,61569,2020-11-02 14:34:50,2020-11-02 14:35:20,3,D7:F2:3B:06:4D:C8,15,15,15450.812424059877,8131.765327278015,-23458.069573146808
16670,-19201,-26368,6162,22540,5646,-17688,23540,-8444,-8754,15,1,61595,2020-11-02 14:34:50,2020-11-02 14:35:20,3,D7:F2:3B:06:4D:C8,15,15,5580.361388011552,31839.545364560236,-7551.356617012665
16671,14845,-12290,-22769,14103,20759,-31772,9206,-19707,-10551,15,1,61620,2020-11-02 14:34:50,2020-11-02 14:35:20,3,D7:F2:3B:06:4D:C8,15,15,4320.505315218958,16441.828130332902,24512.140003552493
16672,-11796,-29190,13045,30745,1046,-4633,-27912,-28921,31940,15,1,61646,2020-11-02 14:34:50,2020-11-02 14:35:20,3,D7:F2:3B:06:4D:C8,15,15,-448.3639915181702,33974.62316427762,2626.345669640706
16673,25564,-20736,26379,23823,17671,-19463,15098,-1272,-26687,15,-1,61671,2020-11-02 14:34:50,2020-11-02 14:35:20,3,D7:F2:3B:06:4D:C8,15,15,-5087.426663346043,29384.992983993714,-29832.728843934405
16674,22500,-17159,-19196,-31730,253,3592,-7428,21513,9922,15,-1,61697,2020-11-02 14:34:50,2020-11-02 14:35:20,3,D7:F2:3B:06:4D:C8,15,15,9668.462421923101,-31997.260621036825,-7201.655653063895
16675,-17948,-6920,10256,15885,-32768,-17393,-26113,25097,18116,15,-1,61723,2020-11-02 14:34:50,2020-11-02 14:35:20,3,D7:F2:3B:06:4D:C8,15,15,-20103.589969865705,6136.987234695874,-5778.035825840364
16676,26604,-18186,1808,13577,24575,-16623,26370,24073,7623,15,-1,61748,2020-11-02 14:34:50,2020-11-02 14:35:20,3,D7:F2:3B:06:4D:C8,15,15,-25694.262799728822,-15483.026318047812,11910.207018062727
16677,-3603,-11273,-16628,-19962,30976,27154,-21244,-2040,3530,15,-1,61774,2020-11-02 14:34:50,2020-11-02 14:35:20,3,D7:F2:3B:06:4D:C8,15,15,-3603.0,8813.64192015735,18052.44108433109
16678,-3856,31985,17413,21760,255,18199,24838,18440,24269,15,-1,61799,2020-11-02 14:34:50,2020-11-02 14:35:20,3,D7:F2:3B:06:4D:C8,15,15,-5061.5062617003405,5963.5383399045,35776.23365911031
16679,4604,-2077,-17409,-9995,17910,12320,-20986,16646,28625,15,-1,61825,2020-11-02 14:34:50,2020-11-02 14:35:20,3,D7:F2:3B:06:4D:C8,15,15,-9468.602667273208,-10350.163460415997,-11480.579509413983
16680,-12286,728,2047,5353,17902,-1242,-15868,-23294,19670,15,-1,61850,2020-11-02 14:34:50,2020-11-02 14:35:20,3,D7:F2:3B:06:4D:C8,15,15,-7036.018424552226,-571.1699440807779,10287.574963242812
16681,30219,9674,-30464,22237,-17941,-25814,3328,-7170,11484,15,-1,61876,2020-11-02 14:34:50,2020-11-02 14:35:20,3,D7:F2:3B:06:4D:C8,15,15,-26258.8833218074,34130.10454117991,8968.642243942817
16682,-219,24775,-1521,3031,-31764,-10200,-4360,-17156,7139,15,-1,61902,2020-11-02 14:34:50,2020-11-02 14:35:20,3,D7:F2:3B:06:4D:C8,15,15,-20050.942122654516,14626.467257114431,433.8232019133793
16683,25129,-3361,-19178,-30749,32254,-9713,-17166,-14852,-21785,15,-1,61927,2020-11-02 14:34:50,2020-11-02 14:35:20,3,D7:F2:3B:06:4D:C8,15,15,18024.652646845374,18771.329807691738,18256.717125798754
16684,-28398,13292,24073,-27408,-5351,-9997,-13841,20478,-12059,15,-1,61953,2020-11-02 14:34:50,2020-11-02 14:35:20,3,D7:F2:3B:06:4D:C8,15,15,4473.010695509105,-29534.757949812025,25890.60148323859
16685,31487,29171,-29433,-7948,-5095,14578,2030,-20481,17633,15,-1,61978,2020-11-02 14:34:50,2020-11-02 14:35:20,3,D7:F2:3B:06:4D:C8,15,15,22631.310973521155,-32691.89503771649,33581.89484622195
16686,-32245,28159,6684,-4100,-5352,-10251,-6164,5633,18141,15,-1,62004,2020-11-02 14:34:50,2020-11-02 14:35:20,3,D7:F2:3B:06:4D:C8,15,15,28981.541411391514,-25180.63534477566,-20083.60084878291
16687,-14570,-1791,15128,3855,28708,-31250,-9491,-25854,18904,15,-1,62055,2020-11-02 14:34:50,2020-11-02 14:35:20,3,D7:F2:3B:06:4D:C8,15,15,-18341.25666138151,-9266.507950296356,4698.8402280161345
16688,-18671,-772,-19697,11548,9517,26086,23280,-16892,15057,15,-1,62057,2020-11-02 14:34:50,2020-11-02 14:35:20,3,D7:F2:3B:06:4D:C8,15,15,14955.334873783664,1930.2762539075356,-22578.44162905383
16689,6412,24309,3852,11813,31275,1766,31987,-10745,-22583,15,-1,62081,2020-11-02 14:34:50,2020-11-02 14:35:20,3,D7:F2:3B:06:4D:C8,15,15,-20443.940193815306,-13610.577275711215,-6608.829289185539
16690,3836,-8979,17163,45,6947,-22809,6135,12043,-4414,15,-1,62106,2020-11-02 14:34:50,2020-11-02 14:35:20,3,D7:F2:3B:06:4D:C8,15,15,-34.49317538283685,-19293.540916647955,-4202.85559096232
16691,22758,2796,-29709,4654,-28391,-5139,12795,27918,-28483,15,-1,62132,2020-11-02 14:34:50,2020-11-02 14:35:20,3,D7:F2:3B:06:4D:C8,15,15,-2467.0330709813043,-36692.33990651449,7480.294179475093
16692,-7458,17649,17108,-6113,-7150,25338,22015,-22255,-10310,15,-1,62157,2020-11-02 14:34:50,2020-11-02 14:35:20,3,D7:F2:3B:06:4D:C8,15,15,-11643.31419880947,-18673.15296550252,13249.121548040319
16693,30427,-14094,28635,-26366,15375,261,-23807,-26860,4539,15,-1,62183,2020-11-02 14:34:50,2020-11-02 14:35:20,3,D7:F2:3B:06:4D:C8,15,15,-42125.88988629669,-12458.586260690776,-3820.918694834183
16694,19931,27887,30457,4850,-5882,-15599,10755,18198,-27458,15,1,62209,2020-11-02 14:34:50,2020-11-02 14:35:20,3,D7:F2:3B:06:4D:C8,15,15,17207.691068156877,-3765.8933396573375,-42335.23112559088
16695,-23066,19951,31235,15085,20735,-6371,20486,-4587,-31291,15,1,62234,2020-11-02 14:34:50,2020-11-02 14:35:20,3,D7:F2:3B:06:4D:C8,15,15,16623.914142365327,-28971.605527804375,-28106.930350512503
16696,19442,19436,21770,-29718,3836,-17631,9737,-9709,973,15,1,62260,2020-11-02 14:34:50,2020-11-02 14:35:20,3,D7:F2:3B:06:4D:C8,15,15,-13155.260017874301,-7817.507722414743,31551.672964711455
16697,26622,30435,-30704,8168,-15368,14114,6154,-6640,14547,15,1,62285,2020-11-02 14:34:50,2020-11-02 14:35:20,3,D7:F2:3B:06:4D:C8,15,15,-41272.65273937417,-11417.866111586727,27275.56038494736
16698,7178,-3874,-12788,28899,26355,-18398,6665,18445,21720,15,1,62311,2020-11-02 14:34:50,2020-11-02 14:35:20,3,D7:F2:3B:06:4D:C8,15,15,7232.601658922987,-9786.200055515521,9054.516316003439
16699,3349,18907,275,-12065,31978,14116,15110,-15352,-4900,15,1,62337,2020-11-02 14:34:50,2020-11-02 14:35:20,3,D7:F2:3B:06:4D:C8,15,15,-16922.3353823257,-8118.145030973884,-4061.571304823039
16700,26139,19160,8968,21213,-20505,3615,15618,-7165,25569,15,1,62362,2020-11-02 14:34:50,2020-11-02 14:35:20,3,D7:F2:3B:06:4D:C8,15,15,-13907.18211256294,8571.892094844832,29392.020968323122
16701,-11493,-1833,-237,-23593,3312,6930,29180,-17920,741,15,1,62388,2020-11-02 14:34:50,2020-11-02 14:35:20,3,D7:F2:3B:06:4D:C8,15,15,11139.423175865084,-747.2178390492575,-3295.4550232109636
16702,7703,7394,-9171,-17184,16638,7170,-19722,-19201,-25882,15,1,62413,2020-11-02 14:34:50,2020-11-02 14:35:20,3,D7:F2:3B:06:4D:C8,15,15,12245.127069570824,-998.9030520491553,-6868.314330508666
16703,13825,9967,17961,-31752,10770,-14604,7924,30464,-1564,15,1,62439,2020-11-02 14:34:50,2020-11-02 14:35:20,3,D7:F2:3B:06:4D:C8,15,15,-13426.567584755112,-9728.467275546882,18388.948919408547
16704,21766,7156,-17127,-19709,25886,7150,-7949,-18174,-2848,15,1,62465,2020-11-02 14:34:50,2020-11-02 14:35:20,3,D7:F2:3B:06:4D:C8,15,15,-19392.522840668684,-10545.470256012435,18194.074198862123
16705,-30194,-18952,16670,-30191,-30419,2533,28916,-1787,-12326,15,1,62490,2020-11-02 14:34:50,2020-11-02 14:35:20,3,D7:F2:3B:06:4D:C8,15,15,22212.14851873663,23040.2990737032,22902.18148508778
16706,16145,22004,15119,-32479,-9416,-2853,30709,-23798,-4143,15,1,62516,2020-11-02 14:34:50,2020-11-02 14:35:20,3,D7:F2:3B:06:4D:C8,15,15,-23276.04714878927,20739.67883756482,-1229.8588707672307
16707,1545,-28430,-19446,-3285,13624,-15654,29429,-19185,2247,15,-1,62541,2020-11-02 14:34:50,2020-11-02 14:35:20,3,D7:F2:3B:06:4D:C8,15,15,-4598.351357282837,-26711.75737781891,-21310.467465156922
16708,27638,15084,30975,31544,-16594,28643,-9996,11028,19131,15,-1,62567,2020-11-02 14:34:50,2020-11-02 14:35:20,3,D7:F2:3B:06:4D:C8,15,15,-22979.89983592512,-31284.641239638448,-21072.070402263802
16709,28647,17892,-22308,23604,-8673,4342,24821,4376,24382,15,-1,62592,2020-11-02 14:34:50,2020-11-02 14:35:20,3,D7:F2:3B:06:4D:C8,15,15,-40352.63505827394,-3000.4625027008733,1040.7716481760035
16710,-29204,-7447,19655,22036,21263,26374,21239,25371,-19398,15,-1,62618,2020-11-02 14:34:50,2020-11-02 14:35:20,3,D7:F2:3B:06:4D:C8,15,15,-33615.098422259776,-9436.96377106981,-8695.937145891978
16711,15865,26607,-29213,-18188,-24312,32270,3835,-13539,-25026,15,-1,62644,2020-11-02 14:34:50,2020-11-02 14:35:20,3,D7:F2:3B:06:4D:C8,15,15,-33183.713314086155,-2284.8581591654583,26582.90121264111
16712,26860,-31759,-14604,6895,4870,-27371,-13308,-3554,31934,15,-1,62669,2020-11-02 14:34:50,2020-11-02 14:35:20,3,D7:F2:3B:06:4D:C8,15,15,7558.7806924926645,-25774.568860521078,34955.785379491295
16713,21238,-19471,-17928,-30490,23555,30238,-15085,31773,9681,15,-1,62695,2020-11-02 14:34:50,2020-11-02 14:35:20,3,D7:F2:3B:06:4D:C8,15,15,-2884.226964645124,-19666.920541820007,27504.16587024868
16714,6398,-23820,-15099,-28446,-12031,-9187,29207,-16103,-23079,15,-1,62720,2020-11-02 14:34:50,2020-11-02 14:35:20,3,D7:F2:3B:06:4D:C8,15,15,28841.91005339536,-905.6901927712406,-1905.4014659828008
16715,-12554,22002,17427,-32028,-20984,-29929,-8169,-18410,8927,15,-1,62746,2020-11-02 14:34:50,2020-11-02 14:35:20,3,D7:F2:3B:06:4D:C8,15,15,-14933.987338961146,25884.637175964384,7235.525511559661
16716,21753,4593,6414,15587,-23035,-25327,20759,-16108,-25373,15,-1,62771,2020-11-02 14:34:50,2020-11-02 14:35:20,3,D7:F2:3B:06:4D:C8,15,15,6654.482787072965,636.5090655847916,22152.669569286183
16717,12795,31465,-17907,1241,28665,18960,19731,-29678,22501,15,-1,62797,2020-11-02 14:34:50,2020-11-02 14:35:20,3,D7:F2:3B:06:4D:C8,15,15,-20598.676114510065,31848.68912519901,-5981.17399311728
16718,-29181,22240,-31719,6350,-19984,-17142,16396,-11249,-25115,15,-1,62848,2020-11-02 14:34:50,2020-11-02 14:35:20,3,D7:F2:3B:06:4D:C8,15,15,13865.433010657463,-46019.40993155097,-6496.691387070691
16719,-5118,-24349,-22240,30159,7157,12801,18436,24589,25829,15,-1,62850,2020-11-02 14:34:50,2020-11-02 14:35:20,3,D7:F2:3B:06:4D:C8,15,15,27623.320071371407,-9697.08648253572,-16018.864722095397
16720,-15625,-21525,-4829,32223,-7166,-2059,18429,-17908,5348,15,-1,62874,2020-11-02 14:34:50,2020-11-02 14:35:20,3,D7:F2:3B:06:4D:C8,15,15,15222.651328906088,21991.057008245687,-3930.621983686794
16721,-8968,11508,-10973,5874,-9457,242,27896,-10995,12769,15,-1,62900,2020-11-02 14:34:50,2020-11-02 14:35:20,3,D7:F2:3B:06:4D:C8,15,15,15869.26110016519,3356.1381782822564,-8376.676289738085
16722,-17914,25343,-8667,-29949,27410,23277,22773,9487,2269,15,-1,62925,2020-11-02 14:34:50,2020-11-02 14:35:20,3,D7:F2:3B:06:4D:C8,15,15,550.509007710285,-23866.29273149022,21642.387693765377
16723,8710,-19458,12568,-30186,-4076,17895,4084,-4593,18903,15,-1,62951,2020-11-02 14:34:50,2020-11-02 14:35:20,3,D7:F2:3B:06:4D:C8,15,15,-5876.921528560983,20492.42926905291,12568.0
16724,-29948,27898,-12803,284,-19172,20708,17139,3345,-9777,15,-1,62976,2020-11-02 14:34:50,2020-11-02 14:35:20,3,D7:F2:3B:06:4D:C8,15,15,-16153.987052794662,25217.70082334494,30695.50756189593
16725,-15106,19706,-8449,25881,28698,-2075,17137,14098,30151,15,-1,63002,2020-11-02 14:34:50,2020-11-02 14:35:20,3,D7:F2:3B:06:4D:C8,15,15,6815.235834433174,-24864.895789411592,4815.889419698058
16726,-5393,-13060,21257,-3044,10255,30700,26096,21522,-17472,15,-1,63027,2020-11-02 14:34:50,2020-11-02 14:35:20,3,D7:F2:3B:06:4D:C8,15,15,-1250.3485435662014,-25051.084339474928,4731.585351244945
16727,-32532,-20740,-22793,31517,-10485,5877,-6415,26386,-28228,15,-1,63053,2020-11-02 14:34:50,2020-11-02 14:35:20,3,D7:F2:3B:06:4D:C8,15,15,11637.704930709364,33011.98567608421,-27978.06459831977
16728,-2328,25346,-30483,25109,31751,7676,-7181,14611,3770,15,-1,63079,2020-11-02 14:34:50,2020-11-02 14:35:20,3,D7:F2:3B:06:4D:C8,15,15,-33400.796813996654,-11956.057785365238,17846.345380024402
16729,-21017,12800,-6165,21509,20218,20996,-13323,-31213,9658,15,-1,63104,2020-11-02 14:34:50,2020-11-02 14:35:20,3,D7:F2:3B:06:4D:C8,15,15,1277.202313779604,-18244.91464934537,17579.91347213572
16730,-5917,23292,20736,-6142,6905,29967,23544,27155,3005,15,-1,63130,2020-11-02 14:34:50,2020-11-02 14:35:20,3,D7:F2:3B:06:4D:C8,15,15,27465.768999376327,468.3893255499497,15903.521424911189
16731,17384,21491,-10238,6661,27387,28952,2301,32019,20418,15,-1,63155,2020-11-02 14:34:50,2020-11-02 14:35:20,3,D7:F2:3B:06:4D:C8,15,15,-17633.86308273259,-19194.59911554003,13765.806135971487
16732,-22288,-2062,13820,-26112,27137,24853,-29183,29459,-20793,15,-1,63181,2020-11-02 14:34:50,2020-11-02 14:35:20,3,D7:F2:3B:06:4D:C8,15,15,6150.738729972732,14853.887531384567,-20821.374264937258
16733,2546,-21772,7429,25335,-17663,18450,4868,30739,7628,15,-1,63206,2020-11-02 14:34:50,2020-11-02 14:35:20,3,D7:F2:3B:06:4D:C8,15,15,14861.682989902849,-17150.25991550205,4548.747579098658
16734,-8205,-18195,29451,-19469,25595,-1259,-23291,-26094,-32560,15,-1,63232,2020-11-02 14:34:50,2020-11-02 14:35:20,3,D7:F2:3B:06:4D:C8,15,15,4401.149018445691,-21769.47190694017,27793.19037480903
16735,28925,-30738,-18680,-8468,17137,-5352,6406,3600,-17196,15,1,63258,2020-11-02 14:34:50,2020-11-02 14:35:20,3,D7:F2:3B:06:4D:C8,15,15,-28761.007601148413,-3201.6599659136937,-35957.98220464197
16736,4098,-24602,-14062,16871,5868,11032,-24316,24844,23768,15,1,63283,2020-11-02 14:34:50,2020-11-02 14:35:20,3,D7:F2:3B:06:4D:C8,15,15,17311.479362328446,-20839.683637740392,9263.48315519447
16737,-11255,1508,20246,20709,30190,24339,-7679,-6904,28635,15,1,63309,2020-11-02 14:34:50,2020-11-02 14:35:20,3,D7:F2:3B:06:4D:C8,15,15,22803.43092866609,-907.9932677828169,-4246.020620206161
16738,-30706,22501,21016,9189,14585,30217,22526,-1530,-29475,15,1,63334,2020-11-02 14:34:50,2020-11-02 14:35:20,3,D7:F2:3B:06:4D:C8,15,15,15494.651190481323,-36604.81598717799,-17630.34100719989
16739,32013,14825,4643,-24599,-8440,-11781,28154,11271,-22051,15,1,63360,2020-11-02 14:34:50,2020-11-02 14:35:20,3,D7:F2:3B:06:4D:C8,15,15,-6120.538237401313,5366.4066206955395,-34639.730580157
16740,-21237,-14096,-24537,19702,-14313,30189,-10,-1016,-20262,15,1,63386,2020-11-02 14:34:50,2020-11-02 14:35:20,3,D7:F2:3B:06:4D:C8,15,15,19035.24301669177,16951.89984324728,-24537.0
16741,-4087,-19720,18211,11016,-1248,26851,-30476,7947,-22316,15,1,63411,2020-11-02 14:34:50,2020-11-02 14:35:20,3,D7:F2:3B:06:4D:C8,15,15,10381.960122329805,24769.77415846265,-3986.9389457464204
16742,-18682,-15110,24855,29464,-14043,-547,9459,8973,28108,15,1,63437,2020-11-02 14:34:50,2020-11-02 14:35:20,3,D7:F2:3B:06:4D:C8,15,15,-15802.06215868337,26191.166791693453,16106.454067323486
16743,-24836,28156,20494,8994,18211,11745,-30990,-2546,27331,15,1,63462,2020-11-02 14:34:50,2020-11-02 14:35:20,3,D7:F2:3B:06:4D:C8,15,15,7405.487934897674,26420.96210826569,32812.84470629868
16744,18669,22775,-7683,29224,-13800,-10263,-27661,28688,-5957,15,1,63488,2020-11-02 14:34:50,2020-11-02 14:35:20,3,D7:F2:3B:06:4D:C8,15,15,-16304.869268197262,8602.322174227977,24215.944465533074
16745,-16665,-8715,3565,7462,-7662,7669,6134,15634,-30653,15,1,63514,2020-11-02 14:34:50,2020-11-02 14:35:20,3,D7:F2:3B:06:4D:C8,15,15,7964.457415405013,-251.23936139708303,17403.64823424919
16746,-15639,-14095,-8980,30750,1811,11773,-20744,-22764,29248,15,1,63565,2020-11-02 14:34:50,2020-11-02 14:35:20,3,D7:F2:3B:06:4D:C8,15,15,16121.869815806673,-9775.591863265032,-12977.321116665335
16747,-27889,-13070,-3375,-14573,14868,-23296,-7942,-17385,-19138,15,1,63567,2020-11-02 14:34:50,2020-11-02 14:35:20,3,D7:F2:3B:06:4D:C8,15,15,-27449.17525221098,6089.023805023255,-13018.387499044129
16748,-1045,-1032,11251,-12533,-28385,22528,25337,-7653,-2502,15,1,63590,2020-11-02 14:34:50,2020-11-02 14:35:20,3,D7:F2:3B:06:4D:C8,15,15,4966.477386881208,9189.345091440748,-4430.8113428593915
16749,19697,30964,26356,-7175,23056,-26615,28920,-15073,-20423,15,1,63616,2020-11-02 14:34:50,2020-11-02 14:35:20,3,D7:F2:3B:06:4D:C8,15,15,-7077.828669571962,-35409.91214880849,27155.520689868008
16750,-24332,-11279,28401,16373,-3826,19471,-24304,-991,-28986,15,1,63641,2020-11-02 14:34:50,2020-11-02 14:35:20,3,D7:F2:3B:06:4D:C8,15,15,6639.382065337633,-27338.28136323719,-27100.107820725563
16751,-27915,30958,4601,6379,-16886,29451,-7126,17184,32739,15,1,63667,2020-11-02 14:34:50,2020-11-02 14:35:20,3,D7:F2:3B:06:4D:C8,15,15,16969.402040454523,15250.23589588671,35189.258155141986
16752,-32270,9453,-12033,-1821,-1279,23817,18729,-21730,-15643,15,1,63693,2020-11-02 14:34:50,2020-11-02 14:35:20,3,D7:F2:3B:06:4D:C8,15,15,-19482.232357174627,-24161.764201420894,-17667.964541961064
16753,-27152,23275,4362,-549,-17929,27402,3105,23837,30178,15,1,63718,2020-11-02 14:34:50,2020-11-02 14:35:20,3,D7:F2:3B:06:4D:C8,15,15,26416.905022111307,-7250.918848468607,-23399.89482680794
16754,-25354,-11792,-27367,-31525,8688,9228,-25066,4123,32477,15,1,63744,2020-11-02 14:34:50,2020-11-02 14:35:20,3,D7:F2:3B:06:4D:C8,15,15,20059.870006023782,32374.012616295986,8964.049947503378
16755,-27906,-2828,547,7902,3826,-9723,-4082,28696,1755,15,1,63769,2020-11-02 14:34:50,2020-11-02 14:35:20,3,D7:F2:3B:06:4D:C8,15,15,-8440.408525777528,-2828.0,-26604.577593301157
16756,-24574,8443,30509,-27415,-13315,4856,-19704,26903,-9256,15,1,63795,2020-11-02 14:34:50,2020-11-02 14:35:20,3,D7:F2:3B:06:4D:C8,15,15,18105.681206115787,-35699.42513392582,1923.579779923617
16757,-7433,8186,25632,7928,-23292,-5908,-29438,7960,10964,15,1,63820,2020-11-02 14:34:50,2020-11-02 14:35:20,3,D7:F2:3B:06:4D:C8,15,15,23433.357498308207,-4698.476980267094,14424.33982622369
16758,-6416,4857,-15596,-3331,9478,-13591,30715,-16616,-3892,15,1,63846,2020-11-02 14:34:50,2020-11-02 14:35:20,3,D7:F2:3B:06:4D:C8,15,15,10927.774179911636,-13577.635752851418,-2054.8186868304233
16759,-17678,13306,-29432,26114,20743,21225,-27404,26392,5061,15,-1,63872,2020-11-02 14:34:50,2020-11-02 14:35:20,3,D7:F2:3B:06:4D:C8,15,15,-10625.29575261146,13576.829022691722,-32535.776429311358
16760,24306,3837,-7676,-7933,11784,-4375,-16914,19735,-11075,15,-1,63897,2020-11-02 14:34:50,2020-11-02 14:35:20,3,D7:F2:3B:06:4D:C8,15,15,-20240.523105103464,15649.184462663723,-3138.3803283377347
16761,-11794,258,14855,6150,26630,2031,5099,-10987,13893,15,-1,63923,2020-11-02 14:34:50,2020-11-02 14:35:20,3,D7:F2:3B:06:4D:C8,15,15,7619.081198423368,-17267.969614105783,-1898.1180411531159
16762,-13073,-17148,28168,-23542,2051,26870,17386,-19948,-29630,15,-1,63948,2020-11-02 14:34:50,2020-11-02 14:35:20,3,D7:F2:3B:06:4D:C8,15,15,-7582.91642115937,20199.662166198264,28157.8849333747
16763,-22541,-6395,-28921,12560,9991,-25863,-7958,18708,-27840,15,-1,63974,2020-11-02 14:34:50,2020-11-02 14:35:20,3,D7:F2:3B:06:4D:C8,15,15,7391.290009997114,33959.895218157835,13323.336510043464
16764,-13835,-6396,25348,10004,-2037,-27655,27371,-32748,-26051,15,-1,64000,2020-11-02 14:34:50,2020-11-02 14:35:20,3,D7:F2:3B:06:4D:C8,15,15,-7765.7528852649475,-26753.099900969697,9939.913119023442
16765,26867,8706,10750,18198,5644,21756,12268,7445,26938,15,-1,64025,2020-11-02 14:34:50,2020-11-02 14:35:20,3,D7:F2:3B:06:4D:C8,15,15,-21521.665732447476,-4420.954385397183,-20747.667132066523
16766,30446,-9219,-5899,18196,-29176,16129,-29203,7958,7736,15,-1,64051,2020-11-02 14:34:50,2020-11-02 14:35:20,3,D7:F2:3B:06:4D:C8,15,15,1548.5522683924682,8041.191687646429,-31299.97284526909
16767,32235,27131,12778,14350,4868,-5370,-5649,21527,-8393,15,-1,64076,2020-11-02 14:34:50,2020-11-02 14:35:20,3,D7:F2:3B:06:4D:C8,15,15,6561.891708972135,39994.940400499036,-17199.12758137031
16768,-11032,4858,-6681,8707,29441,6412,-25358,-17640,-22727,15,-1,64102,2020-11-02 14:34:50,2020-11-02 14:35:20,3,D7:F2:3B:06:4D:C8,15,15,-9423.1364413231,-3243.044631722455,-9519.879732689104
16769,30949,-27658,20208,5882,-15364,8467,-13066,-7655,-14530,15,-1,64127,2020-11-02 14:34:50,2020-11-02 14:35:20,3,D7:F2:3B:06:4D:C8,15,15,26077.39218127911,-14833.144110789675,35087.26666202868
16770,29925,-17424,16376,-9485,-11269,12824,16381,21786,-12102,15,-1,64153,2020-11-02 14:34:50,2020-11-02 14:35:20,3,D7:F2:3B:06:4D:C8,15,15,6712.450997940185,33025.1858114595,18208.648514341356
16771,-791,12524,30972,-22289,-27651,-17129,31491,-9959,3780,15,-1,64179,2020-11-02 14:34:50,2020-11-02 14:35:20,3,D7:F2:3B:06:4D:C8,15,15,2285.5085276808195,33252.387845608166,-2407.5286779492935
16772,-12572,-17179,-30206,4843,-20483,-20714,17159,-11240,-32053,15,-1,64204,2020-11-02 14:34:50,2020-11-02 14:35:20,3,D7:F2:3B:06:4D:C8,15,15,-34392.02607718252,5766.986236852446,-12227.26760361252
16773,-10764,21228,-15101,-9242,-4872,25877,-18680,-1770,20177,15,-1,64230,2020-11-02 14:34:50,2020-11-02 14:35:20,3,D7:F2:3B:06:4D:C8,15,15,13922.729581937005,21395.958374901562,11954.181160068465
16774,-27395,31473,-22005,-26653,24046,16147,29191,9748,-5676,15,-1,64255,2020-11-02 14:34:50,2020-11-02 14:35:20,3,D7:F2:3B:06:4D:C8,15,15,-45449.8146605432,-12173.428700878241,3373.0935336729494
16775,27905,-32540,-19459,-25628,-25105,17426,14597,-26608,-22313,15,-1,64281,2020-11-02 14:34:50,2020-11-02 14:35:20,3,D7:F2:3B:06:4D:C8,15,15,38566.81310280906,-26053.61939863569,-7071.290499196685
16776,-11757,8927,-18150,20188,-8974,-7409,-22783,-2035,30426,15,-1,64307,2020-11-02 14:34:50,2020-11-02 14:35:20,3,D7:F2:3B:06:4D:C8,15,15,-14265.785647783196,8040.609951717473,16708.58550134765
16777,-25315,-16155,-12256,22497,-24067,-18691,-5380,30988,32475,15,-1,64332,2020-11-02 14:34:50,2020-11-02 14:35:20,3,D7:F2:3B:06:4D:C8,15,15,-14194.612410367748,-8966.44572525672,-27751.73175813465
16778,-21505,-28947,-10973,-21261,-29680,6125,10488,5133,-28200,15,1,64358,2020-11-02 14:34:50,2020-11-02 14:35:20,3,D7:F2:3B:06:4D:C8,15,15,18905.189706212084,-12087.358860512224,-30286.797799525277
16779,31231,-4365,3861,-22268,-4328,-20247,-14860,-20722,10451,15,1,64383,2020-11-02 14:34:50,2020-11-02 14:35:20,3,D7:F2:3B:06:4D:C8,15,15,-21368.185474204947,-23419.166697250494,2068.6197684373815
16780,5887,-30724,-14572,-23799,-14568,-5143,-4879,-1777,-12596,15,1,64409,2020-11-02 14:34:50,2020-11-02 14:35:20,3,D7:F2:3B:06:4D:C8,15,15,-30387.11056854527,7432.661454351614,-14572.0
16781,7422,-29183,15636,-32750,15642,15082,-18193,-12016,5318,15,1,64435,2020-11-02 14:34:50,2020-11-02 14:35:20,3,D7:F2:3B:06:4D:C8,15,15,7242.084000803365,31097.503474314883,11476.740216206064
16782,-15365,5634,-28654,30236,-484,19691,31982,-23279,-12610,15,1,64460,2020-11-02 14:34:50,2020-11-02 14:35:20,3,D7:F2:3B:06:4D:C8,15,15,-23449.692634567185,10948.342846087067,20472.48400338512
16783,30195,10494,-28920,28194,-10729,-14865,32750,32530,-31932,15,1,64486,2020-11-02 14:34:50,2020-11-02 14:35:20,3,D7:F2:3B:06:4D:C8,15,15,31136.783535803665,17987.870008384656,23773.214015062447
16784,2284,-15623,7676,-14556,20243,-24584,12272,-19693,27199,15,1,64511,2020-11-02 14:34:50,2020-11-02 14:35:20,3,D7:F2:3B:06:4D:C8,15,15,-489.0423635951047,165.5283344078416,17548.481385496507
16785,4586,6901,-12057,26653,7438,19966,-26638,28437,3900,15,1,64537,2020-11-02 14:34:50,2020-11-02 14:35:20,3,D7:F2:3B:06:4D:C8,15,15,-12914.503701706202,4613.973058347905,-5094.437432676594
16786,224,20211,-20515,-10742,-28153,-32250,-30220,6423,5179,15,1,64562,2020-11-02 14:34:50,2020-11-02 14:35:20,3,D7:F2:3B:06:4D:C8,15,15,11532.627036051375,25405.42792511155,7138.8141584789155
16787,2015,7666,-18190,-15366,-11260,20242,-9482,2329,-14019,15,1,64588,2020-11-02 14:34:50,2020-11-02 14:35:20,3,D7:F2:3B:06:4D:C8,15,15,-10990.295828432136,2813.79531739265,-16278.815513278798
16788,12262,-1046,4339,13301,-10750,-23778,-12547,-17126,10170,15,1,64614,2020-11-02 14:34:50,2020-11-02 14:35:20,3,D7:F2:3B:06:4D:C8,15,15,-6023.478998308104,-1273.086698280586,11505.417507226855
16789,-523,-12312,27646,6126,16639,-12769,25095,21786,3015,15,1,64639,2020-11-02 14:34:50,2020-11-02 14:35:20,3,D7:F2:3B:06:4D:C8,15,15,-717.4403103745835,28970.22204535577,8739.09051582783
16790,-30462,-27920,-8443,15341,11519,-4074,6924,28184,30671,15,1,64665,2020-11-02 14:34:50,2020-11-02 14:35:20,3,D7:F2:3B:06:4D:C8,15,15,4018.0728858537304,-41717.68071021373,-4715.326016791178
16791,12032,25335,-14582,-5651,27651,4620,8205,21015,-9005,15,-1,64690,2020-11-02 14:34:50,2020-11-02 14:35:20,3,D7:F2:3B:06:4D:C8,15,15,16432.556699813853,22452.928700798027,-15003.434475622016
16792,24063,6137,277,-20243,5377,10246,19468,-2538,14038,15,-1,64716,2020-11-02 14:34:50,2020-11-02 14:35:20,3,D7:F2:3B:06:4D:C8,15,15,-4453.683817470937,24425.026304001625,591.8255679050817
16793,7933,1269,22295,20207,32762,29442,-4855,10518,-25898,15,-1,64741,2020-11-02 14:34:50,2020-11-02 14:35:20,3,D7:F2:3B:06:4D:C8,15,15,-16024.785187326248,16612.41243691073,5370.650586849134
16794,-30466,3567,-31725,-18452,24054,511,29190,-4844,-17195,15,-1,64767,2020-11-02 14:34:50,2020-11-02 14:35:20,3,D7:F2:3B:06:4D:C8,15,15,26010.764965098453,33415.09059235819,-12419.665721544268
16795,28171,-28438,-5091,-24857,16881,-22533,-14591,-2030,21460,15,-1,64818,2020-11-02 14:34:50,2020-11-02 14:35:20,3,D7:F2:3B:06:4D:C8,15,15,-28905.869523692127,-3157.553222202655,27977.203768930238
16796,25869,-23061,-17112,-12310,-15119,5107,-16388,26384,24018,15,-1,64820,2020-11-02 14:34:50,2020-11-02 14:35:20,3,D7:F2:3B:06:4D:C8,15,15,20435.354776454187,32783.403943021105,1216.604730041373
16797,-3071,-11534,-13275,31987,-517,7912,14584,3598,3023,15,-1,64844,2020-11-02 14:34:50,2020-11-02 14:35:20,3,D7:F2:3B:06:4D:C8,15,15,-3071.0,16870.760953845667,-4963.487265844098
16798,30974,-30208,20771,-28416,22538,3553,-30732,-17908,-5431,15,-1,64869,2020-11-02 14:34:50,2020-11-02 14:35:20,3,D7:F2:3B:06:4D:C8,15,15,-27407.64992514847,-28486.683407501187,27215.36284934128
16799,-2321,4362,-1254,11790,-16369,30175,-18958,-15093,-21053,15,-1,64895,2020-11-02 14:34:50,2020-11-02 14:35:20,3,D7:F2:3B:06:4D:C8,15,15,-1027.1689265004356,4394.333985389189,-2370.9394385528913
16800,-26911,-24311,1537,13080,8972,-12054,30195,-32757,26814,15,-1,64921,2020-11-02 14:34:50,2020-11-02 14:35:20,3,D7:F2:3B:06:4D:C8,15,15,-13999.262910280027,-7913.230018979529,32542.1332987802
16801,480,-18685,-32007,26649,26374,12025,8182,-15349,-5189,15,-1,64946,2020-11-02 14:34:50,2020-11-02 14:35:20,3,D7:F2:3B:06:4D:C8,15,15,29821.92366487939,16837.413225600154,14176.108732529246
16802,13034,19706,-18191,1046,11020,258,22777,22797,6587,15,-1,64972,2020-11-02 14:34:50,2020-11-02 14:35:20,3,D7:F2:3B:06:4D:C8,15,15,8869.280592873944,-17542.837950947658,-22421.16793103473
16803,19439,17916,21243,13583,-3317,29958,14588,29967,30907,15,-1,64998,2020-11-02 14:34:50,2020-11-02 14:35:20,3,D7:F2:3B:06:4D:C8,15,15,-26134.75965613812,-6030.541265432863,20754.029386165148
16804,-25871,-3842,23041,17424,29453,15878,16383,-29167,-30788,15,-1,65024,2020-11-02 14:34:50,2020-11-02 14:35:20,3,D7:F2:3B:06:4D:C8,15,15,12917.255251958064,-24556.02684925702,21097.472553230873
16805,-23826,-6403,-9988,24340,22801,-15867,18179,-2541,3006,15,-1,65049,2020-11-02 14:34:50,2020-11-02 14:35:20,3,D7:F2:3B:06:4D:C8,15,15,-23826.0,7748.428596234606,8984.45364443792
16806,-21006,-17671,17906,-3313,6931,29959,-29176,-28138,1985,15,-1,65074,2020-11-02 14:34:50,2020-11-02 14:35:20,3,D7:F2:3B:06:4D:C8,15,15,4750.298376096672,-22183.092541438826,23653.460288845992
16807,13293,29172,-10249,-9728,-241,-30711,-9971,26648,-7227,15,-1,65100,2020-11-02 14:34:50,2020-11-02 14:35:20,3,D7:F2:3B:06:4D:C8,15,15,13613.143585881042,-7991.086747475551,29725.01115734873
16808,22762,26609,30982,-7948,-19702,-16883,-10991,-13544,-28469,15,-1,65125,2020-11-02 14:34:50,2020-11-02 14:35:20,3,D7:F2:3B:06:4D:C8,15,15,-27777.87195289169,-29718.02168619988,23049.096854916173
16809,5102,-15121,-2807,9197,-5373,12819,-5869,-24553,-19504,15,-1,65151,2020-11-02 14:34:50,2020-11-02 14:35:20,3,D7:F2:3B:06:4D:C8,15,15,-6581.5463482193545,9700.207204253755,-11186.756538907248
16810,17909,9969,32527,-15643,-26115,10516,8211,17685,6868,15,-1,65176,2020-11-02 14:34:50,2020-11-02 14:35:20,3,D7:F2:3B:06:4D:C8,15,15,10899.28820266767,-23714.165419775327,-28230.530390318945
16811,-30471,-15627,-9446,13028,21248,-27888,-5360,10515,-14634,15,-1,65202,2020-11-02 14:34:50,2020-11-02 14:35:20,3,D7:F2:3B:06:4D:C8,15,15,-4050.5783249219417,28700.974038618137,20536.766796850967
16812,30717,-16644,-20446,4585,4358,-28919,-12018,15634,18649,15,1,65228,2020-11-02 14:34:50,2020-11-02 14:35:20,3,D7:F2:3B:06:4D:C8,15,15,-6982.224357108491,12778.358262692826,-37769.80068966834
16813,23045,22010,25633,11762,-17396,-24832,-31987,1811,18395,15,1,65253,2020-11-02 14:34:50,2020-11-02 14:35:20,3,D7:F2:3B:06:4D:C8,15,15,-20226.7016587326,21405.30721623447,28377.036085314554
16814,-15864,30203,-21226,-28682,6660,-29706,-28917,19220,-1574,15,1,65279,2020-11-02 14:34:50,2020-11-02 14:35:20,3,D7:F2:3B:06:4D:C8,15,15,18942.728177112367,28921.575641545598,-20473.06260964366
16815,-517,-27396,9493,-16650,-19199,9967,23559,24341,-24105,15,1,65304,2020-11-02 14:34:50,2020-11-02 14:35:20,3,D7:F2:3B:06:4D:C8,15,15,-12023.375690960498,-24466.277172665916,-9887.612062793865
16816,-19718,2566,-23274,10235,-15616,-30995,21762,-235,-7726,15,1,65330,2020-11-02 14:34:50,2020-11-02 14:35:20,3,D7:F2:3B:06:4D:C8,15,15,-10027.536988114645,16994.167239656203,23403.199306560386
16817,13823,4107,-29932,28161,-16386,-29459,5630,-7915,-6963,15,1,65356,2020-11-02 14:34:50,2020-11-02 14:35:20,3,D7:F2:3B:06:4D:C8,15,15,21099.767763683612,-25259.64115106978,-4540.675196245606
16818,23805,-2290,23823,20487,12285,-2836,3579,-3308,14281,15,1,65381,2020-11-02 14:34:50,2020-11-02 14:35:20,3,D7:F2:3B:06:4D:C8,15,15,-7824.084336573914,22598.80150127831,23823.0
16819,19962,-18422,9996,-4858,-27142,18926,6905,-30445,13765,15,1,65407,2020-11-02 14:34:50,2020-11-02 14:35:20,3,D7:F2:3B:06:4D:C8,15,15,18373.366688942187,3984.021611744154,-22007.237725594394
16820,18415,29700,-22513,2067,22017,-1040,-21512,26642,-11071,15,1,65432,2020-11-02 14:34:50,2020-11-02 14:35:20,3,D7:F2:3B:06:4D:C8,15,15,-41318.174363777434,4050.0159967875334,2107.8974524986206
16821,15854,13823,31753,2334,11272,17141,-32518,-19694,-7490,15,1,65458,2020-11-02 14:34:50,2020-11-02 14:35:20,3,D7:F2:3B:06:4D:C8,15,15,-32499.931901201195,1517.834720425979,-19802.228616465225
16822,18924,-27145,17399,13602,17930,-13064,-16131,4372,29884,15,1,65483,2020-11-02 14:34:50,2020-11-02 14:35:20,3,D7:F2:3B:06:4D:C8,15,15,31371.33750404456,-10454.5667552529,17442.3398420994
16823,-13335,-27660,19429,-21991,7431,3581,13825,28949,7611,15,1,65509,2020-11-02 14:34:50,2020-11-02 14:35:20,3,D7:F2:3B:06:4D:C8,15,15,20356.549538318028,20309.607161060347,-22215.188809852836
16824,-293,31221,26339,-4340,6924,18692,25604,5143,-19269,15,-1,65535,2020-11-02 14:34:50,2020-11-02 14:35:20,3,D7:F2:3B:06:4D:C8,15,15,223.17881390360344,510.59130328760875,-40844.4500359355
16825,32733,27122,24821,-29441,-28149,22029,-29688,-17640,-14657,15,-1,24,2020-11-02 14:34:50,2020-11-02 14:35:20,3,D7:F2:3B:06:4D:C8,15,15,779.3165142530124,40410.265443572884,-28098.706848369224
16826,6368,-8471,-19454,19955,-20727,28693,-12787,-2024,-2362,15,-1,50,2020-11-02 14:34:50,2020-11-02 14:35:20,3,D7:F2:3B:06:4D:C8,15,15,6368.0,-14164.29228907597,15798.379060828458
16827,3320,-10262,12045,11753,31749,4631,-496,-22505,-1075,15,-1,75,2020-11-02 14:34:50,2020-11-02 14:35:20,3,D7:F2:3B:06:4D:C8,15,15,-4986.565585794579,-10262.0,-11455.941194793606
16828,-760,-11279,9235,-3359,16129,-14319,-12784,-11499,-21038,15,-1,101,2020-11-02 14:34:50,2020-11-02 14:35:20,3,D7:F2:3B:06:4D:C8,15,15,7307.139124669604,-12181.807857529388,-3359.7531360143084
16829,5639,16894,31020,-21275,-14337,-32762,-10739,-29676,-20268,15,-1,126,2020-11-02 14:34:50,2020-11-02 14:35:20,3,D7:F2:3B:06:4D:C8,15,15,972.6983150222586,-35447.77362508119,-4685.633363052625
16830,-6912,24829,31262,-29201,-32253,-30471,-24310,-19436,-32300,15,-1,152,2020-11-02 14:34:50,2020-11-02 14:35:20,3,D7:F2:3B:06:4D:C8,15,15,40256.87281562669,-4530.686752304651,651.6883142632505
16831,-23056,-27912,18462,-19728,11521,27125,20742,-26603,13266,15,-1,178,2020-11-02 14:34:50,2020-11-02 14:35:20,3,D7:F2:3B:06:4D:C8,15,15,-22031.9874819162,-11999.811154596233,31970.304719391017
16832,4601,-29185,10272,-16651,5884,-31240,27906,29205,-10801,15,-1,229,2020-11-02 14:34:50,2020-11-02 14:35:20,3,D7:F2:3B:06:4D:C8,15,15,15334.133884467126,25813.762803323436,8772.764555543059
16833,10499,20483,26143,-19463,-32263,7926,26879,28948,-26419,15,-1,231,2020-11-02 14:34:50,2020-11-02 14:35:20,3,D7:F2:3B:06:4D:C8,15,15,-27214.66178531934,21723.79282252347,823.2547083115023
16834,-27388,-5628,20249,-11008,-25860,750,-31236,21267,18122,15,-1,254,2020-11-02 14:34:50,2020-11-02 14:35:20,3,D7:F2:3B:06:4D:C8,15,15,-23925.602747133384,24636.640937893146,3521.418106912458
16835,-22531,-8698,-26861,9226,20480,10728,-2311,22546,30661,15,-1,280,2020-11-02 14:34:50,2020-11-02 14:35:20,3,D7:F2:3B:06:4D:C8,15,15,-3088.7473633202217,-20221.677294219757,29771.763352781432
16836,21239,10759,-29682,-6382,-26879,-27673,-16904,23313,26048,15,-1,306,2020-11-02 14:34:50,2020-11-02 14:35:20,3,D7:F2:3B:06:4D:C8,15,15,-13469.209185563937,32546.11264756799,14394.55735503302
16837,7408,13055,523,16156,3075,25832,8953,-29168,31675,15,-1,331,2020-11-02 14:34:50,2020-11-02 14:35:20,3,D7:F2:3B:06:4D:C8,15,15,10002.989663697665,-10500.350354440381,-3907.410679972281
16838,15593,16377,28409,-19422,-22779,25836,9979,29712,-25533,15,-1,357,2020-11-02 14:34:50,2020-11-02 14:35:20,3,D7:F2:3B:06:4D:C8,15,15,26762.545137182675,-7951.0339128519245,23215.647664817334
16839,16100,-32523,27626,22556,6664,-19725,-28163,20497,8512,15,-1,382,2020-11-02 14:34:50,2020-11-02 14:35:20,3,D7:F2:3B:06:4D:C8,15,15,-12160.750298238061,-18289.562484122616,39971.98345495601
16840,18397,24568,-21785,-29168,-5622,-8196,-31233,-2030,25150,15,-1,408,2020-11-02 14:34:50,2020-11-02 14:35:20,3,D7:F2:3B:06:4D:C8,15,15,9058.81365589015,-32132.869420402945,17379.270869607604
16841,26334,8953,-22553,26372,2059,17675,-1023,-9452,-14529,15,-1,434,2020-11-02 14:34:50,2020-11-02 14:35:20,3,D7:F2:3B:06:4D:C8,15,15,-5677.638668301094,-33919.90757073341,9973.85900968699
16842,4580,15864,7670,13051,7692,21269,2566,23318,2629,15,-1,459,2020-11-02 14:34:50,2020-11-02 14:35:20,3,D7:F2:3B:06:4D:C8,15,15,-8798.362922567152,15864.0,-1547.291143513592
16843,18154,12536,-14083,-11787,27407,-3817,28427,6935,11456,15,-1,485,2020-11-02 14:34:50,2020-11-02 14:35:20,3,D7:F2:3B:06:4D:C8,15,15,21034.93533920013,-2131.8402768426113,-15428.436515399128
16844,-11283,-8,-10223,-1037,25870,23830,27664,-4330,13000,15,-1,512,2020-11-02 14:34:50,2020-11-02 14:35:20,3,D7:F2:3B:06:4D:C8,15,15,11725.674880285373,-7042.137482498918,6688.253156051169
16845,26867,28661,-1777,-8971,-25075,21268,-23788,2838,7887,15,-1,536,2020-11-02 14:34:50,2020-11-02 14:35:20,3,D7:F2:3B:06:4D:C8,15,15,29148.84446030777,13212.35351595884,22852.24103229517
16846,28150,-21516,-1784,24557,-30967,-14576,-31978,-13292,11220,15,-1,561,2020-11-02 14:34:50,2020-11-02 14:35:20,3,D7:F2:3B:06:4D:C8,15,15,7751.9537616275975,3943.1434336211432,34393.345936961094
16847,13563,-5902,20498,1508,771,-18161,15893,21011,27351,15,-1,587,2020-11-02 14:34:50,2020-11-02 14:35:20,3,D7:F2:3B:06:4D:C8,15,15,-2188.568361763826,22223.67902748612,11843.767813038216
16848,-28411,1013,13340,15330,10749,-27635,-7407,25873,10201,15,-1,613,2020-11-02 14:34:50,2020-11-02 14:35:20,3,D7:F2:3B:06:4D:C8,15,15,-2471.14741188076,17940.23497887233,-25655.5664402796
16849,-28152,13558,31007,-2333,1021,17923,-13299,6160,-13607,15,-1,638,2020-11-02 14:34:50,2020-11-02 14:35:20,3,D7:F2:3B:06:4D:C8,15,15,35672.26857434048,23751.797807755178,10056.334951643028
16850,-27137,-17160,23332,-27671,-15102,-29708,5641,27920,-24360,15,1,664,2020-11-02 14:34:50,2020-11-02 14:35:20,3,D7:F2:3B:06:4D:C8,15,15,12934.30133332459,11277.228508917653,-35788.16227716104
16851,-3841,27646,11044,-9742,14341,-16915,19972,-24559,-28715,15,1,689,2020-11-02 14:34:50,2020-11-02 14:35:20,3,D7:F2:3B:06:4D:C8,15,15,26942.184964852753,-10901.512126890235,7503.348297055616
16852,13315,-5887,11552,-14595,23555,-13335,-513,22034,6097,15,1,715,2020-11-02 14:34:50,2020-11-02 14:35:20,3,D7:F2:3B:06:4D:C8,15,15,-1287.5795582014666,-12901.038480038318,-13315.406228045478
16853,-15870,-24321,4875,-16632,-31993,-28445,28924,-18670,14795,15,1,740,2020-11-02 14:34:50,2020-11-02 14:35:20,3,D7:F2:3B:06:4D:C8,15,15,-3064.873038756903,12041.599025323158,-26697.191091379584
16854,-26630,-257,25095,-4089,17416,-20768,19704,-15086,-4925,15,1,766,2020-11-02 14:34:50,2020-11-02 14:35:20,3,D7:F2:3B:06:4D:C8,15,15,33705.42803093525,-3286.9785306360536,-13860.80327364119
16855,-18451,257,12558,19470,-18430,-10010,25589,-13807,-26947,15,1,792,2020-11-02 14:34:50,2020-11-02 14:35:20,3,D7:F2:3B:06:4D:C8,15,15,-17078.701025177725,5491.163858090323,-13280.583751333974
16856,1756,13568,-2818,3090,-9227,-16138,19702,9232,-70,15,1,817,2020-11-02 14:34:50,2020-11-02 14:35:20,3,D7:F2:3B:06:4D:C8,15,15,4907.4838241936395,-13034.542011162137,1064.237320585526
16857,-9259,16897,16619,-30968,-20500,25352,12025,4366,28348,15,1,843,2020-11-02 14:34:50,2020-11-02 14:35:20,3,D7:F2:3B:06:4D:C8,15,15,-10705.97832363666,21481.02647274517,8448.454344496584
16858,18397,23550,-8210,-7430,-23315,-25833,21755,16908,25280,15,1,868,2020-11-02 14:34:50,2020-11-02 14:35:20,3,D7:F2:3B:06:4D:C8,15,15,-18569.413945100565,12395.667853387731,-21493.731486272798
16859,-5645,2817,-11769,-5644,-18449,-31712,-18948,-20214,7110,15,1,894,2020-11-02 14:34:50,2020-11-02 14:35:20,3,D7:F2:3B:06:4D:C8,15,15,5905.670047711572,962.0535533031352,-11937.687768078842
16860,-32260,8711,17933,17920,26868,4639,31486,9225,-15157,15,1,920,2020-11-02 14:34:50,2020-11-02 14:35:20,3,D7:F2:3B:06:4D:C8,15,15,26280.761574458003,10163.860897427574,25381.07784796057
16861,-9469,-30206,-2043,-4090,5111,-13802,-6912,-21497,9424,15,-1,945,2020-11-02 14:34:50,2020-11-02 14:35:20,3,D7:F2:3B:06:4D:C8,15,15,18390.78290269428,-4745.836626362594,-25406.581528057708
16862,31220,20986,22785,3076,11258,13075,-16638,21254,10195,15,-1,971,2020-11-02 14:34:50,2020-11-02 14:35:20,3,D7:F2:3B:06:4D:C8,15,15,-28962.494526251,-22924.23019211713,23872.7962734931
16863,6396,-5649,27653,19451,27125,-28907,19971,-22524,17366,15,-1,996,2020-11-02 14:34:50,2020-11-02 14:35:20,3,D7:F2:3B:06:4D:C8,15,15,2094.0718288789244,-2005.6631445229168,28794.107114585062
16864,-26112,27115,-23027,-19725,19449,28945,10498,-2558,5849,15,-1,1022,2020-11-02 14:34:50,2020-11-02 14:35:20,3,D7:F2:3B:06:4D:C8,15,15,-42740.98027760357,-3587.7051680341865,10374.944555840459
16865,-21248,14307,19732,-25875,-9984,-2551,-13057,-32254,-38,15,-1,1047,2020-11-02 14:34:50,2020-11-02 14:35:20,3,D7:F2:3B:06:4D:C8,15,15,-26376.32500007697,11988.444035644385,14355.705001654816
16866,-7160,-24094,18979,-10258,3586,15621,-11268,-8190,732,15,-1,1073,2020-11-02 14:34:50,2020-11-02 14:35:20,3,D7:F2:3B:06:4D:C8,15,15,-29557.66338176161,2952.2340630821072,10469.848444330342
16867,-7920,-22040,6687,-18953,-8697,-2818,-5126,-26621,10204,15,-1,1099,2020-11-02 14:34:50,2020-11-02 14:35:20,3,D7:F2:3B:06:4D:C8,15,15,24077.417102657462,-3293.6230322708125,1622.9608701238185
16868,-18417,14828,11795,31227,-20977,2547,-19719,-3580,25050,15,-1,1124,2020-11-02 14:34:50,2020-11-02 14:35:20,3,D7:F2:3B:06:4D:C8,15,15,2188.295737310582,22445.26749853325,-13769.488976913965
16869,10752,8690,29980,19192,-18410,26345,-24073,-8442,25814,15,-1,1150,2020-11-02 14:34:50,2020-11-02 14:35:20,3,D7:F2:3B:06:4D:C8,15,15,-32428.119251298125,5855.515429117323,2012.9642030987998
16870,17154,-29443,-15081,-2044,15385,26089,-1035,-6392,30161,15,-1,1175,2020-11-02 14:34:50,2020-11-02 14:35:20,3,D7:F2:3B:06:4D:C8,15,15,-22004.791554753363,-29408.47122651121,6286.294198597242
16871,18434,11780,15118,-19189,6169,-10521,11765,-23542,2508,15,-1,1201,2020-11-02 14:34:50,2020-11-02 14:35:20,3,D7:F2:3B:06:4D:C8,15,15,-8704.036149856145,-18648.968233275995,-16840.143067571018
16872,12798,-30201,6921,23568,22552,-14361,-22284,11532,15558,15,-1,1227,2020-11-02 14:34:50,2020-11-02 14:35:20,3,D7:F2:3B:06:4D:C8,15,15,-24878.66405928738,-19832.782635383173,-10559.462749721963
16873,-19468,27656,18440,-2541,274,30442,-24844,18445,-12352,15,-1,1252,2020-11-02 14:34:50,2020-11-02 14:35:20,3,D7:F2:3B:06:4D:C8,15,15,-37668.94954981972,-5333.869465913368,-6040.781102947996
16874,-18455,-13053,31745,-3561,-12277,-9488,-17419,2574,-23364,15,-1,1278,2020-11-02 14:34:50,2020-11-02 14:35:20,3,D7:F2:3B:06:4D:C8,15,15,-1107.0555780210093,-25341.644531327165,-29585.272339375693
16875,17895,-10243,7164,18201,-30968,-17414,6392,-11506,21178,15,-1,1303,2020-11-02 14:34:50,2020-11-02 14:35:20,3,D7:F2:3B:06:4D:C8,15,15,4729.584701838224,11005.311313308986,18247.93471725749
16876,-14099,26362,-24076,2581,-13560,26113,17403,15888,18502,15,-1,1329,2020-11-02 14:34:50,2020-11-02 14:35:20,3,D7:F2:3B:06:4D:C8,15,15,-27410.216329481394,26837.281011629377,1353.1480605863599
16877,750,-18435,-13323,-31732,5129,20742,6910,-12527,17850,15,-1,1355,2020-11-02 14:34:50,2020-11-02 14:35:20,3,D7:F2:3B:06:4D:C8,15,15,-20311.83317867429,1632.2963512529896,10133.069403857477
16878,-6933,-11011,-32008,-22778,-10998,-22005,-5632,31763,20668,15,-1,1380,2020-11-02 14:34:50,2020-11-02 14:35:20,3,D7:F2:3B:06:4D:C8,15,15,-26885.264113043384,14954.707979266192,-15727.681228546486
16879,9198,-8709,-24325,-27137,-15096,-18159,27396,-13292,21952,15,-1,1406,2020-11-02 14:34:50,2020-11-02 14:35:20,3,D7:F2:3B:06:4D:C8,15,15,25830.216283448804,9163.178615299079,-995.7883381430456
16880,-31248,12791,-22271,1529,32261,-10219,9224,-1004,-11067,15,-1,1431,2020-11-02 14:34:50,2020-11-02 14:35:20,3,D7:F2:3B:06:4D:C8,15,15,4701.548337866721,40153.79973655728,-1269.8172873115363
16881,27384,241,-247,-31246,-20221,19988,-24566,15380,6603,15,-1,1482,2020-11-02 14:34:50,2020-11-02 14:35:20,3,D7:F2:3B:06:4D:C8,15,15,-6012.97237188436,-9310.231744424438,-25043.288404681738
16882,-24588,-2317,-16113,-6420,-6909,24078,11,-23789,463,15,-1,1484,2020-11-02 14:34:50,2020-11-02 14:35:20,3,D7:F2:3B:06:4D:C8,15,15,3877.4307428978427,-2317.0,29140.419417606718
16883,-25613,24309,-31719,-10004,-11776,-8437,-1527,1043,-18991,15,1,1508,2020-11-02 14:34:50,2020-11-02 14:35:20,3,D7:F2:3B:06:4D:C8,15,15,28787.16409135452,-20451.22083342285,-31719.0
16884,-28165,-1545,3606,-5650,-12800,-6904,-15608,28434,-12333,15,1,1536,2020-11-02 14:34:50,2020-11-02 14:35:20,3,D7:F2:3B:06:4D:C8,15,15,-4125.2199116868205,-18438.023698676898,-21252.748734393197
16885,25090,-11785,-4841,-15888,-7681,29698,-2042,7954,-11052,15,1,1559,2020-11-02 14:34:50,2020-11-02 14:35:20,3,D7:F2:3B:06:4D:C8,15,15,-4793.252042076523,-14346.815476321846,-23728.110471537788
16886,12033,27128,14618,-8974,8193,-9991,20484,11282,12244,15,1,1585,2020-11-02 14:34:50,2020-11-02 14:35:20,3,D7:F2:3B:06:4D:C8,15,15,27317.843058935934,9802.704159726667,-15876.077562301816
16887,3069,26872,-27621,759,18689,-27659,2561,26386,5842,15,1,1610,2020-11-02 14:34:50,2020-11-02 14:35:20,3,D7:F2:3B:06:4D:C8,15,15,-12401.586342273378,30420.793598090535,20376.91730997386
16888,14593,-1541,13335,-17410,30211,-19470,21502,-26350,22991,15,1,1636,2020-11-02 14:34:50,2020-11-02 14:35:20,3,D7:F2:3B:06:4D:C8,15,15,12603.349923511058,15137.459046102687,-2272.764689337133
16889,19715,-24832,11536,20486,29961,-8211,-4869,14099,29387,15,1,1661,2020-11-02 14:34:50,2020-11-02 14:35:20,3,D7:F2:3B:06:4D:C8,15,15,-23163.748656564163,-9235.34843654578,-22727.46867627615
16890,-26112,3593,-11253,-31220,-7412,18666,22521,11540,2758,15,1,1687,2020-11-02 14:34:50,2020-11-02 14:35:20,3,D7:F2:3B:06:4D:C8,15,15,21457.40409964019,-1969.0195895877146,18896.53336357133
16891,-16904,-29684,26631,18,-756,21740,3575,-3820,3776,15,1,1713,2020-11-02 14:34:50,2020-11-02 14:35:20,3,D7:F2:3B:06:4D:C8,15,15,-16904.0,-29684.0,26631.0
16892,18415,19721,1,28694,12045,-21262,7670,-17131,-2374,15,1,1738,2020-11-02 14:34:50,2020-11-02 14:35:20,3,D7:F2:3B:06:4D:C8,15,15,-22753.307190253545,10654.460303040776,9838.676463675618
16893,-5401,-30718,-19464,-2793,27662,31737,25846,12823,-26045,15,1,1764,2020-11-02 14:34:50,2020-11-02 14:35:20,3,D7:F2:3B:06:4D:C8,15,15,-26895.67147825679,22958.214280260407,-10057.67735589741
16894,2790,26365,12271,-22510,12810,-16900,15351,-11240,-14272,15,1,1789,2020-11-02 14:34:50,2020-11-02 14:35:20,3,D7:F2:3B:06:4D:C8,15,15,-14143.005102090196,22274.59422770398,12541.635645855267
16895,486,28669,-12317,10506,31498,-5631,-19721,32282,63,15,1,1815,2020-11-02 14:34:50,2020-11-02 14:35:20,3,D7:F2:3B:06:4D:C8,15,15,-7675.424548945488,-30120.270024311554,2777.3076271820764
16896,24036,-29956,-12316,28667,4869,-4599,17145,8476,30272,15,1,1841,2020-11-02 14:34:50,2020-11-02 14:35:20,3,D7:F2:3B:06:4D:C8,15,15,21098.39778983778,12103.255644068984,-32173.652287486424
16897,-9500,-29448,11510,13041,-21502,-26352,26366,18205,-5190,15,1,1866,2020-11-02 14:34:50,2020-11-02 14:35:20,3,D7:F2:3B:06:4D:C8,15,15,11488.266717109746,27959.2940681859,-13274.502139261313
16898,-11294,-3086,-26114,11758,5889,17173,-2554,22301,26566,15,1,1892,2020-11-02 14:34:50,2020-11-02 14:35:20,3,D7:F2:3B:06:4D:C8,15,15,-7235.053022868817,-3655.6712329498578,27446.47342725217
16899,-31513,4328,3334,15339,-20996,31001,5134,-29925,-2864,15,1,1917,2020-11-02 14:34:50,2020-11-02 14:35:20,3,D7:F2:3B:06:4D:C8,15,15,-5741.992918775744,4328.0,31164.31039379388
16900,-9481,-7187,-21235,22760,-23560,32276,28175,-23016,17622,15,1,1943,2020-11-02 14:34:50,2020-11-02 14:35:20,3,D7:F2:3B:06:4D:C8,15,15,-19004.77109942726,14196.994203196124,-5452.667792263703
16901,30969,27376,-13548,-13336,-18691,25865,-14835,-11498,-31784,15,1,1968,2020-11-02 14:34:50,2020-11-02 14:35:20,3,D7:F2:3B:06:4D:C8,15,15,24048.38452981582,-2295.0455761733065,36172.926454869565
16902,31483,31733,-29919,-9239,-16131,-10239,-25590,12822,1497,15,-1,1994,2020-11-02 14:34:50,2020-11-02 14:35:20,3,D7:F2:3B:06:4D:C8,15,15,26518.3357821052,1900.700836252905,-46759.75131112853
16903,1538,20469,16159,-7441,18684,-24581,-8442,-21995,3288,15,-1,2020,2020-11-02 14:34:50,2020-11-02 14:35:20,3,D7:F2:3B:06:4D:C8,15,15,-324.03041988226664,24656.777542325755,8625.370224822316
16904,-20995,-1042,-28915,-7442,-31746,7664,-4351,32533,-6700,15,-1,2045,2020-11-02 14:34:50,2020-11-02 14:35:20,3,D7:F2:3B:06:4D:C8,15,15,10886.545200859066,-18883.339568446187,-28334.707239221778
16905,6398,-9480,28693,25845,-4607,-15120,5116,17685,31696,15,-1,2071,2020-11-02 14:34:50,2020-11-02 14:35:20,3,D7:F2:3B:06:4D:C8,15,15,-9738.717910846912,-498.1523743161347,-29308.74051652361
16906,-29442,-8962,-7660,8442,15871,752,-21513,-24300,31180,15,-1,2096,2020-11-02 14:34:50,2020-11-02 14:35:20,3,D7:F2:3B:06:4D:C8,15,15,14829.725505181272,-22665.165151342568,16498.301067180902
16907,-18948,-19701,21266,-6146,-23301,14579,12789,14867,-11575,15,-1,2122,2020-11-02 14:34:50,2020-11-02 14:35:20,3,D7:F2:3B:06:4D:C8,15,15,-3282.2167919775056,19594.28320178228,28367.058002880978
16908,-31493,-30452,-5875,-10750,-6148,11507,4596,-14063,-8505,15,-1,2148,2020-11-02 14:34:50,2020-11-02 14:35:20,3,D7:F2:3B:06:4D:C8,15,15,-15657.066799454753,-31976.603455910903,-26191.64119830673
16909,-25611,18700,-5619,20230,7166,-24845,-29709,30736,-2875,15,-1,2173,2020-11-02 14:34:50,2020-11-02 14:35:20,3,D7:F2:3B:06:4D:C8,15,15,-22931.763717719834,10692.678367494507,-19924.54075064174
16910,9714,-15864,-30707,-24309,8706,11509,-12301,-23281,2756,15,-1,2199,2020-11-02 14:34:50,2020-11-02 14:35:20,3,D7:F2:3B:06:4D:C8,15,15,14238.345479304407,-21320.04267055234,-25133.114401876246
16911,16106,-20478,-3319,3088,-24058,15094,-23308,-31473,-9279,15,-1,2224,2020-11-02 14:34:50,2020-11-02 14:35:20,3,D7:F2:3B:06:4D:C8,15,15,8939.900237063157,15499.60976004045,-19225.18561777277
16912,-2323,26882,5636,5395,9737,-18184,2806,6416,-20033,15,-1,2250,2020-11-02 14:34:50,2020-11-02 14:35:20,3,D7:F2:3B:06:4D:C8,15,15,341.08009237542956,-27105.121368859116,4999.88089358158
16913,30188,-7420,-7423,-14317,-14070,-14596,-11017,21777,-5955,15,-1,2276,2020-11-02 14:34:50,2020-11-02 14:35:20,3,D7:F2:3B:06:4D:C8,15,15,-24606.675145440146,19341.988409468926,-6470.834231746949
16914,2024,19715,-20738,23058,14601,31235,28154,-7150,27581,15,-1,2301,2020-11-02 14:34:50,2020-11-02 14:35:20,3,D7:F2:3B:06:4D:C8,15,15,-23095.93014872962,16984.938291507136,965.570711391264
16915,-11547,19961,14588,-3060,-8188,3596,8190,15892,9407,15,-1,2327,2020-11-02 14:34:50,2020-11-02 14:35:20,3,D7:F2:3B:06:4D:C8,15,15,15974.870183427258,22120.922336763168,229.76421292100213
16916,-24346,-8978,8192,4869,-21249,17683,-30462,-29164,12227,15,-1,2352,2020-11-02 14:34:50,2020-11-02 14:35:20,3,D7:F2:3B:06:4D:C8,15,15,14840.878725061648,-7431.381920527833,21563.022641069238
16917,6895,6891,-19706,21758,-10242,-8683,31750,-14573,9160,15,-1,2378,2020-11-02 14:34:50,2020-11-02 14:35:20,3,D7:F2:3B:06:4D:C8,15,15,18698.48595822491,-2235.0677198392227,11345.679228578543
16918,-31751,19952,13833,-29446,-26367,-3568,-6904,-8686,18124,15,1,2403,2020-11-02 14:34:50,2020-11-02 14:35:20,3,D7:F2:3B:06:4D:C8,15,15,6059.639338297272,-23510.598486064002,-31750.475963626835
16919,13570,-25870,-18933,9718,-12030,4363,-15607,30994,11471,15,1,2429,2020-11-02 14:34:50,2020-11-02 14:35:20,3,D7:F2:3B:06:4D:C8,15,15,16794.349185310053,-21196.96271630574,21920.285035679168
16920,19461,-29194,20499,-9744,9470,17414,-11256,-9711,-17456,15,1,2454,2020-11-02 14:34:50,2020-11-02 14:35:20,3,D7:F2:3B:06:4D:C8,15,15,19489.859648484526,1287.566274486293,35633.08437353102
16921,7938,-30731,5919,18417,-18178,-23810,28166,22545,-9776,15,1,2480,2020-11-02 14:34:50,2020-11-02 14:35:20,3,D7:F2:3B:06:4D:C8,15,15,17904.428040422816,17583.821656332504,-20314.56222771274
16922,21249,-6411,20249,23286,30722,21239,-21757,-26607,-29489,15,1,2506,2020-11-02 14:34:50,2020-11-02 14:35:20,3,D7:F2:3B:06:4D:C8,15,15,-16875.420928687712,-24599.224684715366,-3569.4868525460333
16923,20991,12026,6419,25336,-5118,18932,-21248,5906,11725,15,1,2531,2020-11-02 14:34:50,2020-11-02 14:35:20,3,D7:F2:3B:06:4D:C8,15,15,8101.934710099823,8729.44770725344,-22013.761938378622
16924,-14080,-22782,28688,-10759,3842,31986,-29955,18194,22218,15,1,2559,2020-11-02 14:34:50,2020-11-02 14:35:20,3,D7:F2:3B:06:4D:C8,15,15,-7090.2829193798825,35326.11853481924,15558.29378135825
16925,17406,-12791,-23027,-31491,-22014,-23568,-27398,11282,5063,15,1,2582,2020-11-02 14:34:50,2020-11-02 14:35:20,3,D7:F2:3B:06:4D:C8,15,15,13924.203265933957,25787.646613922123,-11744.577111349092
16926,-7176,27150,13837,22786,10499,23537,20984,-5871,-14397,15,1,2608,2020-11-02 14:34:50,2020-11-02 14:35:20,3,D7:F2:3B:06:4D:C8,15,15,-28057.664765301837,7973.655375904855,-11369.622371224266
16927,5106,2061,-1275,24070,-2815,-23819,20215,-24303,11969,15,1,2634,2020-11-02 14:34:50,2020-11-02 14:35:20,3,D7:F2:3B:06:4D:C8,15,15,2591.4598314224672,-1191.7938277086796,-4879.400108041903
16928,-29204,7689,-30719,-24315,16127,9467,25591,22289,-9281,15,1,2659,2020-11-02 14:34:50,2020-11-02 14:35:20,3,D7:F2:3B:06:4D:C8,15,15,-7083.433133599714,-41298.32124921401,-9996.246047318975
16929,19945,-3066,-30976,-26622,6399,-23554,-16649,12305,29631,15,-1,2685,2020-11-02 14:34:50,2020-11-02 14:35:20,3,D7:F2:3B:06:4D:C8,15,15,-24096.354900092472,-13339.498325174496,-24660.483003409656
16930,-9492,13318,12802,30211,29440,20737,16632,18961,-29249,15,-1,2710,2020-11-02 14:34:50,2020-11-02 14:35:20,3,D7:F2:3B:06:4D:C8,15,15,19414.344950681414,5054.665359055411,-5375.124207301288
16931,24813,4358,13830,-247,4610,-9213,-16135,-19439,5568,15,-1,2736,2020-11-02 14:34:50,2020-11-02 14:35:20,3,D7:F2:3B:06:4D:C8,15,15,-23193.275496435548,10762.015499326732,13122.386487933265
16932,2544,10755,763,20749,7428,-13306,-30212,29202,14273,15,-1,2761,2020-11-02 14:34:50,2020-11-02 14:35:20,3,D7:F2:3B:06:4D:C8,15,15,1792.8139986717692,-9490.228909648176,5426.371090207944
16933,26607,25342,32244,18949,7685,-22520,15615,26643,-5438,15,-1,2787,2020-11-02 14:34:50,2020-11-02 14:35:20,3,D7:F2:3B:06:4D:C8,15,15,-24675.8536350332,-39865.37936234496,13844.808582235415
16934,30958,23543,25348,-7430,13316,7691,-11520,14356,18629,15,-1,2813,2020-11-02 14:34:50,2020-11-02 14:35:20,3,D7:F2:3B:06:4D:C8,15,15,39650.877747642575,-19037.577006285825,-14851.608416977593
16935,7149,25840,1298,19190,29695,13840,14338,24340,-20792,15,-1,2838,2020-11-02 14:34:50,2020-11-02 14:35:20,3,D7:F2:3B:06:4D:C8,15,15,20141.439520595828,14925.226680627205,-9594.71873324456
16936,28665,-10263,19222,12276,24825,17171,-20477,20243,-8756,15,-1,2864,2020-11-02 14:34:50,2020-11-02 14:35:20,3,D7:F2:3B:06:4D:C8,15,15,-5841.129566967247,32922.38926884156,13360.170964952784
16937,9983,26345,-21484,-8720,-28935,-20724,-18685,-19183,-6449,15,-1,2889,2020-11-02 14:34:50,2020-11-02 14:35:20,3,D7:F2:3B:06:4D:C8,15,15,-31175.98467472307,-5329.401740892351,-15966.747528711223
16938,10246,-24338,14361,-21524,-18691,15617,-23295,-7152,-3632,15,-1,2915,2020-11-02 14:34:50,2020-11-02 14:35:20,3,D7:F2:3B:06:4D:C8,15,15,28933.909224050323,5039.937809461431,-6401.953209074302
16939,29698,-1549,-5079,-8725,-6653,-15626,-28419,-2544,-22065,15,-1,2940,2020-11-02 14:34:50,2020-11-02 14:35:20,3,D7:F2:3B:06:4D:C8,15,15,-28715.47693786133,-8998.676464611717,2147.5688851343043
16940,10239,25853,-1236,1526,-20735,-4878,-27655,-13552,8909,15,-1,2966,2020-11-02 14:34:50,2020-11-02 14:35:20,3,D7:F2:3B:06:4D:C8,15,15,1120.9970461564665,-27799.16723371516,831.9211107106037
16941,1275,6145,4629,-28417,14850,4593,12023,11280,18634,15,-1,2992,2020-11-02 14:34:50,2020-11-02 14:35:20,3,D7:F2:3B:06:4D:C8,15,15,-2777.1592683074355,7230.633426279778,905.3273735062148
16942,-6664,-9211,28425,-4865,259,-1553,19701,-32497,16071,15,-1,3017,2020-11-02 14:34:50,2020-11-02 14:35:20,3,D7:F2:3B:06:4D:C8,15,15,7890.7161546304305,-29514.804568052663,-1960.8548841543334
16943,27381,27916,5645,2049,8196,9714,-25357,-6386,25540,15,-1,3043,2020-11-02 14:34:50,2020-11-02 14:35:20,3,D7:F2:3B:06:4D:C8,15,15,-17121.87117513882,14627.834298639873,32461.611685088676
16944,-25359,-19445,15628,8456,-29692,-18955,4851,-31218,8130,15,-1,3068,2020-11-02 14:34:50,2020-11-02 14:35:20,3,D7:F2:3B:06:4D:C8,15,15,20572.80584200896,-3948.8648941353513,28750.433315601826
16945,-24336,20486,7687,18192,29704,-9736,-1805,-15602,12224,15,1,3094,2020-11-02 14:34:50,2020-11-02 14:35:20,3,D7:F2:3B:06:4D:C8,15,15,-19933.561116566463,-5672.190587387179,-25327.582911767673
16946,15348,-22525,-12794,-16105,-32498,11770,-12555,-1521,702,15,1,3120,2020-11-02 14:34:50,2020-11-02 14:35:20,3,D7:F2:3B:06:4D:C8,15,15,15348.0,-2259.843785583389,25806.10716603262
16947,-1548,24317,27911,-21217,31252,23547,29432,16914,-30021,15,1,3145,2020-11-02 14:34:50,2020-11-02 14:35:20,3,D7:F2:3B:06:4D:C8,15,15,-36069.30575631136,-3262.275034758459,7816.614219424919
16948,-3340,-23819,6135,-16346,26135,-257,-32004,-26091,14662,15,1,3171,2020-11-02 14:34:50,2020-11-02 14:35:20,3,D7:F2:3B:06:4D:C8,15,15,17229.955658633244,-7275.327019735463,16319.829372804094
16949,9715,6899,1758,9498,19,29700,-5119,-232,5562,15,1,3196,2020-11-02 14:34:50,2020-11-02 14:35:20,3,D7:F2:3B:06:4D:C8,15,15,9715.0,6899.0,1758.0
16950,-5901,6136,-29215,-29180,23820,-5369,-32761,16155,-2883,15,1,3222,2020-11-02 14:34:50,2020-11-02 14:35:20,3,D7:F2:3B:06:4D:C8,15,15,270.43035530991256,29755.523854285948,6365.861259872616
16951,-13586,-29961,-8982,4593,12299,29960,9996,-31716,3780,15,1,3247,2020-11-02 14:34:50,2020-11-02 14:35:20,3,D7:F2:3B:06:4D:C8,15,15,-32683.22870205582,-8629.905000570809,4499.838029333677
16952,3554,-21262,5897,-540,8452,-22261,-9458,-16612,-26934,15,1,3273,2020-11-02 14:34:50,2020-11-02 14:35:20,3,D7:F2:3B:06:4D:C8,15,15,18432.99549767815,-11358.458220516413,-5539.6997062440305
16953,-21785,21492,14873,23014,30973,16145,-12273,15131,-3121,15,1,3299,2020-11-02 14:34:50,2020-11-02 14:35:20,3,D7:F2:3B:06:4D:C8,15,15,-14332.257271978287,4580.152818107179,30517.323271424226
16954,-16908,502,-3551,4590,-3075,-4342,31759,28697,13267,15,1,3324,2020-11-02 14:34:50,2020-11-02 14:35:20,3,D7:F2:3B:06:4D:C8,15,15,4368.653075050806,-1705.3195057296612,-16635.769434962334
16955,-16130,27896,25626,-4109,13055,6144,-7155,-9960,-8493,15,1,3350,2020-11-02 14:34:50,2020-11-02 14:35:20,3,D7:F2:3B:06:4D:C8,15,15,30496.500919404432,20310.64424518074,-18774.896910994514
16956,-31228,-29702,-235,12533,-18951,27640,14090,-26344,-22319,15,1,3375,2020-11-02 14:34:50,2020-11-02 14:35:20,3,D7:F2:3B:06:4D:C8,15,15,1728.6089321461661,-12454.778162795306,41223.0812176293
16957,-13580,20988,19484,-14608,3323,25583,-20733,10776,-16948,15,1,3401,2020-11-02 14:34:50,2020-11-02 14:35:20,3,D7:F2:3B:06:4D:C8,15,15,-5548.064454483185,31199.419072878834,-595.0044737516382
16958,-29974,-517,4379,21499,2815,14320,15869,-16873,9927,15,1,3452,2020-11-02 14:34:50,2020-11-02 14:35:20,3,D7:F2:3B:06:4D:C8,15,15,11035.299190665999,10215.056460247042,-26301.300334516764
16959,2556,-15619,20747,-29951,26365,-525,-1799,2071,21955,15,1,3454,2020-11-02 14:34:50,2020-11-02 14:35:20,3,D7:F2:3B:06:4D:C8,15,15,-326.26741542367245,15823.395545003377,20747.0
16960,-23804,3076,12554,-1281,3068,-23821,-21257,-7403,31680,15,1,3478,2020-11-02 14:34:50,2020-11-02 14:35:20,3,D7:F2:3B:06:4D:C8,15,15,-1799.3794046165303,1592.99432639702,-26979.987228208778
16961,14333,1799,-7926,13823,-2053,2546,25845,27412,-15427,15,1,3503,2020-11-02 14:34:50,2020-11-02 14:35:20,3,D7:F2:3B:06:4D:C8,15,15,-1421.9965849111713,14132.760601829996,8350.794542069802
16962,19958,-8696,-19189,-6654,27131,-4364,6900,-4846,-14661,15,1,3529,2020-11-02 14:34:50,2020-11-02 14:35:20,3,D7:F2:3B:06:4D:C8,15,15,2104.6492814879366,-22912.02254169186,-17685.292631193202
16963,-18448,-26874,16132,17158,-10758,23543,5876,-28911,-26182,15,1,3555,2020-11-02 14:34:50,2020-11-02 14:35:20,3,D7:F2:3B:06:4D:C8,15,15,33393.553083665975,4317.903064939592,13748.030025067874
16964,24299,-4092,3078,-25592,-2310,-31750,-13068,26128,-1607,15,1,3580,2020-11-02 14:34:50,2020-11-02 14:35:20,3,D7:F2:3B:06:4D:C8,15,15,-17729.44288927043,4501.690334920355,16794.689278595863
16965,-5144,-7678,-1541,12815,-32255,-27652,25846,5648,-2235,15,1,3606,2020-11-02 14:34:50,2020-11-02 14:35:20,3,D7:F2:3B:06:4D:C8,15,15,-5144.0,3852.4430757212954,6817.994378725099
16966,-29720,28415,5615,-26617,18178,16381,-20745,28944,12869,15,-1,3631,2020-11-02 14:34:50,2020-11-02 14:35:20,3,D7:F2:3B:06:4D:C8,15,15,24548.465038868417,12054.379398637982,-31213.517128788084
16967,-22303,-28927,24055,15367,-24573,-15096,2809,21777,-23483,15,-1,3657,2020-11-02 14:34:50,2020-11-02 14:35:20,3,D7:F2:3B:06:4D:C8,15,15,5240.817674887779,38187.07214370458,-20666.869965964495
16968,-30488,-24581,26616,-22269,-32258,22291,12540,9234,16316,15,-1,3682,2020-11-02 14:34:50,2020-11-02 14:35:20,3,D7:F2:3B:06:4D:C8,15,15,31265.813148930516,-34741.02708713074,7593.755728716373
16969,21488,-25101,-22270,-25347,6144,12821,-32513,25106,-8768,15,-1,3708,2020-11-02 14:34:50,2020-11-02 14:35:20,3,D7:F2:3B:06:4D:C8,15,15,16814.91567469825,158.75450882586574,36124.51595327907
16970,20732,7924,30474,-16393,21502,10260,-9215,16658,26565,15,-1,3734,2020-11-02 14:34:50,2020-11-02 14:35:20,3,D7:F2:3B:06:4D:C8,15,15,22463.04189545296,-19772.634034083836,-22928.693119262487
16971,26879,29173,-3567,-24843,-6406,14609,1795,16913,15561,15,-1,3759,2020-11-02 14:34:50,2020-11-02 14:35:20,3,D7:F2:3B:06:4D:C8,15,15,-20522.320025000434,-25260.57219609094,-22956.60976968384
16972,-27647,27123,-1257,5876,4862,8714,259,23056,-12597,15,-1,3785,2020-11-02 14:34:50,2020-11-02 14:35:20,3,D7:F2:3B:06:4D:C8,15,15,16746.685153149137,-28584.339078675443,-20101.688556352732
16973,-14844,21489,-27621,-7694,10498,-13056,-31231,15120,-24116,15,-1,3810,2020-11-02 14:34:50,2020-11-02 14:35:20,3,D7:F2:3B:06:4D:C8,15,15,-36286.62850655912,-7833.40176570384,8182.878857959389
16974,773,-27409,10527,-3086,-15102,3578,-5122,-26864,-9781,15,-1,3836,2020-11-02 14:34:50,2020-11-02 14:35:20,3,D7:F2:3B:06:4D:C8,15,15,-19032.36213058785,-21087.86020530954,-7465.914725704271
16975,-26880,-22287,30754,13301,9728,16885,-15877,27664,-3383,15,-1,3861,2020-11-02 14:34:50,2020-11-02 14:35:20,3,D7:F2:3B:06:4D:C8,15,15,11918.645082956078,37239.19761072318,-25223.824961651553
16976,6134,-24333,-13031,3066,26114,7155,-9480,-2033,25287,15,-1,3887,2020-11-02 14:34:50,2020-11-02 14:35:20,3,D7:F2:3B:06:4D:C8,15,15,-22257.762660991946,11118.67974831389,13434.834125562817
16977,1529,15099,-1523,8953,-1278,32242,14838,-23025,-18492,15,-1,3913,2020-11-02 14:34:50,2020-11-02 14:35:20,3,D7:F2:3B:06:4D:C8,15,15,-10463.240808755949,3456.5600127845237,-10545.613100052702
16978,-24077,-25080,11802,-31237,5636,-16143,-27661,2063,-831,15,1,3938,2020-11-02 14:34:50,2020-11-02 14:35:20,3,D7:F2:3B:06:4D:C8,15,15,-24077.0,7461.598961635216,-26694.908595755187
16979,-27409,7696,26906,-1275,13829,-12813,25586,-28146,30655,15,1,3964,2020-11-02 14:34:50,2020-11-02 14:35:20,3,D7:F2:3B:06:4D:C8,15,15,14758.47442341554,4159.268705674844,36045.8381720745
16980,20972,-7155,8973,19727,-31738,25846,3059,26894,22461,15,1,3989,2020-11-02 14:34:50,2020-11-02 14:35:20,3,D7:F2:3B:06:4D:C8,15,15,21303.57262453803,4190.576871811978,10006.51772158868
16981,-29975,-22009,-6143,19477,30477,1017,-24332,17167,187,15,1,4015,2020-11-02 14:34:50,2020-11-02 14:35:20,3,D7:F2:3B:06:4D:C8,15,15,979.4513924866933,19035.080180263838,32516.758025680894
16982,15850,-7940,-23057,21523,7694,19199,-28938,11281,-21691,15,1,4041,2020-11-02 14:34:50,2020-11-02 14:35:20,3,D7:F2:3B:06:4D:C8,15,15,6115.424704236529,-19186.64083819284,-20984.893209949965
16983,242,25078,31222,-16117,-20475,1285,-30728,-14318,29253,15,1,4066,2020-11-02 14:34:50,2020-11-02 14:35:20,3,D7:F2:3B:06:4D:C8,15,15,-30403.973131224782,22312.64789459247,-13473.013536981982
16984,-2063,-23049,6395,-29425,-30202,-8184,-31493,-2285,2490,15,1,4092,2020-11-02 14:34:50,2020-11-02 14:35:20,3,D7:F2:3B:06:4D:C8,15,15,-2063.0,-12670.450449212673,-20288.225930673347
16985,9976,-2313,-25869,22027,-7159,-26871,15871,-30955,5308,15,1,4117,2020-11-02 14:34:50,2020-11-02 14:35:20,3,D7:F2:3B:06:4D:C8,15,15,11136.109588093228,24485.1627674871,-7109.119037661523
16986,32503,-26119,-4627,-26364,-28153,30987,-8446,-12778,3775,15,1,4143,2020-11-02 14:34:50,2020-11-02 14:35:20,3,D7:F2:3B:06:4D:C8,15,15,-31237.68133913069,-18005.64217367608,21449.01893953344
16987,29688,26356,-23824,16887,4357,-8946,9734,32535,27587,15,1,4168,2020-11-02 14:34:50,2020-11-02 14:35:20,3,D7:F2:3B:06:4D:C8,15,15,26276.95965265426,-22031.797177585242,31108.204071249875
16988,1016,-30990,26373,3564,30720,32272,-21753,12055,5576,15,1,4194,2020-11-02 14:34:50,2020-11-02 14:35:20,3,D7:F2:3B:06:4D:C8,15,15,-20187.07860927256,34401.62544221068,8121.42285297919
16989,4608,2809,27162,2796,16892,-15089,-5369,-3307,14284,15,1,4220,2020-11-02 14:34:50,2020-11-02 14:35:20,3,D7:F2:3B:06:4D:C8,15,15,-4471.821094762572,3021.086078951818,27162.0
16990,27395,10749,29466,2545,768,-16121,26887,-2028,-16946,15,1,4245,2020-11-02 14:34:50,2020-11-02 14:35:20,3,D7:F2:3B:06:4D:C8,15,15,2488.1999733151715,-31266.39942976777,-27395.13295443211
16991,-28670,-6408,-24289,5360,5378,16894,28421,-3308,16079,15,1,4271,2020-11-02 14:34:50,2020-11-02 14:35:20,3,D7:F2:3B:06:4D:C8,15,15,24836.97689469987,-20163.007279015386,20725.940297089473
16992,27898,31479,-26069,-29710,1284,-5132,-32511,24853,20173,15,1,4296,2020-11-02 14:34:50,2020-11-02 14:35:20,3,D7:F2:3B:06:4D:C8,15,15,30340.810432148228,-38595.53925542421,6215.961542951623
16993,17140,9716,-20450,1015,-24570,24814,25596,1814,969,15,1,4322,2020-11-02 14:34:50,2020-11-02 14:35:20,3,D7:F2:3B:06:4D:C8,15,15,17140.0,-21827.412449357984,6013.919002249034
16994,-25877,25327,-8955,-4367,-28669,27377,-21002,-5099,13252,15,1,4347,2020-11-02 14:34:50,2020-11-02 14:35:20,3,D7:F2:3B:06:4D:C8,15,15,34717.04319675485,-12569.718072666568,5291.236362924732
16995,-4623,-11022,-15861,-29462,19975,-30225,27120,12821,15552,15,1,4373,2020-11-02 14:34:50,2020-11-02 14:35:20,3,D7:F2:3B:06:4D:C8,15,15,-3516.1948852495334,19215.456295771888,-3581.9752754905403
16996,5090,26115,-18665,-20495,-27368,10219,744,-28652,-9147,15,1,4399,2020-11-02 14:34:50,2020-11-02 14:35:20,3,D7:F2:3B:06:4D:C8,15,15,13084.620708282788,27955.963101978257,-10175.479249706492
16997,-24086,20240,26136,7424,-17649,-15880,-11294,788,13888,15,1,4424,2020-11-02 14:34:50,2020-11-02 14:35:20,3,D7:F2:3B:06:4D:C8,15,15,-19918.40062140677,-35604.38911687755,-2910.0316663421254
16998,-7694,-28659,27919,-15603,-31479,1790,11490,3348,-24259,15,-1,4450,2020-11-02 14:34:50,2020-11-02 14:35:20,3,D7:F2:3B:06:4D:C8,15,15,15215.93980394315,2975.4156497276654,-37677.95848495688
16999,-29456,12293,22022,-6632,-1008,14333,-12318,19476,20794,15,-1,4475,2020-11-02 14:34:50,2020-11-02 14:35:20,3,D7:F2:3B:06:4D:C8,15,15,-28131.337733685843,-11049.538558859844,24295.633433799834
17000,-15888,26621,-7427,-30947,25619,-25345,24803,-3820,-26571,15,-1,4501,2020-11-02 14:34:50,2020-11-02 14:35:20,3,D7:F2:3B:06:4D:C8,15,15,27807.757165509876,3023.7256033740173,-15292.228055438312
17001,-15891,-19469,-6669,24093,-8690,-26109,-32028,1302,31537,15,-1,4527,2020-11-02 14:34:50,2020-11-02 14:35:20,3,D7:F2:3B:06:4D:C8,15,15,-3671.0652794432663,15485.745842727263,-20561.0398182709
17002,12019,-24331,23522,3862,7437,-15609,-24603,-22761,13870,15,-1,4552,2020-11-02 14:34:50,2020-11-02 14:35:20,3,D7:F2:3B:06:4D:C8,15,15,4692.89229894488,-5693.974646210396,35146.74694191223
17003,-16401,-21004,5086,-19960,-5626,-14324,-1307,-16103,18476,15,-1,4578,2020-11-02 14:34:50,2020-11-02 14:35:20,3,D7:F2:3B:06:4D:C8,15,15,785.5689829614262,21104.34227586397,-17029.90990804677
17004,10735,27889,-23583,-29959,18947,3346,18662,22812,-17108,15,-1,4604,2020-11-02 14:34:50,2020-11-02 14:35:20,3,D7:F2:3B:06:4D:C8,15,15,-19259.03109547949,16267.527648433275,-28524.580636195387
17005,10488,-21266,-14347,-29203,-17408,28180,-20761,14879,31536,15,-1,4654,2020-11-02 14:34:50,2020-11-02 14:35:20,3,D7:F2:3B:06:4D:C8,15,15,21446.472040296005,-5418.455638505357,-16696.30152214409
17006,9977,-14872,-26881,-13080,20735,29200,18674,22817,-32450,15,-1,4656,2020-11-02 14:34:50,2020-11-02 14:35:20,3,D7:F2:3B:06:4D:C8,15,15,-19576.531845594254,-901.7636733619183,-25675.889413530324
17007,21250,-17947,23299,-7454,6396,4617,2821,24097,-17976,15,-1,4680,2020-11-02 14:34:50,2020-11-02 14:35:20,3,D7:F2:3B:06:4D:C8,15,15,28674.52428689028,22215.874538446395,852.8103027921807
17008,-26884,-2589,-28918,-1061,-27147,10243,-8958,4384,-20789,15,-1,4706,2020-11-02 14:34:50,2020-11-02 14:35:20,3,D7:F2:3B:06:4D:C8,15,15,22983.587585324807,29268.852817929554,-13445.893701427221
17009,31741,-3103,-30949,2266,-13844,-2044,2303,-30179,-22323,15,1,4731,2020-11-02 14:34:50,2020-11-02 14:35:20,3,D7:F2:3B:06:4D:C8,15,15,20029.23517779674,5989.465425329147,-39216.27637998407
17010,-2819,27624,19233,4578,-14101,2815,-18693,11290,-28977,15,1,4757,2020-11-02 14:34:50,2020-11-02 14:35:20,3,D7:F2:3B:06:4D:C8,15,15,17714.159505919928,-26957.6081954893,-10021.79322164027
17011,-24075,1770,6180,24808,28404,-10761,10999,27415,-2866,15,1,4782,2020-11-02 14:34:50,2020-11-02 14:35:20,3,D7:F2:3B:06:4D:C8,15,15,12082.270594861,-4243.955604726193,-21376.11992616224
17012,-23556,24051,11055,-29452,9731,7666,-26382,-4843,-25652,15,1,4808,2020-11-02 14:34:50,2020-11-02 14:35:20,3,D7:F2:3B:06:4D:C8,15,15,33626.50816470983,-2082.772527828295,10975.826586003754
17013,16125,15863,7716,11015,18956,16107,26094,1301,27335,15,1,4859,2020-11-02 14:34:50,2020-11-02 14:35:20,3,D7:F2:3B:06:4D:C8,15,15,-13967.759189085462,-9242.917870466366,-17048.672161653296
17014,25849,-2566,16407,1298,19982,27369,-6165,-18669,26561,15,1,4861,2020-11-02 14:34:50,2020-11-02 14:35:20,3,D7:F2:3B:06:4D:C8,15,15,27143.003885912927,12426.181608557257,-7265.821129127038
17015,19957,-30463,-21492,-4333,-30451,-7190,-16150,20754,-14917,15,1,4885,2020-11-02 14:34:50,2020-11-02 14:35:20,3,D7:F2:3B:06:4D:C8,15,15,-172.8522735219267,16120.187633115776,-39093.3748193307
17016,23021,-29178,16143,-23273,24071,24049,22507,4881,-31420,15,1,4910,2020-11-02 14:34:50,2020-11-02 14:35:20,3,D7:F2:3B:06:4D:C8,15,15,-18984.774780095417,29623.051011643096,-20099.048467791796
17017,27114,-24836,3076,29723,-15872,-25097,9710,11792,-18622,15,1,4936,2020-11-02 14:34:50,2020-11-02 14:35:20,3,D7:F2:3B:06:4D:C8,15,15,26228.45939675291,19907.901612341382,-16649.355515040792
17018,14302,-10249,-28671,12317,-1025,-3331,-8719,-14577,-5567,15,1,4961,2020-11-02 14:34:50,2020-11-02 14:35:20,3,D7:F2:3B:06:4D:C8,15,15,292.2054067083336,-29663.372938269764,15862.356947358594
17019,-9758,-1040,-23303,5154,-16641,-7676,4599,5648,19778,15,1,4987,2020-11-02 14:34:50,2020-11-02 14:35:20,3,D7:F2:3B:06:4D:C8,15,15,9807.111590209408,-347.45684218372094,-23303.0
17020,-14106,23279,5092,-24038,14334,18698,-14852,-25840,-12477,15,1,5013,2020-11-02 14:34:50,2020-11-02 14:35:20,3,D7:F2:3B:06:4D:C8,15,15,-1101.7334521358116,9745.445504666872,25896.563793600362
17021,-22308,16115,-4131,-11257,-22784,-24811,20225,-14320,32698,15,1,5038,2020-11-02 14:34:50,2020-11-02 14:35:20,3,D7:F2:3B:06:4D:C8,15,15,-13747.484506713708,-7713.279501124527,-22932.885537480855
17022,-32029,-29457,-26641,-7692,-17408,-25823,-16892,-22768,-31552,15,-1,5064,2020-11-02 14:34:50,2020-11-02 14:35:20,3,D7:F2:3B:06:4D:C8,15,15,18953.10931449198,21886.742527834875,-42012.67332404808
17023,29935,24300,-8690,-30226,-1281,26406,-7162,20751,-21049,15,-1,5089,2020-11-02 14:34:50,2020-11-02 14:35:20,3,D7:F2:3B:06:4D:C8,15,15,33672.40667496057,-1075.8797434395974,20666.926150100964
17024,-26630,-6421,3865,-8718,27650,15396,-30968,-26099,24782,15,-1,5115,2020-11-02 14:34:50,2020-11-02 14:35:20,3,D7:F2:3B:06:4D:C8,15,15,-13057.475892908518,-6661.570594066025,23461.674418642582
17025,24578,1006,-30437,28149,10240,7199,-31223,-19445,-7469,15,-1,5140,2020-11-02 14:34:50,2020-11-02 14:35:20,3,D7:F2:3B:06:4D:C8,15,15,12238.050788501772,35487.8693818637,11060.846650859608
17026,10244,-18704,-6121,-16908,2561,-30953,-19703,-1015,1240,15,-1,5166,2020-11-02 14:34:50,2020-11-02 14:35:20,3,D7:F2:3B:06:4D:C8,15,15,10244.0,17653.02408708028,8699.252702443082
17027,-30202,22508,-14319,-13328,27906,-28656,-14584,2825,2011,15,-1,5192,2020-11-02 14:34:50,2020-11-02 14:35:20,3,D7:F2:3B:06:4D:C8,15,15,-30202.0,-22386.86285172002,-14507.659930473912
17028,-3317,-13340,-15095,30181,6404,-20727,9734,-14328,6621,15,-1,5217,2020-11-02 14:34:50,2020-11-02 14:35:20,3,D7:F2:3B:06:4D:C8,15,15,5644.297157295956,18959.541596686173,5049.238164680647
17029,32267,18912,18201,-7972,9224,3327,11777,-29687,-16675,15,-1,5243,2020-11-02 14:34:50,2020-11-02 14:35:20,3,D7:F2:3B:06:4D:C8,15,15,-29854.098395613513,-6550.484524924366,-28212.11433894583
17030,-5879,24803,-13286,-12321,3341,-7946,24827,3851,31196,15,-1,5268,2020-11-02 14:34:50,2020-11-02 14:35:20,3,D7:F2:3B:06:4D:C8,15,15,-26855.90634874104,-1813.495740412363,-10086.663144328595
17031,8451,-29719,-31977,-2080,26374,20980,15349,-16373,-1831,15,-1,5294,2020-11-02 14:34:50,2020-11-02 14:35:20,3,D7:F2:3B:06:4D:C8,15,15,8955.32377233213,41444.07165294935,13392.460265309855
17032,1798,-19464,13858,-17947,-1282,23288,8688,-1270,-30248,15,-1,5320,2020-11-02 14:34:50,2020-11-02 14:35:20,3,D7:F2:3B:06:4D:C8,15,15,21776.61468743594,-4566.786168560646,-8890.881893580216
17033,-22002,13573,1330,-31750,-8954,9974,30957,16138,25303,15,-1,5345,2020-11-02 14:34:50,2020-11-02 14:35:20,3,D7:F2:3B:06:4D:C8,15,15,5405.802301981083,-1582.500653715628,25265.712460821003
17034,-7684,-21506,1809,-21999,-26604,5358,-23827,778,-18989,15,-1,5371,2020-11-02 14:34:50,2020-11-02 14:35:20,3,D7:F2:3B:06:4D:C8,15,15,9397.661794098209,-11476.860609721754,-17458.235774234578
17035,-23807,12286,-13554,-15596,-21479,10730,25582,21770,-28978,15,-1,5396,2020-11-02 14:34:50,2020-11-02 14:35:20,3,D7:F2:3B:06:4D:C8,15,15,24205.165217176815,17353.578319260563,3793.844662932728
17036,29186,-31237,-25071,-21220,11037,-32021,-30993,11019,-27704,15,1,5422,2020-11-02 14:34:50,2020-11-02 14:35:20,3,D7:F2:3B:06:4D:C8,15,15,-1409.1617652270907,-21592.771981619866,-44585.80791315993
17037,13048,-8717,-26097,29991,-3047,-29973,-527,22284,-20030,15,1,5447,2020-11-02 14:34:50,2020-11-02 14:35:20,3,D7:F2:3B:06:4D:C8,15,15,15203.960968097808,10972.389317758572,23994.500318616676
17038,-11797,-6674,-3331,-29138,-8174,8948,14582,3598,4286,15,1,5473,2020-11-02 14:34:50,2020-11-02 14:35:20,3,D7:F2:3B:06:4D:C8,15,15,-11797.0,5806.233715871975,-4682.465914096068
17039,8166,-27919,-31768,-7131,12555,3583,31483,-16881,8380,15,1,5499,2020-11-02 14:34:50,2020-11-02 14:35:20,3,D7:F2:3B:06:4D:C8,15,15,21736.004763823235,-37187.42889086702,34.21101814428994
17040,24038,17399,-8971,-26601,28427,20742,-2817,-24047,-31044,15,1,5524,2020-11-02 14:34:50,2020-11-02 14:35:20,3,D7:F2:3B:06:4D:C8,15,15,-23067.165295030627,-16641.854258307365,-12328.181459444517
17041,-31517,-29197,31221,-27377,-4083,4109,-17660,-29933,5823,15,1,5550,2020-11-02 14:34:50,2020-11-02 14:35:20,3,D7:F2:3B:06:4D:C8,15,15,-46739.64994064806,-11140.69013749898,22623.595772686334
17042,12771,24045,5114,31742,11276,-20459,-23287,-14828,19396,15,1,5575,2020-11-02 14:34:50,2020-11-02 14:35:20,3,D7:F2:3B:06:4D:C8,15,15,21397.623836943247,16734.99146026901,5430.949912989552
17043,-527,-23064,26112,6128,1285,-14310,5389,5396,-19766,15,1,5601,2020-11-02 14:34:50,2020-11-02 14:35:20,3,D7:F2:3B:06:4D:C8,15,15,-2733.0658201843426,22907.557185840225,26112.0
17044,-5385,11746,13059,-1823,-7681,-16104,-2804,11538,-22833,15,1,5628,2020-11-02 14:34:50,2020-11-02 14:35:20,3,D7:F2:3B:06:4D:C8,15,15,-12316.609624954624,-13620.426514187953,-537.8948950128361
17045,-5895,-5411,-10742,-9771,-15879,-16867,14090,-10993,6868,15,1,5652,2020-11-02 14:34:50,2020-11-02 14:35:20,3,D7:F2:3B:06:4D:C8,15,15,-11630.346843954052,4132.582916689527,-5203.58537222307
17046,-24816,12769,17187,-32043,18673,13089,5126,18188,-9512,15,1,5678,2020-11-02 14:34:50,2020-11-02 14:35:20,3,D7:F2:3B:06:4D:C8,15,15,25329.168194562488,-15814.776306227135,-13512.966919058192
17047,4390,19950,-18899,13792,15108,-6135,-3071,-30710,17372,15,1,5703,2020-11-02 14:34:50,2020-11-02 14:35:20,3,D7:F2:3B:06:4D:C8,15,15,13893.187745031688,-22132.093770200663,-9570.609208840691
17048,-24821,-26641,-30677,4847,-21476,27114,16893,7437,13786,15,1,5729,2020-11-02 14:34:50,2020-11-02 14:35:20,3,D7:F2:3B:06:4D:C8,15,15,-25852.049694270434,-37183.70875627497,14695.120983969222
17049,-23553,-9994,-21984,-22782,14113,3299,17656,-14832,32467,15,1,5755,2020-11-02 14:34:50,2020-11-02 14:35:20,3,D7:F2:3B:06:4D:C8,15,15,9992.966922174766,12034.979935936406,-29886.785893333014
17050,-5887,16637,29203,-23797,32540,-31005,26355,-4334,-10806,15,-1,5780,2020-11-02 14:34:50,2020-11-02 14:35:20,3,D7:F2:3B:06:4D:C8,15,15,6265.79079967564,11019.299993176792,-31679.277774518057
17051,8705,25090,-30962,-13553,16403,-21017,-32017,16403,-14142,15,-1,5806,2020-11-02 14:34:50,2020-11-02 14:35:20,3,D7:F2:3B:06:4D:C8,15,15,29195.58940102966,-24654.33449766176,-14272.768442173006
17052,12796,-11515,24331,-4335,-24312,-4884,8686,23826,21181,15,-1,5831,2020-11-02 14:34:50,2020-11-02 14:35:20,3,D7:F2:3B:06:4D:C8,15,15,14637.3295093197,24878.765859013227,7424.688287598114
17053,-25871,-17916,-17910,-13807,-28160,-22287,-11538,-1264,26042,15,-1,5857,2020-11-02 14:34:50,2020-11-02 14:35:20,3,D7:F2:3B:06:4D:C8,15,15,10227.976593767296,25350.799533682093,23744.162541568236
17054,22249,2048,-2039,-13292,-12033,-11274,-18448,-7921,25925,15,-1,5882,2020-11-02 14:34:50,2020-11-02 14:35:20,3,D7:F2:3B:06:4D:C8,15,15,-8658.44945573733,-6482.8718415841295,19656.38450244697
17055,6629,-29443,1287,8218,14850,-23557,-18957,-30961,21828,15,-1,5908,2020-11-02 14:34:50,2020-11-02 14:35:20,3,D7:F2:3B:06:4D:C8,15,15,-8735.520061458134,-28381.239214219735,-5539.513419164033
17056,-16412,-31493,30718,-12770,9992,-4098,-29449,18960,27203,15,-1,5934,2020-11-02 14:34:50,2020-11-02 14:35:20,3,D7:F2:3B:06:4D:C8,15,15,-37691.6910565049,15091.470209598412,23586.908852450164
17057,19683,31993,22508,14876,8202,-5119,-12805,-6639,-2750,15,-1,5959,2020-11-02 14:34:50,2020-11-02 14:35:20,3,D7:F2:3B:06:4D:C8,15,15,42995.88098641364,7152.680741339716,-4216.156829936729
17058,-12576,-6924,17379,15886,-25334,30727,31487,-13549,-16829,15,-1,5985,2020-11-02 14:34:50,2020-11-02 14:35:20,3,D7:F2:3B:06:4D:C8,15,15,15567.61343672503,-1310.7804973798757,-16249.875672520906
17059,-25123,-15119,32497,5374,-22006,10255,-27902,-27627,15290,15,-1,6010,2020-11-02 14:34:50,2020-11-02 14:35:20,3,D7:F2:3B:06:4D:C8,15,15,16836.652762283262,-1437.3586301409196,40376.54545563128
17060,-15649,-20502,29446,-7692,16908,20501,10246,-4330,192,15,-1,6036,2020-11-02 14:34:50,2020-11-02 14:35:20,3,D7:F2:3B:06:4D:C8,15,15,-15649.0,-35855.23249356192,-1342.096431938251
17061,28904,-16414,16400,-17684,28680,19482,14602,15383,-22585,15,-1,6061,2020-11-02 14:34:50,2020-11-02 14:35:20,3,D7:F2:3B:06:4D:C8,15,15,30346.73791612951,12489.36286550608,-17231.132437058954
17062,3065,-26908,26387,26856,-31233,13086,-17396,31509,-12082,15,-1,6087,2020-11-02 14:34:50,2020-11-02 14:35:20,3,D7:F2:3B:06:4D:C8,15,15,18337.556661551436,-32892.61737072223,-3393.8468126378893
17063,17675,-6680,-22256,19430,28412,2586,-4596,-21230,2004,15,-1,6113,2020-11-02 14:34:50,2020-11-02 14:35:20,3,D7:F2:3B:06:4D:C8,15,15,-14357.35047803247,-6680.0,24527.569146797665
17064,24584,17391,23830,-30493,-15613,-26357,-10486,14609,9943,15,1,6138,2020-11-02 14:34:50,2020-11-02 14:35:20,3,D7:F2:3B:06:4D:C8,15,15,-31171.778234682177,5956.8578646027545,-21622.324645345496
17065,22272,-12309,-30174,230,10503,3838,4871,-9711,3800,15,1,6164,2020-11-02 14:34:50,2020-11-02 14:35:20,3,D7:F2:3B:06:4D:C8,15,15,37424.15845188868,-12309.0,2438.159996376222
17066,28412,25064,-24305,2794,5125,24059,-5630,-11758,14551,15,1,6189,2020-11-02 14:34:50,2020-11-02 14:35:20,3,D7:F2:3B:06:4D:C8,15,15,-27067.334308176956,-1085.5364570169586,35949.40735324957
17067,-16636,-27165,15625,9187,19713,-26881,31998,11795,-23850,15,1,6215,2020-11-02 14:34:50,2020-11-02 14:35:20,3,D7:F2:3B:06:4D:C8,15,15,-28149.64048847705,21458.4969431289,2442.3339884670295
17068,-21753,24814,-16098,21215,5637,14070,20728,17939,12501,15,1,6240,2020-11-02 14:34:50,2020-11-02 14:35:20,3,D7:F2:3B:06:4D:C8,15,15,10168.39110470209,31353.913831698315,-16174.335188076577
17069,3840,15362,7726,13040,28688,-18449,27377,-27117,-12592,15,1,6266,2020-11-02 14:34:50,2020-11-02 14:35:20,3,D7:F2:3B:06:4D:C8,15,15,2482.705534431413,15503.506004067012,7994.072479729077
17070,-5370,23561,-15067,10499,17166,-18192,-3348,-26349,-24117,15,1,6292,2020-11-02 14:34:50,2020-11-02 14:35:20,3,D7:F2:3B:06:4D:C8,15,15,-12672.025650236723,-21373.69496368097,13912.477835355616
17071,-30713,-9721,-5098,11534,-19705,-28688,-15381,-19950,-12601,15,1,6317,2020-11-02 14:34:50,2020-11-02 14:35:20,3,D7:F2:3B:06:4D:C8,15,15,-12546.218947011477,-25995.655309519814,-15185.325454605318
17072,-6149,-21503,-9207,-22255,18693,21485,4332,10257,32452,15,1,6343,2020-11-02 14:34:50,2020-11-02 14:35:20,3,D7:F2:3B:06:4D:C8,15,15,-23759.815953234134,4515.4565702616665,199.64175545579292
17073,26602,23809,-6902,-9968,25602,24814,-15892,23055,-26943,15,1,6368,2020-11-02 14:34:50,2020-11-02 14:35:20,3,D7:F2:3B:06:4D:C8,15,15,14325.10663312535,8173.772764341193,32406.068069830722
17074,30946,-9471,-4589,29974,-16893,-17934,25326,-1779,25791,15,1,6394,2020-11-02 14:34:50,2020-11-02 14:35:20,3,D7:F2:3B:06:4D:C8,15,15,-18170.899341934175,-25196.412112821108,10167.247009204502
17075,-26143,6653,-31222,-6878,-6899,-27400,-25871,12558,-5444,15,1,6420,2020-11-02 14:34:50,2020-11-02 14:35:20,3,D7:F2:3B:06:4D:C8,15,15,34014.64313072761,19280.196498898524,13183.710314365468
17076,-17433,13046,21749,3364,-22766,-9219,-22027,17424,26042,15,1,6445,2020-11-02 14:34:50,2020-11-02 14:35:20,3,D7:F2:3B:06:4D:C8,15,15,-16576.65893849774,-4129.213086486135,25598.644177438662
17077,-26648,8178,18156,-24298,22797,31491,13817,-18158,-6075,15,1,6471,2020-11-02 14:34:50,2020-11-02 14:35:20,3,D7:F2:3B:06:4D:C8,15,15,-2492.764878504122,-32972.02954722889,-3642.4325384502636
17078,6376,6895,9719,3333,28428,-2041,27643,-2796,-6983,15,1,6496,2020-11-02 14:34:50,2020-11-02 14:35:20,3,D7:F2:3B:06:4D:C8,15,15,5841.889765016109,-3826.172913222115,-11570.91555632161
17079,-14107,-2844,24317,-27146,-29175,-13554,-6660,6935,23740,15,1,6522,2020-11-02 14:34:50,2020-11-02 14:35:20,3,D7:F2:3B:06:4D:C8,15,15,10762.148683020381,-16493.099385344314,20262.43081147269
17080,-12818,16097,-1020,20968,8444,13078,-15106,-19177,-6975,15,1,6548,2020-11-02 14:34:50,2020-11-02 14:35:20,3,D7:F2:3B:06:4D:C8,15,15,1522.7282696591515,-16486.197751116633,12261.38309196225
17081,-31752,-29219,-22519,16097,-21004,-13031,31232,27926,-2360,15,-1,6573,2020-11-02 14:34:50,2020-11-02 14:35:20,3,D7:F2:3B:06:4D:C8,15,15,4384.082619941582,-29882.341138189222,-38168.97082293953
17082,3337,19682,-10733,8414,9967,-9704,27136,1044,18383,15,-1,6599,2020-11-02 14:34:50,2020-11-02 14:35:20,3,D7:F2:3B:06:4D:C8,15,15,-341.80999416080795,21248.657165932556,-7879.829729921496
17083,20247,10471,3869,-20767,5617,-20720,-9474,19729,-5933,15,-1,6625,2020-11-02 14:34:50,2020-11-02 14:35:20,3,D7:F2:3B:06:4D:C8,15,15,-3842.2906763621004,22480.623666425658,3796.0996992812793
17084,-13043,4844,-9432,23272,17153,-23300,26107,5904,-1324,15,-1,6652,2020-11-02 14:34:50,2020-11-02 14:35:20,3,D7:F2:3B:06:4D:C8,15,15,-4944.145778074665,-10304.410835207715,12325.637868459398
17085,-28671,18163,4131,-17166,28179,-30737,31990,9745,-23343,15,-1,6676,2020-11-02 14:34:50,2020-11-02 14:35:20,3,D7:F2:3B:06:4D:C8,15,15,12163.682383076073,-28025.941121621472,15348.531725577244
17086,-30721,-19205,28189,-15110,6933,-4628,1521,21010,-13877,15,-1,6701,2020-11-02 14:34:50,2020-11-02 14:35:20,3,D7:F2:3B:06:4D:C8,15,15,-31775.009045147373,-23280.085564264013,-23571.550719062776
17087,17917,-7678,-30185,25348,26129,-274,2029,26642,6598,15,-1,6727,2020-11-02 14:34:50,2020-11-02 14:35:20,3,D7:F2:3B:06:4D:C8,15,15,12475.86502274212,5219.445477816338,33289.86300420028
17088,-12294,-3068,-3058,-10230,17935,-9489,-6934,-5103,14785,15,-1,6752,2020-11-02 14:34:50,2020-11-02 14:35:20,3,D7:F2:3B:06:4D:C8,15,15,8963.224544544184,-9418.241169363835,929.3885300458548
17089,12536,31236,7691,13583,-31988,-1808,-1047,11025,-1092,15,-1,6778,2020-11-02 14:34:50,2020-11-02 14:35:20,3,D7:F2:3B:06:4D:C8,15,15,13244.983050520532,31236.0,-6393.215231119928
17090,-6667,-25859,30216,-29419,-28410,27634,-14870,12816,-11079,15,-1,6829,2020-11-02 14:34:50,2020-11-02 14:35:20,3,D7:F2:3B:06:4D:C8,15,15,39048.31819309051,9954.511153831696,1509.9602575555118
17091,-789,27899,-11253,-9187,4099,16372,27885,5903,21316,15,-1,6831,2020-11-02 14:34:50,2020-11-02 14:35:20,3,D7:F2:3B:06:4D:C8,15,15,15658.902881483802,24790.609465836744,-6769.8725143553365
17092,-1561,-11281,3320,-987,8967,-15114,27889,-12786,322,15,-1,6854,2020-11-02 14:34:50,2020-11-02 14:35:20,3,D7:F2:3B:06:4D:C8,15,15,-5140.2480660046085,9886.337971384728,-4069.1833745227536
17093,7660,-9490,2270,25376,-15607,-5122,-20235,-20721,18240,15,-1,6880,2020-11-02 14:34:50,2020-11-02 14:35:20,3,D7:F2:3B:06:4D:C8,15,15,6009.556741179652,-10670.222191642493,1979.9459981328446
17094,4074,24563,3546,4618,26120,-3579,18168,17169,-193,15,-1,6906,2020-11-02 14:34:50,2020-11-02 14:35:20,3,D7:F2:3B:06:4D:C8,15,15,-1735.5573683822581,-24817.59724257703,-3686.0912531144695
17095,-24855,-7953,8681,-19470,17158,-23281,-12296,18707,-16319,15,-1,6931,2020-11-02 14:34:50,2020-11-02 14:35:20,3,D7:F2:3B:06:4D:C8,15,15,-265.289398551844,-27500.998964109698,-75.31607433477666
17096,30442,-27412,23304,18410,-4351,-12010,4857,-8428,-187,15,-1,6957,2020-11-02 14:34:50,2020-11-02 14:35:20,3,D7:F2:3B:06:4D:C8,15,15,-3161.7570347253095,-27412.0,38207.26465547312
17097,-18194,12514,3870,19947,3324,25628,7163,-22251,-321,15,-1,6982,2020-11-02 14:34:50,2020-11-02 14:35:20,3,D7:F2:3B:06:4D:C8,15,15,16230.8284111935,3504.8503444273415,-15062.36917452103
17098,-11266,18665,26650,-788,28916,6941,27134,-7660,-14905,15,1,7008,2020-11-02 14:34:50,2020-11-02 14:35:20,3,D7:F2:3B:06:4D:C8,15,15,-1267.5310737209911,-21917.963226568452,-26524.02182882424
17099,18702,32237,-4840,-1811,-11278,4632,32000,-12782,7118,15,1,7034,2020-11-02 14:34:50,2020-11-02 14:35:20,3,D7:F2:3B:06:4D:C8,15,15,7867.466207304208,20587.491113773303,30441.30020411795
17100,-19438,13297,27163,31979,14324,-3060,5376,-25072,-12079,15,1,7059,2020-11-02 14:34:50,2020-11-02 14:35:20,3,D7:F2:3B:06:4D:C8,15,15,-1751.177440696425,-35779.05641258847,-3044.1947697227843
17101,7939,14832,6686,2795,-15878,12543,25853,12047,-18478,15,1,7085,2020-11-02 14:34:50,2020-11-02 14:35:20,3,D7:F2:3B:06:4D:C8,15,15,16655.37780893455,7055.879489636647,-729.0374951779888
17102,2045,5364,4127,-23061,-7423,-27654,-20743,-8690,-10031,15,1,7110,2020-11-02 14:34:50,2020-11-02 14:35:20,3,D7:F2:3B:06:4D:C8,15,15,-1179.7033066725298,-6913.224938496618,-895.6958512655583
17103,-19712,10236,30750,3317,-17920,24824,-30218,-30706,-26416,15,1,7136,2020-11-02 14:34:50,2020-11-02 14:35:20,3,D7:F2:3B:06:4D:C8,15,15,12153.608209906874,26597.787755149067,24160.890588141126
17104,-510,5630,4116,-9988,18691,-1294,-27916,-5619,-20530,15,1,7161,2020-11-02 14:34:50,2020-11-02 14:35:20,3,D7:F2:3B:06:4D:C8,15,15,-454.0160675364996,6798.982748003666,1570.4009051090093
17105,-12285,13315,-8427,21763,3081,-13844,-10510,22029,26827,15,1,7187,2020-11-02 14:34:50,2020-11-02 14:35:20,3,D7:F2:3B:06:4D:C8,15,15,-6418.174437412545,-7588.752471353995,17333.28162292019
17106,-16385,22533,-6123,30988,-14582,18154,-3855,-17140,14535,15,1,7213,2020-11-02 14:34:50,2020-11-02 14:35:20,3,D7:F2:3B:06:4D:C8,15,15,-25643.67439412317,1885.6977201673908,-12350.771258360643
17107,-3846,-18430,7697,-11754,-759,27625,-23822,1036,-2878,15,1,7238,2020-11-02 14:34:50,2020-11-02 14:35:20,3,D7:F2:3B:06:4D:C8,15,15,-3846.0,6221.543126131245,-18978.96493831234
17108,-21266,6142,-29435,-1763,-19449,-8470,-10252,26123,-8258,15,1,7264,2020-11-02 14:34:50,2020-11-02 14:35:20,3,D7:F2:3B:06:4D:C8,15,15,-1922.8464456967758,-36705.640467363664,-2320.509518814024
17109,-26403,-10758,-3597,-14820,-26878,7155,-1289,7435,-9541,15,1,7289,2020-11-02 14:34:50,2020-11-02 14:35:20,3,D7:F2:3B:06:4D:C8,15,15,-18395.65381403224,8738.457859239825,20273.891017675192
17110,-24866,6652,32482,8466,21505,-31232,-262,19467,-1350,15,-1,7315,2020-11-02 14:34:50,2020-11-02 14:35:20,3,D7:F2:3B:06:4D:C8,15,15,29201.013522267283,6652.0,-28647.846154159008
17111,-22810,23803,-27659,18179,-12541,-20217,-23556,5644,-11845,15,-1,7341,2020-11-02 14:34:50,2020-11-02 14:35:20,3,D7:F2:3B:06:4D:C8,15,15,14378.620119719895,18504.817265353595,36093.29870528125
17112,-19998,-28167,-13839,15110,30211,-5353,9471,23565,-11330,15,-1,7366,2020-11-02 14:34:50,2020-11-02 14:35:20,3,D7:F2:3B:06:4D:C8,15,15,16804.676471842366,-32785.76744607459,5245.389942475493
17113,-5658,19955,24570,28669,-16897,26912,13058,28173,14532,15,-1,7392,2020-11-02 14:34:50,2020-11-02 14:35:20,3,D7:F2:3B:06:4D:C8,15,15,28821.39410759125,10665.534400477987,-9459.043643367178
17114,5360,-30224,-10998,17913,11524,-16353,-22012,6925,11978,15,-1,7417,2020-11-02 14:34:50,2020-11-02 14:35:20,3,D7:F2:3B:06:4D:C8,15,15,-32307.740062016062,2421.86038153526,3676.996651827703
17115,-12045,-9239,-1005,22516,15364,-8420,3078,-16628,-25905,15,-1,7443,2020-11-02 14:34:50,2020-11-02 14:35:20,3,D7:F2:3B:06:4D:C8,15,15,3118.388781078419,10524.076682720295,-10534.259935385458
17116,11518,2282,-17644,5104,258,1817,11014,4364,16596,15,-1,7468,2020-11-02 14:34:50,2020-11-02 14:35:20,3,D7:F2:3B:06:4D:C8,15,15,-19414.576333589965,3781.6949376815273,-7612.857097405838
17117,-20220,-26,-21733,25839,25088,32019,16133,17419,-7465,15,-1,7494,2020-11-02 14:34:50,2020-11-02 14:35:20,3,D7:F2:3B:06:4D:C8,15,15,28141.42310483098,-7232.266411831122,-6076.758443708649
17118,28171,-22294,27162,15343,32512,-18164,-16637,-19190,27098,15,-1,7520,2020-11-02 14:34:50,2020-11-02 14:35:20,3,D7:F2:3B:06:4D:C8,15,15,44769.84882312963,-143.78014948539203,-4903.252453497826
17119,-26356,23527,-1769,-5910,16642,19717,21249,-23030,-13605,15,-1,7545,2020-11-02 14:34:50,2020-11-02 14:35:20,3,D7:F2:3B:06:4D:C8,15,15,-29718.292632740206,-9565.986084076707,16631.38055706952
17120,-7422,-15896,-8417,13292,-15358,-15361,-3075,-4086,-4389,15,-1,7571,2020-11-02 14:34:50,2020-11-02 14:35:20,3,D7:F2:3B:06:4D:C8,15,15,-7422.0,-15896.0,-8417.0
17121,1293,-13841,5141,-5390,2052,-5892,21499,18699,32475,15,-1,7622,2020-11-02 14:34:50,2020-11-02 14:35:20,3,D7:F2:3B:06:4D:C8,15,15,11798.91837108004,5861.616487577378,6789.844506699023
17122,-28393,-29450,19473,10230,16135,11253,-13320,-23541,986,15,-1,7624,2020-11-02 14:34:50,2020-11-02 14:35:20,3,D7:F2:3B:06:4D:C8,15,15,32692.327568189437,29962.273128889843,9280.979750220695
17123,-5357,-19205,10001,15870,-4335,-7960,-1035,19468,6870,15,-1,7647,2020-11-02 14:34:50,2020-11-02 14:35:20,3,D7:F2:3B:06:4D:C8,15,15,19788.434908464886,-4726.254472788245,-9144.935075324345
17124,-16116,-2,16149,-23545,4883,-18973,32243,-17652,13008,15,-1,7676,2020-11-02 14:34:50,2020-11-02 14:35:20,3,D7:F2:3B:06:4D:C8,15,15,-20450.93696638223,7475.446883972806,-6811.20636025382
17125,-21502,10498,-9958,2576,21263,995,21234,19468,15818,15,-1,7699,2020-11-02 14:34:50,2020-11-02 14:35:20,3,D7:F2:3B:06:4D:C8,15,15,-1351.9284550846348,24551.365905564882,-8191.9773939750685
17126,30707,-32001,-6119,-18151,2314,8164,2803,21003,-5436,15,-1,7724,2020-11-02 14:34:50,2020-11-02 14:35:20,3,D7:F2:3B:06:4D:C8,15,15,-31263.212922428207,-32001.0,1724.3919992037827
17127,19425,24821,-25332,-18653,-20990,-24599,-779,12042,-17216,15,-1,7750,2020-11-02 14:34:50,2020-11-02 14:35:20,3,D7:F2:3B:06:4D:C8,15,15,34309.301198569985,-20181.234915351983,-7121.270852676656
17128,-23591,8178,-8212,-6620,-31744,2292,-29190,-29175,7614,15,-1,7775,2020-11-02 14:34:50,2020-11-02 14:35:20,3,D7:F2:3B:06:4D:C8,15,15,-9337.837655984555,4325.274984972408,24185.712584392644
17129,7133,28149,-29986,-27630,-27644,8188,2814,10,-7236,15,1,7801,2020-11-02 14:34:50,2020-11-02 14:35:20,3,D7:F2:3B:06:4D:C8,15,15,27540.54309911492,9206.75707324754,-29986.0
17130,-25386,-8970,7924,-22008,-9459,-16888,-2049,-7925,21949,15,1,7827,2020-11-02 14:34:50,2020-11-02 14:35:20,3,D7:F2:3B:06:4D:C8,15,15,21445.784639705078,6003.6522692892995,-17080.22694863412
17131,-28962,6131,-24071,-11778,29448,4630,5634,-20723,28608,15,1,7852,2020-11-02 14:34:50,2020-11-02 14:35:20,3,D7:F2:3B:06:4D:C8,15,15,-16321.78196646447,-28277.435486437585,19742.991712239447
17132,6889,-11543,-12797,6899,12036,27933,-14077,7950,-27707,15,1,7878,2020-11-02 14:34:50,2020-11-02 14:35:20,3,D7:F2:3B:06:4D:C8,15,15,-5964.101699302621,17358.607845259718,2751.4729863953585
17133,32756,7144,277,-13334,-28929,-31713,2564,-24819,11467,15,1,7903,2020-11-02 14:34:50,2020-11-02 14:35:20,3,D7:F2:3B:06:4D:C8,15,15,2326.7566014331223,-22251.073364782955,-24970.881819285718
17134,-5121,-32030,17689,32491,-25608,22308,-8189,-1525,2513,15,1,7929,2020-11-02 14:34:50,2020-11-02 14:35:20,3,D7:F2:3B:06:4D:C8,15,15,-5121.0,-2421.102606689634,36509.72313189845
17135,2070,10975,-14317,2537,20472,-26592,3331,-15095,-21034,15,1,7954,2020-11-02 14:34:50,2020-11-02 14:35:20,3,D7:F2:3B:06:4D:C8,15,15,-10486.534127938396,-12580.761797108287,7840.219932374599
17136,-24027,11230,-21991,-15135,22015,-18162,8192,-21240,20442,15,1,7980,2020-11-02 14:34:50,2020-11-02 14:35:20,3,D7:F2:3B:06:4D:C8,15,15,-27355.939535640326,-20921.2827220185,-982.9605219746991
17137,-22246,19945,-30663,-11800,12043,29685,-32261,14345,2010,15,1,8006,2020-11-02 14:34:50,2020-11-02 14:35:20,3,D7:F2:3B:06:4D:C8,15,15,18739.58429492702,35061.13732305986,15888.729970229318
17138,-14851,4337,-8154,-1025,-28912,-12822,-30728,32266,14550,15,1,8031,2020-11-02 14:34:50,2020-11-02 14:35:20,3,D7:F2:3B:06:4D:C8,15,15,-5738.825741807825,-9205.913916628837,-13717.380000013973
17139,767,7926,19210,25601,7689,-530,8695,10251,28882,15,1,8057,2020-11-02 14:34:50,2020-11-02 14:35:20,3,D7:F2:3B:06:4D:C8,15,15,-7207.182339412109,-17524.646214458226,8566.047092127219
