id,accelerationx,accelerationy,accelerationz,angularvelocityx,angularvelocityy,angularvelocityz,pitch,roll,yaw,mdlcircle_id,hallsensor,timestamp,starttime,endtime,train_mode,blemac,training_id,training_handle_id,accelerationWorldx,accelerationWorldy,accelerationWorldz
23586,-18931,-27136,1790,-7425,5376,-2561,12230,-8994,-13368,21,1,23138,2020-11-02 14:41:45,2020-11-02 14:42:14,2,D7:F2:3B:06:4D:C8,21,21,4143.507638037207,-14171.049281922005,-29664.154525333524
23587,14358,22015,17917,-513,22784,5632,31686,-8994,31944,21,1,23164,2020-11-02 14:41:45,2020-11-02 14:42:14,2,D7:F2:3B:06:4D:C8,21,21,28490.050759488608,-13727.356754258095,3421.6899717957167
23588,15627,21501,-4099,-10241,-3841,-2305,-26426,-9250,23752,21,1,23189,2020-11-02 14:41:45,2020-11-02 14:42:14,2,D7:F2:3B:06:4D:C8,21,21,-3383.673180171923,12837.401743130555,23389.095820387196
23589,12816,-7175,19197,-16897,-3841,-1281,-30266,-8482,25288,21,1,23215,2020-11-02 14:41:45,2020-11-02 14:42:14,2,D7:F2:3B:06:4D:C8,21,21,-20787.224279379443,7208.702304814793,10009.05629114632
23590,-22767,-16135,-7683,-14593,5376,3328,-24890,-8482,17608,21,1,23240,2020-11-02 14:41:45,2020-11-02 14:42:14,2,D7:F2:3B:06:4D:C8,21,21,3880.2379309635357,-17079.556320113385,-23042.03794170964
23591,-32498,-1543,1022,-14081,2816,4352,-13882,-8994,4552,21,1,23266,2020-11-02 14:41:45,2020-11-02 14:42:14,2,D7:F2:3B:06:4D:C8,21,21,-18381.487427089076,1571.4165390080875,-26817.84680075375
23592,12299,-17667,-1027,-9985,-1025,-3329,-5946,-9506,-4921,21,1,23292,2020-11-02 14:41:45,2020-11-02 14:42:14,2,D7:F2:3B:06:4D:C8,21,21,-5397.430792091943,-10409.711539170134,18081.721862583938
23593,-3311,2,19453,-10753,1792,-5121,-1082,-9250,-11065,21,1,23317,2020-11-02 14:41:45,2020-11-02 14:42:14,2,D7:F2:3B:06:4D:C8,21,21,-9809.167392146584,15280.574700397432,7724.3903253539775
23594,27926,2300,-8963,-6657,3584,-9729,-7226,-8482,-6457,21,1,23343,2020-11-02 14:41:45,2020-11-02 14:42:14,2,D7:F2:3B:06:4D:C8,21,21,5933.231992843648,-20899.506773906185,19836.6887288818
23595,-20469,3835,7166,-2049,-6401,-17921,28870,-8994,22216,21,1,23368,2020-11-02 14:41:45,2020-11-02 14:42:14,2,D7:F2:3B:06:4D:C8,21,21,8455.366253533992,-9245.238947532494,-18112.732547068288
23596,-25584,31234,-1540,5120,-13568,-1537,-18234,-11810,4552,21,1,23394,2020-11-02 14:41:45,2020-11-02 14:42:14,2,D7:F2:3B:06:4D:C8,21,21,13268.345076792928,-31138.75045123051,-22063.649998564077
23597,22290,-3078,26621,3072,21251,11009,4554,-24610,-18492,21,1,23419,2020-11-02 14:41:45,2020-11-02 14:42:14,2,D7:F2:3B:06:4D:C8,21,21,-5955.6772267836695,2260.153273320591,-34269.77445142393
23598,-2553,-7682,26109,-17921,9733,-29438,-29997,31198,12987,21,1,23445,2020-11-02 14:41:45,2020-11-02 14:42:14,2,D7:F2:3B:06:4D:C8,21,21,25064.32111941759,10632.602986009086,-2436.8780364696113
23599,23825,17665,-26118,28671,8198,-8957,10463,-8226,7484,21,1,23471,2020-11-02 14:41:45,2020-11-02 14:42:14,2,D7:F2:3B:06:4D:C8,21,21,-19912.016784746625,27330.24619851428,20454.877273955102
23600,18954,10491,9718,30205,31237,-10492,-1820,-17441,1846,21,1,23496,2020-11-02 14:41:45,2020-11-02 14:42:14,2,D7:F2:3B:06:4D:C8,21,21,-20135.722018890632,10491.0,-6945.958449196405
23601,-30454,12802,752,4856,21251,2309,-18715,-23328,27444,21,1,23522,2020-11-02 14:41:45,2020-11-02 14:42:14,2,D7:F2:3B:06:4D:C8,21,21,-21260.812096091395,-5388.982373182315,24715.168662103522
23602,18696,-30724,17393,26610,-23551,-22778,31203,-28191,-6604,21,-1,23547,2020-11-02 14:41:45,2020-11-02 14:42:14,2,D7:F2:3B:06:4D:C8,21,21,14162.623507337034,-7318.317512610334,-36631.72621067762
23603,8977,-31238,-27670,-16660,-11774,32008,-32288,-13086,19509,21,-1,23573,2020-11-02 14:41:45,2020-11-02 14:42:14,2,D7:F2:3B:06:4D:C8,21,21,-32826.46335625814,-13171.740797829018,23894.69859351752
23604,22797,-15888,8943,30949,-22524,-23288,-1571,13796,6964,21,-1,23624,2020-11-02 14:41:45,2020-11-02 14:42:14,2,D7:F2:3B:06:4D:C8,21,21,12637.15299217388,-9724.56043485714,-24450.85459858616
23605,-24047,24301,242,27874,30466,-23545,-16678,-31515,-9166,21,-1,23626,2020-11-02 14:41:45,2020-11-02 14:42:14,2,D7:F2:3B:06:4D:C8,21,21,-23510.719647563317,18306.14826239706,16762.648103710144
23606,10774,-21016,-1032,2530,-3327,-17404,7383,30694,-13775,21,-1,23650,2020-11-02 14:41:45,2020-11-02 14:42:14,2,D7:F2:3B:06:4D:C8,21,21,-18086.76105993519,-14321.027013098063,5156.899810053292
23607,24093,27114,5373,8165,24068,15104,-2349,-19482,-32464,21,-1,23675,2020-11-02 14:41:45,2020-11-02 14:42:14,2,D7:F2:3B:06:4D:C8,21,21,-32981.23519934347,-15908.031709111281,-1919.2253300478123
23608,-16353,-13333,25089,15338,4867,1529,9169,-5403,-25041,21,-1,23701,2020-11-02 14:41:45,2020-11-02 14:42:14,2,D7:F2:3B:06:4D:C8,21,21,32118.28743444108,6132.265318044468,2336.311911482073
23609,22557,-8467,10239,-11282,14593,-20494,27340,27876,-24271,21,-1,23727,2020-11-02 14:41:45,2020-11-02 14:42:14,2,D7:F2:3B:06:4D:C8,21,21,-556.2474040797588,-19677.897027282073,17257.358326497655
23610,-1768,22511,-31743,-29710,-2560,-13329,-7996,-8990,10039,21,-1,23752,2020-11-02 14:41:45,2020-11-02 14:42:14,2,D7:F2:3B:06:4D:C8,21,21,28135.36417837212,16892.440103655004,-20988.943372518854
23611,-23272,2801,-20736,1526,514,32750,-6471,-4127,-18112,21,-1,23778,2020-11-02 14:41:45,2020-11-02 14:42:14,2,D7:F2:3B:06:4D:C8,21,21,20790.307872683024,19060.027284646734,-13560.668842928664
23612,22037,-13071,14082,-14088,-6398,-7187,4922,16354,-25921,21,-1,23803,2020-11-02 14:41:45,2020-11-02 14:42:14,2,D7:F2:3B:06:4D:C8,21,21,7516.7600960340405,11294.070602168018,-25898.36714721441
23613,17674,18162,-8697,-24324,-15868,-6162,-11728,-26397,26568,21,-1,23829,2020-11-02 14:41:45,2020-11-02 14:42:14,2,D7:F2:3B:06:4D:C8,21,21,2225.443814146739,26238.21215531235,-4946.71120269773
23614,-12032,18933,9230,6915,-29944,-17417,29227,-18716,8398,21,-1,23854,2020-11-02 14:41:45,2020-11-02 14:42:14,2,D7:F2:3B:06:4D:C8,21,21,-4346.410436134389,19552.14484133788,13683.667689037422
23615,32260,-17165,-10480,-27636,-4605,-13063,-5336,13541,13266,21,-1,23880,2020-11-02 14:41:45,2020-11-02 14:42:14,2,D7:F2:3B:06:4D:C8,21,21,25160.463802346312,-13729.156373310512,-24972.71614238244
23616,-19704,-11788,-6648,-12523,-15877,-25351,-3797,-539,-3631,21,-1,23905,2020-11-02 14:41:45,2020-11-02 14:42:14,2,D7:F2:3B:06:4D:C8,21,21,-19704.0,-11788.0,-6648.0
23617,-13821,-5649,-17659,22812,18676,-19212,-13776,-13849,-6448,21,-1,23931,2020-11-02 14:41:45,2020-11-02 14:42:14,2,D7:F2:3B:06:4D:C8,21,21,-14560.012792330857,-2692.2733101137146,-17763.14203373973
23618,14074,-24086,2816,10531,29431,-9996,-4299,9962,-20016,21,-1,23957,2020-11-02 14:41:45,2020-11-02 14:42:14,2,D7:F2:3B:06:4D:C8,21,21,-13273.000653293564,22437.45696771031,-10321.371346861653
23619,29430,-14106,-9996,13096,-23036,19966,13883,-11542,-31279,21,-1,23982,2020-11-02 14:41:45,2020-11-02 14:42:14,2,D7:F2:3B:06:4D:C8,21,21,-15583.657493091883,56.25316851990942,30367.262087962965
23620,-20993,14827,-32030,19238,7444,16652,5698,-32536,-16944,21,-1,24008,2020-11-02 14:41:45,2020-11-02 14:42:14,2,D7:F2:3B:06:4D:C8,21,21,28741.95148295664,27173.05895973105,11044.99749761613
23621,16905,-9,28108,4885,8476,32533,-17472,1253,21449,21,-1,24033,2020-11-02 14:41:45,2020-11-02 14:42:14,2,D7:F2:3B:06:4D:C8,21,21,-17296.84731618818,-1550.0924417255756,-27825.43901437278
23622,14092,10485,6623,-12804,-29927,23574,23504,3556,19526,21,-1,24060,2020-11-02 14:41:45,2020-11-02 14:42:14,2,D7:F2:3B:06:4D:C8,21,21,-13691.151097396842,3811.388272639527,-12264.15586428333
23623,-31217,-18194,9202,23796,18706,-21995,24025,16102,7227,21,-1,24085,2020-11-02 14:41:45,2020-11-02 14:42:14,2,D7:F2:3B:06:4D:C8,21,21,-5038.47920565731,27052.91904540706,25158.553762424643
23624,15124,-16148,13044,-1039,24084,-16875,5341,30185,-24268,21,-1,24110,2020-11-02 14:41:45,2020-11-02 14:42:14,2,D7:F2:3B:06:4D:C8,21,21,17592.556214499207,4335.557584540884,18202.86027718763
23625,-19434,25834,-21259,20461,29969,-24301,17886,-15380,-5329,21,-1,24136,2020-11-02 14:41:45,2020-11-02 14:42:14,2,D7:F2:3B:06:4D:C8,21,21,-14364.924224360468,-22575.39590583119,-27946.760898597215
23626,29471,-19992,15351,12778,28171,2831,-3364,29167,18989,21,-1,24161,2020-11-02 14:41:45,2020-11-02 14:42:14,2,D7:F2:3B:06:4D:C8,21,21,9118.255364563911,18894.316667745537,32614.95550764334
23627,-32477,5352,-24068,17641,32011,-763,-2086,-10768,-2774,21,1,24187,2020-11-02 14:41:45,2020-11-02 14:42:14,2,D7:F2:3B:06:4D:C8,21,21,2705.1256746768777,5352.0,-40332.449071240444
23628,-3041,-26138,19965,-16918,15116,-31493,3289,29936,-20696,21,1,24212,2020-11-02 14:41:45,2020-11-02 14:42:14,2,D7:F2:3B:06:4D:C8,21,21,16118.719555912394,28699.888060982208,2747.226813522708
23629,-6127,-27681,-20735,-29973,8724,19953,-18217,29678,-2267,21,1,24238,2020-11-02 14:41:45,2020-11-02 14:42:14,2,D7:F2:3B:06:4D:C8,21,21,-25168.19797811896,24477.85893127558,1055.626673962317
23630,-12782,12005,2559,-13842,13579,-12047,7382,-1045,29732,21,1,24264,2020-11-02 14:41:45,2020-11-02 14:42:14,2,D7:F2:3B:06:4D:C8,21,21,529.2535567697996,13486.079727328259,11484.492773335367
23631,21265,2795,-20985,-28940,-20469,8692,-27947,-23575,-30686,21,1,24289,2020-11-02 14:41:45,2020-11-02 14:42:14,2,D7:F2:3B:06:4D:C8,21,21,-14021.34429321593,2147.4805905273734,-26441.87410764239
23632,-2029,-30226,17663,-10758,12042,-12558,23510,23783,25632,21,1,24315,2020-11-02 14:41:45,2020-11-02 14:42:14,2,D7:F2:3B:06:4D:C8,21,21,29806.38249300033,-16166.133309892948,-8941.206992779727
23633,6423,-27668,16378,-30981,19975,-19986,1239,-14108,-5090,21,1,24340,2020-11-02 14:41:45,2020-11-02 14:42:14,2,D7:F2:3B:06:4D:C8,21,21,-17565.38438769331,-27668.0,-975.2355164677447
23634,-27620,-17942,-5889,22012,-18173,-7191,470,-18207,19487,21,1,24366,2020-11-02 14:41:45,2020-11-02 14:42:14,2,D7:F2:3B:06:4D:C8,21,21,-25360.71540847815,21738.451995090356,1932.3311898664906
23635,23837,21223,-28666,28672,-12030,-5406,25032,6622,-14292,21,1,24392,2020-11-02 14:41:45,2020-11-02 14:42:14,2,D7:F2:3B:06:4D:C8,21,21,-38637.38766542111,1042.6649310900257,-18612.441490396675
23636,-16881,-4634,-1021,-12027,-22526,14558,-22746,-7456,13007,21,1,24417,2020-11-02 14:41:45,2020-11-02 14:42:14,2,D7:F2:3B:06:4D:C8,21,21,338.0575210727552,-11416.490809992409,-13305.412909707275
23637,-32254,-14869,-14843,-9463,8,-13854,-31965,32485,-16685,21,-1,24443,2020-11-02 14:41:45,2020-11-02 14:42:14,2,D7:F2:3B:06:4D:C8,21,21,5544.55912083558,-11952.239437845972,-36167.999150851
23638,11264,753,32005,23055,5898,-24598,-30686,8937,5079,21,-1,24468,2020-11-02 14:41:45,2020-11-02 14:42:14,2,D7:F2:3B:06:4D:C8,21,21,14332.951530714548,-30476.77378493994,-4183.000129068284
23639,-25087,28660,15615,25876,-31225,-9747,-30941,-1045,18137,21,-1,24494,2020-11-02 14:41:45,2020-11-02 14:42:14,2,D7:F2:3B:06:4D:C8,21,21,25801.745126895396,3235.0768760576902,31912.154737853823
23640,13051,20723,15100,3862,29185,-14867,-1755,-25362,30170,21,-1,24519,2020-11-02 14:41:45,2020-11-02 14:42:14,2,D7:F2:3B:06:4D:C8,21,21,20693.561288582663,3100.3136696296824,-19747.04804130431
23641,-14104,31984,17411,-26855,14835,18159,-2775,-30479,-4903,21,-1,24571,2020-11-02 14:41:45,2020-11-02 14:42:14,2,D7:F2:3B:06:4D:C8,21,21,12695.059082386562,31984.0,18463.510280949136
23642,21472,-12821,-9979,-24544,27894,7679,26415,-24589,16600,21,-1,24573,2020-11-02 14:41:45,2020-11-02 14:42:14,2,D7:F2:3B:06:4D:C8,21,21,-22.60372829033804,-1940.8515925411475,-26855.871800542947
23643,-2059,2525,31744,1067,32524,-13293,-4555,-11279,17879,21,-1,24596,2020-11-02 14:41:45,2020-11-02 14:42:14,2,D7:F2:3B:06:4D:C8,21,21,27189.35921965786,-6426.273546584656,15418.767639758771
23644,24837,475,2788,-20947,11535,15388,9535,-18195,13780,21,-1,24622,2020-11-02 14:41:45,2020-11-02 14:42:14,2,D7:F2:3B:06:4D:C8,21,21,12244.205229087773,-21733.306620855343,1618.0110110455983
23645,-16613,-27149,-11584,-24805,3082,-23783,17853,-20245,-21043,21,-1,24648,2020-11-02 14:41:45,2020-11-02 14:42:14,2,D7:F2:3B:06:4D:C8,21,21,-11191.614132011962,-30395.585060911973,-9904.807313876174
23646,-14575,-20747,2775,-17917,14090,-25331,-8254,23531,-9784,21,-1,24673,2020-11-02 14:41:45,2020-11-02 14:42:14,2,D7:F2:3B:06:4D:C8,21,21,-10072.006692054178,-738.9725391016013,-23421.739042643043
23647,-30714,21231,-12827,-11778,-10732,-5869,-31801,-32022,6083,21,-1,24699,2020-11-02 14:41:45,2020-11-02 14:42:14,2,D7:F2:3B:06:4D:C8,21,21,-11462.244535480604,16060.281881180332,34195.34152638157
23648,23325,-29457,-27684,28920,-16369,-9961,-31027,-10006,-3910,21,-1,24724,2020-11-02 14:41:45,2020-11-02 14:42:14,2,D7:F2:3B:06:4D:C8,21,21,42979.6002351768,18191.022622584067,122.43189545823225
23649,-22480,-12054,-17959,2028,-9,6927,29389,7917,-21180,21,-1,24750,2020-11-02 14:41:45,2020-11-02 14:42:14,2,D7:F2:3B:06:4D:C8,21,21,3726.323750631391,21380.408379513654,22409.09738991517
23650,26165,-20756,26857,-30232,15353,23043,-18743,-4626,-5308,21,-1,24775,2020-11-02 14:41:45,2020-11-02 14:42:14,2,D7:F2:3B:06:4D:C8,21,21,26165.0,24338.3443159027,-23659.14159390756
23651,-2008,19952,24305,-21012,-1793,-11528,-5435,-15890,-15803,21,-1,24801,2020-11-02 14:41:45,2020-11-02 14:42:14,2,D7:F2:3B:06:4D:C8,21,21,26991.602779602665,11033.112714467301,-11940.318095344264
23652,10276,20465,28403,8688,-4356,9971,-13631,10734,20923,21,-1,24826,2020-11-02 14:41:45,2020-11-02 14:42:14,2,D7:F2:3B:06:4D:C8,21,21,17409.118828393843,-19966.923851897198,-25087.59341809018
23653,-5088,8180,-32022,-30991,-28933,6639,7613,13038,-14146,21,-1,24852,2020-11-02 14:41:45,2020-11-02 14:42:14,2,D7:F2:3B:06:4D:C8,21,21,31581.524846102977,-6363.757277840245,8962.059456604577
23654,20503,-27406,12006,-2324,5123,-21779,28228,3310,-22846,21,-1,24878,2020-11-02 14:41:45,2020-11-02 14:42:14,2,D7:F2:3B:06:4D:C8,21,21,-16487.58612452348,-29623.109487739574,12893.283874320556
23655,19476,10738,23789,31467,11013,21484,25918,-275,-11578,21,-1,24903,2020-11-02 14:41:45,2020-11-02 14:42:14,2,D7:F2:3B:06:4D:C8,21,21,1883.5285388235006,-22280.745381303717,-23676.073291341
23656,27662,31986,-6421,30443,-32250,6378,11576,-21010,21963,21,-1,24929,2020-11-02 14:41:45,2020-11-02 14:42:14,2,D7:F2:3B:06:4D:C8,21,21,32602.282906440545,2900.465932300017,-27535.397721187564
23657,26372,-19215,-11027,29159,-4856,-535,-7375,8688,-21809,21,-1,24954,2020-11-02 14:41:45,2020-11-02 14:42:14,2,D7:F2:3B:06:4D:C8,21,21,-25387.02325107893,16240.721506613336,-16674.27219982344
23658,-2566,-24079,15859,17379,-2297,29421,-11477,7154,-2862,21,-1,24980,2020-11-02 14:41:45,2020-11-02 14:42:14,2,D7:F2:3B:06:4D:C8,21,21,11484.135487339387,24440.947569247128,10423.300438236685
23659,-25360,-15377,-19199,29409,-13312,-29198,27686,13556,31956,21,-1,25006,2020-11-02 14:41:45,2020-11-02 14:42:14,2,D7:F2:3B:06:4D:C8,21,21,4937.363823850512,-32479.941441209245,12994.582426786583
23660,19696,29936,-14838,-2076,-14095,-8965,-21470,-29195,4051,21,-1,25031,2020-11-02 14:41:45,2020-11-02 14:42:14,2,D7:F2:3B:06:4D:C8,21,21,15622.095502812006,-31730.354057823242,-15918.4647333278
23661,18935,30192,7450,-25619,30195,-13306,13088,3573,-16944,21,-1,25057,2020-11-02 14:41:45,2020-11-02 14:42:14,2,D7:F2:3B:06:4D:C8,21,21,-25464.253306905583,-9169.861582479336,24353.21397844477
23662,22278,18670,-10715,5118,30200,-5362,12063,-782,-22833,21,-1,25084,2020-11-02 14:41:45,2020-11-02 14:42:14,2,D7:F2:3B:06:4D:C8,21,21,-21776.529854994085,-5097.780615595489,21435.59631243811
23663,-9191,14057,10534,25874,31479,27662,4897,22768,-18482,21,-1,25108,2020-11-02 14:41:45,2020-11-02 14:42:14,2,D7:F2:3B:06:4D:C8,21,21,-8495.920028017945,-15410.161546898147,-9131.546965110852
23664,-14818,-28193,-32486,-30425,17394,7425,-1498,-274,-14388,21,1,25133,2020-11-02 14:41:45,2020-11-02 14:42:14,2,D7:F2:3B:06:4D:C8,21,21,-19469.35853054089,25206.39703347654,-32486.0
23665,11016,-13613,23301,11061,7143,-11281,28720,17649,-22583,21,1,25159,2020-11-02 14:41:45,2020-11-02 14:42:14,2,D7:F2:3B:06:4D:C8,21,21,10657.7183819972,-17150.012699641717,-21021.24471319828
23666,9965,19141,-31756,20284,-22542,-2067,-27591,23541,25545,21,1,25185,2020-11-02 14:41:45,2020-11-02 14:42:14,2,D7:F2:3B:06:4D:C8,21,21,30411.150218070023,17583.904300918282,-15494.866696752406
23667,-14599,6592,-31013,15680,-19439,22787,20547,18677,12234,21,1,25210,2020-11-02 14:41:45,2020-11-02 14:42:14,2,D7:F2:3B:06:4D:C8,21,21,-5917.71016556166,18095.618403245506,-29256.123034341555
23668,-479,29155,10681,29489,-16884,-2551,6593,-23310,-14393,21,1,25236,2020-11-02 14:41:45,2020-11-02 14:42:14,2,D7:F2:3B:06:4D:C8,21,21,-3523.101269311349,-23953.826346951784,-19445.544162770435
23669,25870,-21010,31679,-17647,2793,1527,-13628,25588,23497,21,1,25261,2020-11-02 14:41:45,2020-11-02 14:42:14,2,D7:F2:3B:06:4D:C8,21,21,42399.14734807467,-8354.855052512314,15708.110714142615
23670,6406,-15378,-13618,-3575,23289,-31492,30405,-1803,-28469,21,1,25287,2020-11-02 14:41:45,2020-11-02 14:42:14,2,D7:F2:3B:06:4D:C8,21,21,8996.854687740679,16235.063640321832,10883.425854131528
23671,11785,22523,-27723,-18175,-28411,-22275,14022,-17419,-13109,21,1,25313,2020-11-02 14:41:45,2020-11-02 14:42:14,2,D7:F2:3B:06:4D:C8,21,21,21134.708257572103,8127.319911998346,-30033.435716137254
23672,-7184,-9220,-8773,-11281,12045,513,-7484,31220,11723,21,1,25338,2020-11-02 14:41:45,2020-11-02 14:42:14,2,D7:F2:3B:06:4D:C8,21,21,13294.877513310648,660.3781955622344,-6032.737151981082
23673,-31483,-11268,-27206,-24092,-9202,5899,29378,24819,-5944,21,1,25364,2020-11-02 14:41:45,2020-11-02 14:42:14,2,D7:F2:3B:06:4D:C8,21,21,-14786.236867092164,-31172.567359430323,-25844.763348346292
23674,19191,-9493,-25644,-11560,-17913,-13303,9406,25074,-13626,21,1,25389,2020-11-02 14:41:45,2020-11-02 14:42:14,2,D7:F2:3B:06:4D:C8,21,21,13298.305513785906,-10471.00873368412,28801.724124800625
23675,-514,6113,-18977,2260,-17647,21520,15174,1009,-10813,21,1,25415,2020-11-02 14:41:45,2020-11-02 14:42:14,2,D7:F2:3B:06:4D:C8,21,21,12101.864087576596,8381.352654043745,13455.753687340515
23676,9759,-12831,20205,-31022,20261,6167,-19646,23788,27071,21,1,25441,2020-11-02 14:41:45,2020-11-02 14:42:14,2,D7:F2:3B:06:4D:C8,21,21,6941.534761083752,-15758.667765571783,19276.77754229152
23677,15134,-12582,3593,-15913,11542,-12797,-16324,-32537,-22850,21,1,25466,2020-11-02 14:41:45,2020-11-02 14:42:14,2,D7:F2:3B:06:4D:C8,21,21,-12491.63061046654,-10369.658557719338,-11691.179371131613
23678,25892,-25632,-10726,32746,18708,29173,8499,13797,16324,21,1,25492,2020-11-02 14:41:45,2020-11-02 14:42:14,2,D7:F2:3B:06:4D:C8,21,21,19224.366166814598,-30415.3598088032,-12156.142364470452
23679,-23526,12258,18193,-16645,28686,27882,-5080,10214,32717,21,1,25517,2020-11-02 14:41:45,2020-11-02 14:42:14,2,D7:F2:3B:06:4D:C8,21,21,12491.371408373201,986.1051173284559,29626.166239249636
23680,-21489,-7707,-10484,29446,-22770,-2585,4644,12265,21971,21,1,25543,2020-11-02 14:41:45,2020-11-02 14:42:14,2,D7:F2:3B:06:4D:C8,21,21,1672.1973751546993,7546.541532986723,23902.775839417314
23681,22278,20457,-23538,8721,-22768,-8471,30754,-29460,-24361,21,1,25568,2020-11-02 14:41:45,2020-11-02 14:42:14,2,D7:F2:3B:06:4D:C8,21,21,25040.28671416181,-3338.622377467127,-28821.402097976552
23682,-25350,-7702,29707,20763,23822,7662,27427,32239,12251,21,1,25594,2020-11-02 14:41:45,2020-11-02 14:42:14,2,D7:F2:3B:06:4D:C8,21,21,-27451.110769634714,-6140.790425975209,-28163.386931572993
23683,-9744,-4374,-22010,-21725,-27132,-17164,7207,-30991,7133,21,1,25620,2020-11-02 14:41:45,2020-11-02 14:42:14,2,D7:F2:3B:06:4D:C8,21,21,-23157.789328471878,-6161.5759664385605,4926.386812657003
23684,11758,-26,17149,-28118,-13562,7424,-22996,3570,4318,21,1,25645,2020-11-02 14:41:45,2020-11-02 14:42:14,2,D7:F2:3B:06:4D:C8,21,21,11758.0,-12961.411257893207,-11229.011319068086
23685,-27908,8416,-26893,14126,2323,-23027,-9422,-13841,22239,21,1,25671,2020-11-02 14:41:45,2020-11-02 14:42:14,2,D7:F2:3B:06:4D:C8,21,21,-28401.0226288085,22313.7524843827,-16382.836528013468
23686,-7161,-1823,12776,-21716,18198,5396,9530,-32277,7391,21,1,25696,2020-11-02 14:41:45,2020-11-02 14:42:14,2,D7:F2:3B:06:4D:C8,21,21,11559.32760131977,-3717.854992079003,8389.810824043663
23687,32021,-8724,18644,17185,6424,-10476,29251,2279,18651,21,1,25722,2020-11-02 14:41:45,2020-11-02 14:42:14,2,D7:F2:3B:06:4D:C8,21,21,-33874.29393281386,-10730.560761315353,13654.25315793761
23688,29205,22516,-6450,14857,14358,17425,-12607,9956,-22318,21,-1,25748,2020-11-02 14:41:45,2020-11-02 14:42:14,2,D7:F2:3B:06:4D:C8,21,21,-2951.948285111335,14968.145374655778,-34186.91864390822
23689,-26098,-23314,-14365,-24839,9239,-9711,-27954,14563,3013,21,-1,25773,2020-11-02 14:41:45,2020-11-02 14:42:14,2,D7:F2:3B:06:4D:C8,21,21,3354.802019083212,26110.51522191264,27165.929456932332
23690,22039,-32017,-29203,-1037,-29414,3349,4571,-2844,-6334,21,-1,25799,2020-11-02 14:41:45,2020-11-02 14:42:14,2,D7:F2:3B:06:4D:C8,21,21,-15033.65400156649,-35844.03796116146,-29203.0
23691,-18401,8686,-20499,-9233,10263,-30189,-22048,21224,17722,21,-1,25824,2020-11-02 14:41:45,2020-11-02 14:42:14,2,D7:F2:3B:06:4D:C8,21,21,-19076.770192533884,14327.389230447752,-16280.514576035373
23692,16419,9956,-27421,-15389,-24305,25102,-29728,21995,14646,21,-1,25850,2020-11-02 14:41:45,2020-11-02 14:42:14,2,D7:F2:3B:06:4D:C8,21,21,-19817.189091105687,-26671.076725323353,-4068.0979387518073
23693,4137,15837,20464,8408,-1017,17413,-17444,-5140,-7885,21,-1,25875,2020-11-02 14:41:45,2020-11-02 14:42:14,2,D7:F2:3B:06:4D:C8,21,21,-8527.71449691238,-10391.973061867673,-22494.124018075632
23694,18208,30682,2562,-5161,27148,28666,13528,-32532,-28623,21,-1,25901,2020-11-02 14:41:45,2020-11-02 14:42:14,2,D7:F2:3B:06:4D:C8,21,21,-8768.654406130288,33250.49933601976,-9848.615426099304
23695,16667,-11812,3838,23517,-17138,-30220,-8748,-25878,-14546,21,-1,25927,2020-11-02 14:41:45,2020-11-02 14:42:14,2,D7:F2:3B:06:4D:C8,21,21,-2116.35574237946,2951.093841342321,-20465.936590131638
23696,-13797,28638,22788,-29984,-7408,-26895,-27950,-13593,-26325,21,-1,25952,2020-11-02 14:41:45,2020-11-02 14:42:14,2,D7:F2:3B:06:4D:C8,21,21,27494.097422020255,23189.180247974466,-15366.252743444316
23697,-28389,-20001,-3576,-4119,-20718,-8467,-2351,22756,40,21,-1,25978,2020-11-02 14:41:45,2020-11-02 14:42:14,2,D7:F2:3B:06:4D:C8,21,21,27600.25183716796,-20001.0,7546.469076654763
23698,3610,-3102,17418,-28941,32011,-5401,-5423,31456,-29915,21,-1,26003,2020-11-02 14:41:45,2020-11-02 14:42:14,2,D7:F2:3B:06:4D:C8,21,21,-1472.8208647134634,-15914.435940878438,8402.544577932404
23699,-5613,-29212,-23028,-24581,-31736,31972,-5588,-22051,30153,21,-1,26029,2020-11-02 14:41:45,2020-11-02 14:42:14,2,D7:F2:3B:06:4D:C8,21,21,-25514.013690655454,-16731.144196017984,22005.440606475022
23700,-14060,-29723,-4096,12546,-31992,-18209,-21986,4322,-14121,21,-1,26054,2020-11-02 14:41:45,2020-11-02 14:42:14,2,D7:F2:3B:06:4D:C8,21,21,32081.999703892343,779.9178708715256,8249.519265638857
23701,29437,8684,-23031,-9212,-16888,-7708,32030,-19226,-31784,21,-1,26081,2020-11-02 14:41:45,2020-11-02 14:42:14,2,D7:F2:3B:06:4D:C8,21,21,11143.953856944996,-31500.337866543032,18865.757146955853
23702,27873,15608,-27883,-18424,-17135,-5120,-9700,19945,-11813,21,-1,26108,2020-11-02 14:41:45,2020-11-02 14:42:14,2,D7:F2:3B:06:4D:C8,21,21,-527.2552957307926,34964.25760783629,23983.289469670046
23703,-28417,-3093,-29922,2076,-22268,12547,19228,27113,5088,21,1,26131,2020-11-02 14:41:45,2020-11-02 14:42:14,2,D7:F2:3B:06:4D:C8,21,21,-3513.5008127446345,7284.639673152524,-40583.34583140201
23704,-11267,-24599,24301,-7901,-20488,-17923,28706,12265,735,21,1,26157,2020-11-02 14:41:45,2020-11-02 14:42:14,2,D7:F2:3B:06:4D:C8,21,21,32405.796906410535,16325.012698379025,-2439.872590574517
23705,-5637,-8228,-11257,24363,21745,-12046,15402,-30742,-13348,21,1,26182,2020-11-02 14:41:45,2020-11-02 14:42:14,2,D7:F2:3B:06:4D:C8,21,21,14202.644611542715,-1791.6491007776822,4612.014910849624
23706,16100,-9509,7925,-8658,-22795,-10759,-10446,-276,-6950,21,1,26208,2020-11-02 14:41:45,2020-11-02 14:42:14,2,D7:F2:3B:06:4D:C8,21,21,9987.094348452398,-12720.521667246981,12283.443368543296
23707,-14855,-8737,25833,-4309,13077,18707,-9670,5355,-21287,21,1,26234,2020-11-02 14:41:45,2020-11-02 14:42:14,2,D7:F2:3B:06:4D:C8,21,21,17107.791643287987,-14750.462311310563,21309.561461758247
23708,-19948,-26131,-7471,2337,-26601,17176,-21435,-14874,12244,21,1,26259,2020-11-02 14:41:45,2020-11-02 14:42:14,2,D7:F2:3B:06:4D:C8,21,21,-21824.804403319486,-11942.77458595013,-22751.17038629068
23709,1811,17649,-7464,30734,-28651,26129,-27195,-30492,14794,21,1,26285,2020-11-02 14:41:45,2020-11-02 14:42:14,2,D7:F2:3B:06:4D:C8,21,21,-2137.3757178161068,18817.619148538888,3436.139202860175
23710,15118,26863,6377,32514,23579,-11500,4308,26852,-1861,21,1,26310,2020-11-02 14:41:45,2020-11-02 14:42:14,2,D7:F2:3B:06:4D:C8,21,21,-14707.913772794744,26863.0,7273.054753818005
23711,-10991,-21778,20209,-10500,24089,1048,-20514,27623,-9412,21,1,26336,2020-11-02 14:41:45,2020-11-02 14:42:14,2,D7:F2:3B:06:4D:C8,21,21,31347.709066322903,-3639.1419475889816,2750.4232726028076
23712,29474,25577,-5659,-16393,19477,8984,-7711,-22805,-201,21,1,26361,2020-11-02 14:41:45,2020-11-02 14:42:14,2,D7:F2:3B:06:4D:C8,21,21,-25710.326809840873,9057.427774161522,28493.262071005924
23713,8490,5094,22500,-4631,15893,-30960,-10527,24303,32308,21,1,26387,2020-11-02 14:41:45,2020-11-02 14:42:14,2,D7:F2:3B:06:4D:C8,21,21,17530.91207543256,17184.45463639174,1280.8499729660898
23714,7720,29914,-23059,27613,-5362,1540,-3106,6385,-24271,21,-1,26413,2020-11-02 14:41:45,2020-11-02 14:42:14,2,D7:F2:3B:06:4D:C8,21,21,-12682.464287976136,-31080.972462278565,-18954.986873730395
23715,31519,-1836,-24585,-20008,28175,-1546,-18982,28656,-3794,21,-1,26438,2020-11-02 14:41:45,2020-11-02 14:42:14,2,D7:F2:3B:06:4D:C8,21,21,-14646.930207171154,-1651.8091743934178,37201.87419952988
23716,-22760,-29738,19722,13278,31249,-13327,6615,8430,-1749,21,-1,26464,2020-11-02 14:41:45,2020-11-02 14:42:14,2,D7:F2:3B:06:4D:C8,21,21,-24387.38586825027,-32663.000734288074,11388.912219565293
23717,15383,-5416,31237,-797,-9204,-279,11476,-23830,-7127,21,-1,26489,2020-11-02 14:41:45,2020-11-02 14:42:14,2,D7:F2:3B:06:4D:C8,21,21,-34766.23320036762,5746.605188313922,73.97207108197836
23718,-1008,-31268,9460,4076,16650,5603,31184,29926,13610,21,-1,26541,2020-11-02 14:41:45,2020-11-02 14:42:14,2,D7:F2:3B:06:4D:C8,21,21,12971.3351643965,-28827.988241523803,8299.822046252342
23719,2017,2794,-5846,32501,30741,12546,7121,-7965,-20442,21,-1,26543,2020-11-02 14:41:45,2020-11-02 14:42:14,2,D7:F2:3B:06:4D:C8,21,21,-844.3641131825402,-6614.19224158328,1260.9326848603014
23720,10289,-23323,18193,18947,-6393,2805,-19752,-19998,-23266,21,-1,26566,2020-11-02 14:41:45,2020-11-02 14:42:14,2,D7:F2:3B:06:4D:C8,21,21,-14117.0070862091,-22907.29173787329,16024.268943196254
23721,28409,-17181,-9722,14345,16131,-24859,8923,19423,16669,21,-1,26592,2020-11-02 14:41:45,2020-11-02 14:42:14,2,D7:F2:3B:06:4D:C8,21,21,13863.698430436012,-27644.262303460644,15503.804485589688
23722,-14071,15085,4863,26379,771,15849,-22248,-4387,25569,21,-1,26617,2020-11-02 14:41:45,2020-11-02 14:42:14,2,D7:F2:3B:06:4D:C8,21,21,-1585.3286598607765,19961.93202209701,-6943.128832551063
23723,4617,234,-24057,12563,-11012,-15901,-9694,-18719,-31527,21,-1,26643,2020-11-02 14:41:45,2020-11-02 14:42:14,2,D7:F2:3B:06:4D:C8,21,21,18522.160809685007,-8303.846064228323,13714.4592850673
23724,1019,-27415,-21239,-13286,-30723,-2331,28966,-20251,28889,21,-1,26668,2020-11-02 14:41:45,2020-11-02 14:42:14,2,D7:F2:3B:06:4D:C8,21,21,-28084.533106813615,-4273.57260665877,-19917.61241584708
23725,32231,7920,-22270,27168,24057,-13842,8235,2281,27609,21,-1,26694,2020-11-02 14:41:45,2020-11-02 14:42:14,2,D7:F2:3B:06:4D:C8,21,21,-3646.937763527141,-39438.56234649389,-5368.082152004932
23726,2795,26349,-4877,-15067,-2304,1024,-14800,14058,19929,21,-1,26720,2020-11-02 14:41:45,2020-11-02 14:42:14,2,D7:F2:3B:06:4D:C8,21,21,23065.60640444135,12267.44447742065,6584.418135932438
23727,8439,21487,6370,-2525,28169,-17907,9783,-23576,-23848,21,-1,26771,2020-11-02 14:41:45,2020-11-02 14:42:14,2,D7:F2:3B:06:4D:C8,21,21,-11770.615633789723,4067.5464811962433,-20454.644050310264
23728,-23550,10484,16092,-10217,21776,10006,28479,-24091,-31020,21,-1,26773,2020-11-02 14:41:45,2020-11-02 14:42:14,2,D7:F2:3B:06:4D:C8,21,21,-4701.7785332296135,2880.2445501255206,29884.221421277376
23729,16395,-14351,-17938,21517,18196,24600,-27456,-13854,-16184,21,-1,26796,2020-11-02 14:41:45,2020-11-02 14:42:14,2,D7:F2:3B:06:4D:C8,21,21,24040.06360012877,-2634.6344492763824,14548.302767692527
23730,9254,-26637,28403,13833,14096,-16111,467,3811,4164,21,-1,26822,2020-11-02 14:41:45,2020-11-02 14:42:14,2,D7:F2:3B:06:4D:C8,21,21,9254.0,-26637.0,28403.0
23731,7187,-21261,17394,-17148,-4343,5905,-7206,10469,-9412,21,-1,26848,2020-11-02 14:41:45,2020-11-02 14:42:14,2,D7:F2:3B:06:4D:C8,21,21,17154.715465754554,-20888.336417975686,8696.405290605562
23732,32030,5621,31468,3582,31498,16401,7390,-9241,28729,21,-1,26873,2020-11-02 14:41:45,2020-11-02 14:42:14,2,D7:F2:3B:06:4D:C8,21,21,-22757.753651389034,-5708.9289955407,38694.24173525776
23733,-7633,20978,-30716,-265,21519,10249,-801,490,2358,21,1,26899,2020-11-02 14:41:45,2020-11-02 14:42:14,2,D7:F2:3B:06:4D:C8,21,21,-7633.0,20978.0,-30716.0
23734,-24571,29936,3569,1280,-26355,-29690,22754,4843,-18126,21,1,26924,2020-11-02 14:41:45,2020-11-02 14:42:14,2,D7:F2:3B:06:4D:C8,21,21,20071.7383334556,33305.90552515766,691.2853409131958
23735,-25037,5883,32487,24041,24594,16647,4835,16109,3119,21,1,26950,2020-11-02 14:41:45,2020-11-02 14:42:14,2,D7:F2:3B:06:4D:C8,21,21,39959.413851916725,5883.0,9246.717396527578
23736,20266,23016,27893,6624,-31236,-10255,17375,9964,3374,21,1,26976,2020-11-02 14:41:45,2020-11-02 14:42:14,2,D7:F2:3B:06:4D:C8,21,21,-9553.383039398741,-26721.92768656973,-30218.17192048961
23737,1069,-11807,2553,-800,-24578,-15893,26585,23017,10287,21,1,27001,2020-11-02 14:41:45,2020-11-02 14:42:14,2,D7:F2:3B:06:4D:C8,21,21,-11468.881290127376,-1.9319402845344484,-3940.885334613654
23738,28451,-24612,-10745,-27934,-3578,-22809,17108,-8219,-16337,21,1,27027,2020-11-02 14:41:45,2020-11-02 14:42:14,2,D7:F2:3B:06:4D:C8,21,21,5529.355704764683,-36008.39069768171,14264.886780248075
23739,-14303,-19742,-23280,-17937,-17399,-12061,-19762,-15135,8498,21,1,27052,2020-11-02 14:41:45,2020-11-02 14:42:14,2,D7:F2:3B:06:4D:C8,21,21,-23157.295038481483,-5972.644843853952,-23756.00919914592
23740,-5864,-16412,-29685,-26117,-9466,16864,-23235,-29474,3266,21,1,27078,2020-11-02 14:41:45,2020-11-02 14:42:14,2,D7:F2:3B:06:4D:C8,21,21,5032.551002676004,33193.28117882945,7603.879272360355
23741,-31727,231,30473,-21503,-4096,-35,9511,29666,-22056,21,1,27104,2020-11-02 14:41:45,2020-11-02 14:42:14,2,D7:F2:3B:06:4D:C8,21,21,21123.542328192943,28786.36964306685,-25698.258720811427
23742,5896,-6678,17164,-23547,22271,29919,-9435,23015,-22822,21,1,27129,2020-11-02 14:41:45,2020-11-02 14:42:14,2,D7:F2:3B:06:4D:C8,21,21,16502.665205789563,-8591.997380802328,-5272.6670778561875
23743,26368,-788,-2033,1292,25600,16100,14374,-17685,-10533,21,1,27155,2020-11-02 14:41:45,2020-11-02 14:42:14,2,D7:F2:3B:06:4D:C8,21,21,-12282.50849693083,23157.220986972832,3592.848199315832
23744,-27911,-23057,-31221,-13806,18431,-4374,-6617,14575,-8740,21,1,27180,2020-11-02 14:41:45,2020-11-02 14:42:14,2,D7:F2:3B:06:4D:C8,21,21,-25069.483683711365,-32637.419029328586,24325.292967118607
23745,-17163,-19471,-2044,8213,6652,26353,-16854,-10255,19677,21,1,27206,2020-11-02 14:41:45,2020-11-02 14:42:14,2,D7:F2:3B:06:4D:C8,21,21,23756.913662472645,-9693.777472514137,-4416.568526265396
23746,-13837,-14350,-18427,13590,-25858,-17416,-8915,27379,-25891,21,1,27231,2020-11-02 14:41:45,2020-11-02 14:42:14,2,D7:F2:3B:06:4D:C8,21,21,12738.90931640964,20834.419756303643,-11856.919534450597
23747,-28429,-4625,21766,-13798,28162,7680,30769,-15117,-4643,21,-1,27257,2020-11-02 14:41:45,2020-11-02 14:42:14,2,D7:F2:3B:06:4D:C8,21,21,2183.7056985002428,19560.00815455045,-30265.40818188741
23748,15094,24554,2044,-10975,13577,-5881,10550,-25870,8158,21,-1,27283,2020-11-02 14:41:45,2020-11-02 14:42:14,2,D7:F2:3B:06:4D:C8,21,21,-6146.712154915976,11797.721619509068,-25650.290101150447
23749,5885,-17169,30942,-22241,-12784,21776,-2501,-7953,20445,21,-1,27308,2020-11-02 14:41:45,2020-11-02 14:42:14,2,D7:F2:3B:06:4D:C8,21,21,25051.26289277779,13771.584759963936,21670.090693766455
23750,8965,14583,982,-20466,17435,24342,-32703,-22805,-32550,21,-1,27334,2020-11-02 14:41:45,2020-11-02 14:42:14,2,D7:F2:3B:06:4D:C8,21,21,-6152.263586855799,-9534.485113884622,-12854.675584041812
23751,10254,-24592,-23584,-18176,-15073,-12521,11707,-3354,11732,21,-1,27359,2020-11-02 14:41:45,2020-11-02 14:42:14,2,D7:F2:3B:06:4D:C8,21,21,-33072.578721484395,-3859.077247861578,-12547.035327369358
23752,-1778,6380,-6176,-8457,15135,10011,29128,-17181,21189,21,-1,27385,2020-11-02 14:41:45,2020-11-02 14:42:14,2,D7:F2:3B:06:4D:C8,21,21,-7236.547511202894,5185.668818500835,1658.2759188179025
23753,30495,30441,12006,-17685,7188,-7400,-22059,11749,31297,21,-1,27410,2020-11-02 14:41:45,2020-11-02 14:42:14,2,D7:F2:3B:06:4D:C8,21,21,-35047.37698832266,18210.76636171926,-20995.068391345263
23754,30250,16104,-31754,-29976,17936,18,473,-15641,-7111,21,-1,27436,2020-11-02 14:41:45,2020-11-02 14:42:14,2,D7:F2:3B:06:4D:C8,21,21,22350.081798281724,-5002.653721779261,40720.57380919483
23755,-24529,5097,-19717,19947,-20206,-1273,-17446,16617,2356,21,-1,27462,2020-11-02 14:41:45,2020-11-02 14:42:14,2,D7:F2:3B:06:4D:C8,21,21,27302.815072308134,-7828.454954088872,14480.432354012959
23756,-5080,-25623,-522,28904,-14066,-25860,30939,11497,14127,21,-1,27487,2020-11-02 14:41:45,2020-11-02 14:42:14,2,D7:F2:3B:06:4D:C8,21,21,-3057.0475164725553,25348.26451508003,-5544.092311241179
23757,-11749,19171,13303,23777,-9716,22774,-26150,-8729,17707,21,-1,27513,2020-11-02 14:41:45,2020-11-02 14:42:14,2,D7:F2:3B:06:4D:C8,21,21,14316.338162331962,20786.444103835383,-6745.535867511535
23758,-2022,26589,18701,12512,-11759,-19468,7898,5862,20006,21,-1,27538,2020-11-02 14:41:45,2020-11-02 14:42:14,2,D7:F2:3B:06:4D:C8,21,21,-25780.923180768354,5059.083761163829,19249.427977081537
23759,24865,5597,32280,-28180,-32754,19433,9949,23267,5407,21,-1,27564,2020-11-02 14:41:45,2020-11-02 14:42:14,2,D7:F2:3B:06:4D:C8,21,21,-33016.53212350569,-24138.611383654923,4339.248898876585
23760,-17646,-20002,14358,-19464,-22007,17890,8425,-11553,1809,21,-1,27590,2020-11-02 14:41:45,2020-11-02 14:42:14,2,D7:F2:3B:06:4D:C8,21,21,15593.784659401517,-22888.96712184631,-12269.578154576164
23761,12299,-32542,-18925,-19709,2821,28128,11534,12768,-23317,21,-1,27615,2020-11-02 14:41:45,2020-11-02 14:42:14,2,D7:F2:3B:06:4D:C8,21,21,-7020.418806847618,-38916.67091136795,-2146.9128889518292
23762,-9213,-2587,25617,27149,-25339,-9246,-14056,15588,14818,21,-1,27641,2020-11-02 14:41:45,2020-11-02 14:42:14,2,D7:F2:3B:06:4D:C8,21,21,-20611.32076402424,-13524.608673307506,11834.738847832628
23763,-13828,13800,-20723,-25833,29702,30951,-23524,15848,13793,21,-1,27666,2020-11-02 14:41:45,2020-11-02 14:42:14,2,D7:F2:3B:06:4D:C8,21,21,-17530.89154752398,22294.674900704842,2590.680532376359
23764,-15374,-3863,-28667,-17121,-25858,21996,23329,31211,-14880,21,-1,27692,2020-11-02 14:41:45,2020-11-02 14:42:14,2,D7:F2:3B:06:4D:C8,21,21,-6972.511787733773,30830.811799394163,-8597.944938196055
23765,10471,26348,-6914,21027,9976,-28684,-32473,-10515,-31009,21,-1,27717,2020-11-02 14:41:45,2020-11-02 14:42:14,2,D7:F2:3B:06:4D:C8,21,21,-17482.41581911133,-9378.688268759652,21402.51584475797
23766,29672,-28182,30969,12581,5125,-17147,25133,13038,9183,21,-1,27743,2020-11-02 14:41:45,2020-11-02 14:42:14,2,D7:F2:3B:06:4D:C8,21,21,-41360.923168618494,13056.365246810572,-27432.40839192788
23767,5113,-7703,31212,-1501,21010,-17897,-13518,-13334,-26145,21,-1,27769,2020-11-02 14:41:45,2020-11-02 14:42:14,2,D7:F2:3B:06:4D:C8,21,21,-26070.900005290358,-18138.398066845744,7139.650585483698
23768,9476,-20235,-11824,28181,-23276,17182,20026,-12059,18396,21,-1,27794,2020-11-02 14:41:45,2020-11-02 14:42:14,2,D7:F2:3B:06:4D:C8,21,21,8808.330361105252,-23176.06736854202,4933.558003959536
23769,6926,17650,-12326,-28418,14615,-26338,-17221,-30495,-13618,21,-1,27820,2020-11-02 14:41:45,2020-11-02 14:42:14,2,D7:F2:3B:06:4D:C8,21,21,-22163.29928087639,-2259.342470378445,-3886.6165990290765
23770,-28646,-30996,-3871,26099,-13043,26651,28883,2274,-6847,21,-1,27845,2020-11-02 14:41:45,2020-11-02 14:42:14,2,D7:F2:3B:06:4D:C8,21,21,-25999.580353087353,17348.62763801137,28624.76049753049
23771,-5086,32490,-3363,30696,19203,11795,-5418,6629,13627,21,-1,27871,2020-11-02 14:41:45,2020-11-02 14:42:14,2,D7:F2:3B:06:4D:C8,21,21,-27221.87107513233,-18592.530324630305,2462.6847740984076
23772,-30165,19180,24547,10465,-8707,27149,31955,30951,7994,21,-1,27897,2020-11-02 14:41:45,2020-11-02 14:42:14,2,D7:F2:3B:06:4D:C8,21,21,-23086.949021459757,17679.65276900843,-32167.957610762467
23773,-11481,-2070,-13854,26077,-20985,29449,22992,-18456,-7625,21,-1,27922,2020-11-02 14:41:45,2020-11-02 14:42:14,2,D7:F2:3B:06:4D:C8,21,21,-2352.840801671705,-13236.760477707221,-12136.057400070129
23774,-7887,3558,23544,-7715,-22769,-765,-10290,-30744,27699,21,-1,27948,2020-11-02 14:41:45,2020-11-02 14:42:14,2,D7:F2:3B:06:4D:C8,21,21,11813.912173015044,-19572.11827724525,10322.196196052928
23775,-25803,17376,12542,-5919,-18167,-8208,-17973,27878,-31951,21,-1,27973,2020-11-02 14:41:45,2020-11-02 14:42:14,2,D7:F2:3B:06:4D:C8,21,21,22774.46379495184,22586.033753886415,-9809.017643002338
23776,-30172,27357,-12280,8680,24835,-23836,28353,-14109,13112,21,-1,27999,2020-11-02 14:41:45,2020-11-02 14:42:14,2,D7:F2:3B:06:4D:C8,21,21,14688.233256638467,33207.726840198964,-22159.78598509718
23777,23831,26849,23819,-22799,-4348,31202,6717,12259,26810,21,1,28024,2020-11-02 14:41:45,2020-11-02 14:42:14,2,D7:F2:3B:06:4D:C8,21,21,-18784.80292013572,-13279.353870955796,-36426.91399256313
23778,-30703,-23064,-32759,-31239,29959,21478,28976,1509,15814,21,1,28050,2020-11-02 14:41:45,2020-11-02 14:42:14,2,D7:F2:3B:06:4D:C8,21,21,47290.053919068756,-12122.979056388558,12824.139937240798
23779,-16111,26860,-8693,7425,-31734,-18456,-21719,-30489,20941,21,1,28076,2020-11-02 14:41:45,2020-11-02 14:42:14,2,D7:F2:3B:06:4D:C8,21,21,3878.5078820079398,27546.289208078128,16815.210301216008
23780,11534,-14100,5643,-22007,12298,31464,-18394,-32022,-10543,21,1,28101,2020-11-02 14:41:45,2020-11-02 14:42:14,2,D7:F2:3B:06:4D:C8,21,21,12320.339864945581,8121.427283516462,-12080.490449099618
23781,30212,-1813,-1016,-14575,-13561,-13336,28454,-19731,1749,21,1,28127,2020-11-02 14:41:45,2020-11-02 14:42:14,2,D7:F2:3B:06:4D:C8,21,21,-30196.999728718663,416.1445493928733,2247.709967450355
23782,-14600,25066,-4857,-24552,-10497,31210,-22744,-9232,-24618,21,1,28152,2020-11-02 14:41:45,2020-11-02 14:42:14,2,D7:F2:3B:06:4D:C8,21,21,25154.229472620682,9888.85680237472,-11598.709229085276
23783,11502,-28438,-18170,-3810,-7173,21488,-13012,-15885,-4138,21,1,28178,2020-11-02 14:41:45,2020-11-02 14:42:14,2,D7:F2:3B:06:4D:C8,21,21,-35175.23022889746,-4687.550507694999,-3448.883381888527
23784,-4119,17382,-26111,-22745,8967,-30211,-11215,-20748,-3113,21,1,28204,2020-11-02 14:41:45,2020-11-02 14:42:14,2,D7:F2:3B:06:4D:C8,21,21,8132.761224421701,-12580.114203718982,27865.450426790714
23785,28657,19943,21222,-4566,-757,-11253,18488,-10766,25304,21,1,28229,2020-11-02 14:41:45,2020-11-02 14:42:14,2,D7:F2:3B:06:4D:C8,21,21,-37336.83102162782,-8442.425715129339,14283.090677683656
23786,-27395,-4629,6878,29216,-9707,-24044,12351,30959,-21802,21,1,28255,2020-11-02 14:41:45,2020-11-02 14:42:14,2,D7:F2:3B:06:4D:C8,21,21,369.34546049184337,4424.201238627681,-28275.618071599056
23787,6671,-9488,-8495,-28141,-5601,13596,29370,-3606,-32559,21,1,28280,2020-11-02 14:41:45,2020-11-02 14:42:14,2,D7:F2:3B:06:4D:C8,21,21,12284.602909036585,3322.809501713889,6688.563252493751
23788,14362,-21775,463,30207,-7906,-9961,22980,17639,25799,21,1,28306,2020-11-02 14:41:45,2020-11-02 14:42:14,2,D7:F2:3B:06:4D:C8,21,21,18838.326386374036,-499.6560397363917,-18041.61414071365
23789,-9954,12782,-3371,-10514,23813,-15855,31434,11239,-22850,21,1,28331,2020-11-02 14:41:45,2020-11-02 14:42:14,2,D7:F2:3B:06:4D:C8,21,21,16387.092455026686,1938.7119611718206,1236.882291091922
23790,7202,-24593,-9511,-4125,-23553,27407,-23863,5609,25019,21,1,28357,2020-11-02 14:41:45,2020-11-02 14:42:14,2,D7:F2:3B:06:4D:C8,21,21,12905.527732921542,-20662.743547297578,-12395.239289074067
23791,16696,-28175,-24088,4324,18954,-6391,-17720,-21783,-7357,21,1,28383,2020-11-02 14:41:45,2020-11-02 14:42:14,2,D7:F2:3B:06:4D:C8,21,21,9558.727748717654,30446.562242438675,-25188.417108726833
23792,7225,2542,-21272,-3616,-30462,-5899,-21052,-22296,23875,21,1,28408,2020-11-02 14:41:45,2020-11-02 14:42:14,2,D7:F2:3B:06:4D:C8,21,21,2408.3750105050212,11231.08942101505,-19473.642012369914
23793,32555,19433,8438,-19234,-2565,-24599,-5702,14056,14012,21,-1,28434,2020-11-02 14:41:45,2020-11-02 14:42:14,2,D7:F2:3B:06:4D:C8,21,21,-15225.510661815066,-13429.111655571842,-33113.624737094855
23794,9499,3310,-29446,10211,-32765,24552,-9412,-8984,11459,21,-1,28459,2020-11-02 14:41:45,2020-11-02 14:42:14,2,D7:F2:3B:06:4D:C8,21,21,30617.715775945224,5134.839200557096,-2107.824482222719
23795,-2031,29939,-26887,-22297,-26360,-17685,-21197,-17943,26569,21,-1,28485,2020-11-02 14:41:45,2020-11-02 14:42:14,2,D7:F2:3B:06:4D:C8,21,21,-24551.38287859505,22723.59235606237,-22455.453684664964
23796,31247,22002,-20997,20968,1793,7404,11309,-10005,-1844,21,-1,28511,2020-11-02 14:41:45,2020-11-02 14:42:14,2,D7:F2:3B:06:4D:C8,21,21,10850.053838136071,29556.097601722213,30167.04241829184
23797,-29942,26608,4357,-14359,20993,7407,31272,20206,-29746,21,-1,28536,2020-11-02 14:41:45,2020-11-02 14:42:14,2,D7:F2:3B:06:4D:C8,21,21,-3807.56285381685,28465.380517661437,28261.58265382487
23798,8711,15599,-25843,-17936,-15101,25843,-4316,19440,-27697,21,-1,28562,2020-11-02 14:41:45,2020-11-02 14:42:14,2,D7:F2:3B:06:4D:C8,21,21,-3784.639167457026,-19482.750581123804,24355.079699435806
23799,517,-32272,21523,-14854,26887,28408,-25310,-23311,-8496,21,-1,28587,2020-11-02 14:41:45,2020-11-02 14:42:14,2,D7:F2:3B:06:4D:C8,21,21,-11878.127453291554,27393.60219462959,24768.719163609298
23800,26117,-530,18456,5639,-17398,-11268,-19167,24050,-17710,21,-1,28613,2020-11-02 14:41:45,2020-11-02 14:42:14,2,D7:F2:3B:06:4D:C8,21,21,3708.616313375607,-2632.1885639183056,31659.442089274755
23801,-10490,-5908,10776,22805,15627,31231,-19934,-28430,-5676,21,-1,28638,2020-11-02 14:41:45,2020-11-02 14:42:14,2,D7:F2:3B:06:4D:C8,21,21,-585.993629386855,7369.584876768561,14367.065469692207
23802,-22780,-18712,-13298,18467,13573,15359,15142,30962,-30762,21,-1,28664,2020-11-02 14:41:45,2020-11-02 14:42:14,2,D7:F2:3B:06:4D:C8,21,21,-17772.303743765005,9999.511588698968,-25100.97877826344
23803,11775,-21279,24580,-27602,-18181,12797,-23764,-19214,-31786,21,-1,28690,2020-11-02 14:41:45,2020-11-02 14:42:14,2,D7:F2:3B:06:4D:C8,21,21,2481.645865299426,-8156.223788450585,33510.30159983576
23804,28152,25553,10993,-8135,-22783,-2306,1589,4851,22998,21,-1,28715,2020-11-02 14:41:45,2020-11-02 14:42:14,2,D7:F2:3B:06:4D:C8,21,21,937.1989480510856,-38008.059291836675,10993.0
23805,-15625,-16686,-14898,17465,-9199,7949,-32706,13553,4054,21,-1,28741,2020-11-02 14:41:45,2020-11-02 14:42:14,2,D7:F2:3B:06:4D:C8,21,21,-11889.709819892916,9552.866617292044,22625.01192907905
23806,-4088,8937,3229,29733,12304,12825,12476,-28946,-9519,21,-1,28766,2020-11-02 14:41:45,2020-11-02 14:42:14,2,D7:F2:3B:06:4D:C8,21,21,-2712.5662783039097,-8093.02459824779,5844.064599058149
23807,21505,-5138,-2373,24571,-2790,-4584,-23102,-14612,13771,21,-1,28792,2020-11-02 14:41:45,2020-11-02 14:42:14,2,D7:F2:3B:06:4D:C8,21,21,-1847.06481801589,-8349.89396529324,20527.124014980946
23808,-8158,9967,19184,-6415,26395,24344,-17465,3819,8642,21,-1,28818,2020-11-02 14:41:45,2020-11-02 14:42:14,2,D7:F2:3B:06:4D:C8,21,21,1617.1535955169848,-10733.289655451023,-20398.55917511564
23809,11300,9973,-22049,17393,27917,27916,-7478,-27158,-15941,21,-1,28843,2020-11-02 14:41:45,2020-11-02 14:42:14,2,D7:F2:3B:06:4D:C8,21,21,-2502.3998600659615,26168.006428485256,4720.441133950954
23810,-3031,5110,20700,24808,3587,-8699,-4407,-13846,-16571,21,-1,28869,2020-11-02 14:41:45,2020-11-02 14:42:14,2,D7:F2:3B:06:4D:C8,21,21,11954.512584935095,13841.766959543322,-11370.32001723449
23811,17446,-22034,-28705,-2849,19972,27903,6342,-24342,581,21,-1,28894,2020-11-02 14:41:45,2020-11-02 14:42:14,2,D7:F2:3B:06:4D:C8,21,21,-37172.855978305495,12249.403611412079,9053.61732021418
23812,21535,-2329,14827,-14118,-7930,-23557,-25152,-18199,6981,21,-1,28920,2020-11-02 14:41:45,2020-11-02 14:42:14,2,D7:F2:3B:06:4D:C8,21,21,-2484.38012746178,-21819.837282554374,14378.558736713607
23813,-2787,31460,23286,24025,266,-32264,-11591,22248,19270,21,-1,28946,2020-11-02 14:41:45,2020-11-02 14:42:14,2,D7:F2:3B:06:4D:C8,21,21,1478.3546515717373,-8374.352181560907,38306.93746651332
23814,31771,29412,26631,6622,16908,-27403,-4803,-19738,6077,21,1,28971,2020-11-02 14:41:45,2020-11-02 14:42:14,2,D7:F2:3B:06:4D:C8,21,21,-43774.04717699303,-13737.847324425682,-21880.96640089642
23815,10520,16105,16914,1001,16141,5362,-1741,-3099,25795,21,1,28997,2020-11-02 14:41:45,2020-11-02 14:42:14,2,D7:F2:3B:06:4D:C8,21,21,5311.9732954489855,-18488.492764647875,16914.0
23816,-24556,23274,27918,-19977,27913,23790,-24789,-4890,17098,21,1,29022,2020-11-02 14:41:45,2020-11-02 14:42:14,2,D7:F2:3B:06:4D:C8,21,21,43263.964749477,-7205.3848825793375,-634.6013314735974
23817,2578,-25366,-13045,-17663,-17143,-7958,9511,12777,-4402,21,1,29048,2020-11-02 14:41:45,2020-11-02 14:42:14,2,D7:F2:3B:06:4D:C8,21,21,-26890.505275307587,-2728.3192938322245,9471.486940790111
23818,-4601,26090,6154,30987,28680,6376,-16347,23020,2770,21,1,29073,2020-11-02 14:41:45,2020-11-02 14:42:14,2,D7:F2:3B:06:4D:C8,21,21,22899.617866089502,-5261.454600829699,13698.671982001848
23819,21501,32490,-31223,-31211,-4088,-13079,30502,-28433,-20268,21,1,29099,2020-11-02 14:41:45,2020-11-02 14:42:14,2,D7:F2:3B:06:4D:C8,21,21,40967.0493921016,26773.514600895796,9881.73112469302
23820,2285,13290,-10487,-27872,30981,-21265,24105,10226,-10026,21,1,29124,2020-11-02 14:41:45,2020-11-02 14:42:14,2,D7:F2:3B:06:4D:C8,21,21,-14777.455875490801,-7752.532416712314,-3653.4275654167704
23821,17895,2022,12032,-30422,-31481,16895,-28114,-526,9176,21,1,29150,2020-11-02 14:41:45,2020-11-02 14:42:14,2,D7:F2:3B:06:4D:C8,21,21,18443.16110063837,9424.1128606923,-6334.385400718347
23822,-2829,-544,2793,3632,9496,-26350,11061,8432,16857,21,1,29176,2020-11-02 14:41:45,2020-11-02 14:42:14,2,D7:F2:3B:06:4D:C8,21,21,2672.267281252868,514.8835303059116,2948.5434586868696
23823,-2045,11502,-23611,-10460,8483,21282,-27331,-10519,15575,21,1,29201,2020-11-02 14:41:45,2020-11-02 14:42:14,2,D7:F2:3B:06:4D:C8,21,21,-499.5069797783908,-23781.15969896883,11320.966661433707
23824,784,18675,-2613,261,24108,-25307,-1345,21475,-3127,21,1,29227,2020-11-02 14:41:45,2020-11-02 14:42:14,2,D7:F2:3B:06:4D:C8,21,21,-1144.9006983951822,18675.0,2476.212307298028
23825,-20708,29416,22493,13808,31767,-7138,12503,-6685,8765,21,1,29252,2020-11-02 14:41:45,2020-11-02 14:42:14,2,D7:F2:3B:06:4D:C8,21,21,13560.801451491374,-39391.246681971665,-8030.673560373729
23826,-19928,-21788,9957,4325,9478,-16876,-6184,26855,30007,21,-1,29278,2020-11-02 14:41:45,2020-11-02 14:42:14,2,D7:F2:3B:06:4D:C8,21,21,-4650.037567504857,3756.065882779647,-30581.907996477465
23827,30769,4584,21755,20197,24587,30222,-14121,-19223,-15565,21,-1,29304,2020-11-02 14:41:45,2020-11-02 14:42:14,2,D7:F2:3B:06:4D:C8,21,21,28152.744909803958,18563.327662900112,17431.3012171586
23828,28215,17641,31982,-1051,-30454,7424,-11306,9706,14384,21,-1,29329,2020-11-02 14:41:45,2020-11-02 14:42:14,2,D7:F2:3B:06:4D:C8,21,21,-40334.76536300548,559.6590477172358,-22426.165852896076
23829,15663,21476,-18958,-14112,19718,-30990,20691,-30232,4399,21,-1,29355,2020-11-02 14:41:45,2020-11-02 14:42:14,2,D7:F2:3B:06:4D:C8,21,21,25346.563307340508,-18585.725744192205,-8836.087146958824
23830,-477,-18980,-4869,-1314,15110,15081,-24884,-26907,-1744,21,-1,29380,2020-11-02 14:41:45,2020-11-02 14:42:14,2,D7:F2:3B:06:4D:C8,21,21,-8150.414662287176,16091.027273645657,7669.724383024844
23831,-2535,-16165,18696,12003,-14584,18406,-1344,32738,19000,21,-1,29406,2020-11-02 14:41:45,2020-11-02 14:42:14,2,D7:F2:3B:06:4D:C8,21,21,20741.72557386552,13371.745306452849,2872.475183149422
23832,15892,28128,7954,12524,7686,32486,-28871,-19999,-29764,21,-1,29432,2020-11-02 14:41:45,2020-11-02 14:42:14,2,D7:F2:3B:06:4D:C8,21,21,-5970.0151521050975,-18942.342168896124,-26693.68382670506
23833,-10480,-24603,-11500,16121,-12536,7912,31531,-17949,9417,21,-1,29457,2020-11-02 14:41:45,2020-11-02 14:42:14,2,D7:F2:3B:06:4D:C8,21,21,19207.574348604234,-3412.8179440658705,-21605.780946855466
23834,-31730,-25,-4594,15879,30732,9705,15653,-25626,7120,21,-1,29483,2020-11-02 14:41:45,2020-11-02 14:42:14,2,D7:F2:3B:06:4D:C8,21,21,8454.52383075797,20917.831408364982,22778.580222796267
23835,-18681,17384,-24568,-3055,-5363,-13591,12835,-13591,-11820,21,-1,29508,2020-11-02 14:41:45,2020-11-02 14:42:14,2,D7:F2:3B:06:4D:C8,21,21,20350.29821319057,8168.153464472059,-27819.354281058466
23836,-17926,28137,-3580,24858,-11506,18669,-20189,-15124,-27176,21,-1,29534,2020-11-02 14:41:45,2020-11-02 14:42:14,2,D7:F2:3B:06:4D:C8,21,21,16333.807005564395,24476.889386411,-16122.570504431844
23837,-4372,10220,28418,4130,19212,30199,7974,-27410,-16677,21,-1,29559,2020-11-02 14:41:45,2020-11-02 14:42:14,2,D7:F2:3B:06:4D:C8,21,21,-25456.295471048532,-11429.405849878332,-12348.733166177046
23838,1257,-18968,-14089,13608,-26614,17670,25130,15342,-803,21,-1,29585,2020-11-02 14:41:45,2020-11-02 14:42:14,2,D7:F2:3B:06:4D:C8,21,21,20903.78322320126,1735.7218441475907,-10949.160270868193
23839,-22031,9198,13773,-26076,-5618,18713,-7889,-5142,-4898,21,-1,29611,2020-11-02 14:41:45,2020-11-02 14:42:14,2,D7:F2:3B:06:4D:C8,21,21,-22031.0,16559.28048313431,-298.26645954114247
23840,29439,16121,23244,-7676,-28914,-5345,-715,11238,22491,21,-1,29636,2020-11-02 14:41:45,2020-11-02 14:42:14,2,D7:F2:3B:06:4D:C8,21,21,-37385.18958282753,-10954.832265894202,-12213.277524160625
23841,28932,-16654,-11800,-28678,265,-29406,-16064,21986,-30513,21,-1,29662,2020-11-02 14:41:45,2020-11-02 14:42:14,2,D7:F2:3B:06:4D:C8,21,21,-3678.8695906790654,-25829.870705339385,-23936.165897658444
23842,29723,-21780,-31785,-32266,7179,-23260,-14902,-23582,-9917,21,1,29687,2020-11-02 14:41:45,2020-11-02 14:42:14,2,D7:F2:3B:06:4D:C8,21,21,-13683.773047525088,-15405.898770123466,-44085.417002321
23843,5166,3305,9442,30441,26633,-22757,6100,-1051,10807,21,1,29713,2020-11-02 14:41:45,2020-11-02 14:42:14,2,D7:F2:3B:06:4D:C8,21,21,7974.216929624429,1019.0633080793959,7882.595976797074
23844,3377,-8212,1782,-25371,30212,-3823,-18477,-17176,5683,21,1,29739,2020-11-02 14:41:45,2020-11-02 14:42:14,2,D7:F2:3B:06:4D:C8,21,21,-854.9400252135824,8381.294236445541,3322.5865640209504
23845,2877,32237,-4623,-18455,10248,1284,-30510,-22295,15408,21,1,29764,2020-11-02 14:41:45,2020-11-02 14:42:14,2,D7:F2:3B:06:4D:C8,21,21,-9422.340327986425,-12038.575184661482,-28899.23246847316
23846,-2510,24040,29169,9448,-20985,16628,7888,15336,-3794,21,1,29790,2020-11-02 14:41:45,2020-11-02 14:42:14,2,D7:F2:3B:06:4D:C8,21,21,33769.27042088562,-11555.999722791452,-12694.388785914165
23847,20515,-29981,-22274,-11545,24324,-22294,6090,-26907,32561,21,1,29815,2020-11-02 14:41:45,2020-11-02 14:42:14,2,D7:F2:3B:06:4D:C8,21,21,-9363.593810188622,40622.61124878631,8830.811304052282
23848,13081,12260,29703,-9493,12037,2794,-22849,24547,3129,21,1,29841,2020-11-02 14:41:45,2020-11-02 14:42:14,2,D7:F2:3B:06:4D:C8,21,21,15013.39828138242,-7945.620408919225,30251.5017538295
23849,-18152,-27163,-4085,29682,17670,6379,-30914,28642,-15548,21,1,29867,2020-11-02 14:41:45,2020-11-02 14:42:14,2,D7:F2:3B:06:4D:C8,21,21,-16950.184110883532,-27934.4872856972,4045.562592813626
23850,-24551,-4122,-20725,4090,-18681,-7703,-27087,24547,8132,21,1,29892,2020-11-02 14:41:45,2020-11-02 14:42:14,2,D7:F2:3B:06:4D:C8,21,21,-11058.594377316933,16793.495642417387,-25395.9466156724
23851,25109,-14103,20489,-29694,28170,-5145,28713,-15643,-24884,21,1,29918,2020-11-02 14:41:45,2020-11-02 14:42:14,2,D7:F2:3B:06:4D:C8,21,21,6480.597210615737,-31441.359092454106,14785.073865663066
23852,16143,-29206,7428,-12534,-16117,-2074,-16091,-2072,1234,21,1,29943,2020-11-02 14:41:45,2020-11-02 14:42:14,2,D7:F2:3B:06:4D:C8,21,21,16143.0,18908.245794657007,23465.801945998686
23853,13064,15595,-32767,-25839,30986,-15898,8229,30444,-26667,21,1,29969,2020-11-02 14:41:45,2020-11-02 14:42:14,2,D7:F2:3B:06:4D:C8,21,21,-32537.561792813907,-17400.898440879588,11227.832205239401
23854,-19971,12523,-13566,26136,17925,1511,-18650,1520,-1577,21,1,29994,2020-11-02 14:41:45,2020-11-02 14:42:14,2,D7:F2:3B:06:4D:C8,21,21,-19971.0,-14312.110064267536,11662.992347947926
23855,13292,-31764,17155,-10977,27901,28650,31018,31731,2777,21,1,30020,2020-11-02 14:41:45,2020-11-02 14:42:14,2,D7:F2:3B:06:4D:C8,21,21,-30104.037334268585,7440.1002727922205,22766.52870131414
23856,7651,6376,21758,-22489,-4092,-14601,-25809,-28683,4058,21,1,30046,2020-11-02 14:41:45,2020-11-02 14:42:14,2,D7:F2:3B:06:4D:C8,21,21,-6840.3334376950515,-20634.140419536292,-10002.191190334728
23857,-29203,8672,-9230,-723,-21480,-4852,-24011,-32525,-20261,21,1,30071,2020-11-02 14:41:45,2020-11-02 14:42:14,2,D7:F2:3B:06:4D:C8,21,21,-3571.1228747297955,-1839.2527687636202,31576.509048122734
23858,-2303,-1553,7110,21032,-24560,8217,-31427,-13074,24794,21,1,30097,2020-11-02 14:41:45,2020-11-02 14:42:14,2,D7:F2:3B:06:4D:C8,21,21,-5806.078445587515,4382.241667899305,-2313.683005040054
23859,29966,255,4788,-16122,22528,10772,8772,-8211,-15147,21,1,30122,2020-11-02 14:41:45,2020-11-02 14:42:14,2,D7:F2:3B:06:4D:C8,21,21,-9294.922005547996,-10959.263111951394,26729.199425979845
23860,16913,5620,20691,21233,-6127,25622,-7751,28396,-2864,21,1,30148,2020-11-02 14:41:45,2020-11-02 14:42:14,2,D7:F2:3B:06:4D:C8,21,21,-15936.698943211493,20447.375105639134,8583.584803724534
23861,-23782,7158,25051,-23317,5644,-10220,-10053,13034,2763,21,1,30174,2020-11-02 14:41:45,2020-11-02 14:42:14,2,D7:F2:3B:06:4D:C8,21,21,16727.32244989425,24947.173545826758,18498.87306653206
23862,-14553,-25864,20966,-10778,11783,-7153,-17476,24809,-18747,21,1,30200,2020-11-02 14:41:45,2020-11-02 14:42:14,2,D7:F2:3B:06:4D:C8,21,21,-18202.841986477786,-31447.383021395035,167.64760957595354
23863,18989,-29962,8418,21474,-12026,24578,-9030,26600,1987,21,1,30225,2020-11-02 14:41:45,2020-11-02 14:42:14,2,D7:F2:3B:06:4D:C8,21,21,-34934.79766670816,-9105.03493830833,-5081.785095647655
23864,-30173,-9490,-11542,24027,4866,12281,24385,-7449,8132,21,1,30250,2020-11-02 14:41:45,2020-11-02 14:42:14,2,D7:F2:3B:06:4D:C8,21,21,-13373.093221707348,-25513.506443206876,-17432.990554003245
23865,11804,31210,-5638,-2086,-5115,-16138,20793,-8473,-9530,21,1,30276,2020-11-02 14:41:45,2020-11-02 14:42:14,2,D7:F2:3B:06:4D:C8,21,21,-26424.176136891852,-14560.09647075348,15328.14621044787
23866,-4073,-4630,-8439,-22816,-4598,5110,29488,-19481,4043,21,1,30301,2020-11-02 14:41:45,2020-11-02 14:42:14,2,D7:F2:3B:06:4D:C8,21,21,3743.5087194503158,-9405.717872576963,-2600.3007073963086
23867,-31981,-32276,5143,-14357,7949,4083,9768,27368,7888,21,1,30327,2020-11-02 14:41:45,2020-11-02 14:42:14,2,D7:F2:3B:06:4D:C8,21,21,39579.69424466175,21355.973628215204,-8267.114362948345
23868,-30196,-19986,-12263,5627,-29940,-23824,-25054,16362,-31532,21,1,30352,2020-11-02 14:41:45,2020-11-02 14:42:14,2,D7:F2:3B:06:4D:C8,21,21,-19695.947948118923,12188.68070462858,30415.875428887546
23869,8711,9455,26389,18953,22280,-29457,10785,-20244,-3370,21,1,30378,2020-11-02 14:41:45,2020-11-02 14:42:14,2,D7:F2:3B:06:4D:C8,21,21,-11758.685059653588,-17097.01951611232,-20762.541181983335
23870,3584,14830,-19696,-24299,-3580,-16400,-21214,5615,19160,21,1,30404,2020-11-02 14:41:45,2020-11-02 14:42:14,2,D7:F2:3B:06:4D:C8,21,21,-1084.0241716037658,17792.12061066205,17406.082493514543
23871,-30731,26350,-6133,22304,-8959,12789,22054,-2320,9433,21,1,30429,2020-11-02 14:41:45,2020-11-02 14:42:14,2,D7:F2:3B:06:4D:C8,21,21,4618.552423370052,-39486.10840301897,9790.136194028033
23872,-30483,13290,7426,-3800,-13564,9728,-22741,-26383,-12839,21,1,30455,2020-11-02 14:41:45,2020-11-02 14:42:14,2,D7:F2:3B:06:4D:C8,21,21,-16396.441585274173,-6728.872591832966,29100.890742098785
23873,28151,-541,4590,-5587,-16877,-20975,-12239,11247,-5158,21,-1,30480,2020-11-02 14:41:45,2020-11-02 14:42:14,2,D7:F2:3B:06:4D:C8,21,21,14016.689464925028,4398.810627701883,-24454.497817487005
23874,20485,-26383,25288,1827,-26853,27166,5433,-17175,730,21,-1,30506,2020-11-02 14:41:45,2020-11-02 14:42:14,2,D7:F2:3B:06:4D:C8,21,21,-31519.08127623605,-26383.0,8103.436585919953
23875,-17902,25589,1746,-12027,-27369,-26594,24386,-32540,-15662,21,-1,30532,2020-11-02 14:41:45,2020-11-02 14:42:14,2,D7:F2:3B:06:4D:C8,21,21,-3710.800570349097,28909.238256402718,11349.57900371809
23876,3608,8433,12262,15866,27409,3866,-30523,22754,-2367,21,-1,30557,2020-11-02 14:41:45,2020-11-02 14:42:14,2,D7:F2:3B:06:4D:C8,21,21,-1939.8577978077008,-9366.206245908017,-11958.299598329117
23877,23589,-2322,21469,-30990,-5111,31765,28369,-8989,-20160,21,-1,30583,2020-11-02 14:41:45,2020-11-02 14:42:14,2,D7:F2:3B:06:4D:C8,21,21,-20336.906167160647,-20844.094972935985,13216.82708925739
23878,-24287,-6674,30437,-18459,16391,17936,-13357,-5147,-23750,21,-1,30608,2020-11-02 14:41:45,2020-11-02 14:42:14,2,D7:F2:3B:06:4D:C8,21,21,-7172.355515294223,-38286.2961060251,-6597.610237350775
23879,8497,14831,-18705,-11806,-13816,-15096,9427,16359,-32714,21,-1,30634,2020-11-02 14:41:45,2020-11-02 14:42:14,2,D7:F2:3B:06:4D:C8,21,21,-23168.093420281595,5416.622904042015,-8714.025394988937
23880,-14540,-20758,-18449,-16160,-19705,28667,-7216,-13850,-10189,21,-1,30660,2020-11-02 14:41:45,2020-11-02 14:42:14,2,D7:F2:3B:06:4D:C8,21,21,-22915.928565831207,-13801.170946092836,-16341.960209303052
23881,15659,4067,-4867,15071,2564,-1555,-24374,-16924,16181,21,-1,30685,2020-11-02 14:41:45,2020-11-02 14:42:14,2,D7:F2:3B:06:4D:C8,21,21,4148.266090138661,-11527.173581239695,11633.942438974647
23882,-26082,10976,4107,-29980,-21502,-2585,-20547,-14622,2878,21,-1,30711,2020-11-02 14:41:45,2020-11-02 14:42:14,2,D7:F2:3B:06:4D:C8,21,21,15959.494436928502,-10286.577769584614,-21379.700748792904
23883,17171,20966,13585,6382,-2044,20457,-5575,-16158,-2626,21,-1,30736,2020-11-02 14:41:45,2020-11-02 14:42:14,2,D7:F2:3B:06:4D:C8,21,21,-19498.46287377787,20966.0,9960.191341530852
23884,10259,-20245,-6897,-10504,518,4843,-17362,19684,-13112,21,-1,30762,2020-11-02 14:41:45,2020-11-02 14:42:14,2,D7:F2:3B:06:4D:C8,21,21,20997.238632119126,56.8108620980222,-11035.780776718591
23885,-23023,13805,3595,31490,7942,-9495,22313,-11290,26574,21,1,30788,2020-11-02 14:41:45,2020-11-02 14:42:14,2,D7:F2:3B:06:4D:C8,21,21,-3482.1373903903122,17653.17094848482,-20243.53856562674
23886,10506,-27157,-9719,-3318,-20730,26600,20263,-8215,3794,21,1,30813,2020-11-02 14:41:45,2020-11-02 14:42:14,2,D7:F2:3B:06:4D:C8,21,21,804.8535396835805,28256.771588512147,11968.488466565504
23887,-771,28396,17928,18195,19458,-5912,-9177,8429,26068,21,1,30839,2020-11-02 14:41:45,2020-11-02 14:42:14,2,D7:F2:3B:06:4D:C8,21,21,31115.159153539447,-10526.050869547631,-7027.770979592724
23888,13807,-26129,2310,1561,-23559,5869,-5334,19952,469,21,1,30864,2020-11-02 14:41:45,2020-11-02 14:42:14,2,D7:F2:3B:06:4D:C8,21,21,-13342.839181944057,-26129.0,-4235.326618429615
23889,17126,-6161,8710,-7905,765,-28935,22831,27122,-4140,21,1,30890,2020-11-02 14:41:45,2020-11-02 14:42:14,2,D7:F2:3B:06:4D:C8,21,21,-4010.5232333737567,4870.188501353901,19165.564545711914
23890,-531,-30488,-11021,18474,14352,26893,-1484,6129,24533,21,1,30941,2020-11-02 14:41:45,2020-11-02 14:42:14,2,D7:F2:3B:06:4D:C8,21,21,-16824.06975939606,27163.88787118483,-5507.850620039775
23891,-25094,-14099,-18991,-31450,16419,25633,-20676,31467,-9261,21,1,30943,2020-11-02 14:41:45,2020-11-02 14:42:14,2,D7:F2:3B:06:4D:C8,21,21,-5127.765518986406,28859.325359673006,-18165.73914176983
23892,-10477,-16141,10949,-15094,-32220,-14807,-12099,22757,29128,21,1,30966,2020-11-02 14:41:45,2020-11-02 14:42:14,2,D7:F2:3B:06:4D:C8,21,21,19335.389202283775,-6586.180840624716,-8540.782009324195
23893,6440,-22032,24283,-3086,-18417,-10212,462,11237,-958,21,1,30992,2020-11-02 14:41:45,2020-11-02 14:42:14,2,D7:F2:3B:06:4D:C8,21,21,23912.98677388097,-22032.0,7701.0877512331845
23894,-16599,-29712,-22303,17130,10754,24334,20944,15847,17469,21,1,31018,2020-11-02 14:41:45,2020-11-02 14:42:14,2,D7:F2:3B:06:4D:C8,21,21,-27535.34643289192,-28966.147103824227,7649.874036887239
23895,30494,20719,-15,743,-13561,1549,31951,30440,-5575,21,1,31043,2020-11-02 14:41:45,2020-11-02 14:42:14,2,D7:F2:3B:06:4D:C8,21,21,27705.936347314797,5862.812956492638,23604.443169787388
23896,-29141,-9491,16368,21479,19466,13317,22735,-15128,-15563,21,1,31069,2020-11-02 14:41:45,2020-11-02 14:42:14,2,D7:F2:3B:06:4D:C8,21,21,-5241.660373316403,-28481.28050522617,-19197.136331063244
23897,-17108,-28186,12277,-19741,-23803,3321,30156,-9241,23860,21,1,31094,2020-11-02 14:41:45,2020-11-02 14:42:14,2,D7:F2:3B:06:4D:C8,21,21,25682.297213128382,23956.50344582792,2089.1485123305956
23898,-15067,14562,8705,27620,29700,9198,-1595,-1051,-11978,21,1,31120,2020-11-02 14:41:45,2020-11-02 14:42:14,2,D7:F2:3B:06:4D:C8,21,21,19511.273515691373,7640.454096183058,8705.0
23899,18970,24290,28940,-9494,23556,-23064,7611,20708,-29634,21,-1,31146,2020-11-02 14:41:45,2020-11-02 14:42:14,2,D7:F2:3B:06:4D:C8,21,21,6883.923361122383,-16311.88897225197,-38391.698025941994
23900,-7918,6376,32271,27637,27911,4585,-454,2020,701,21,-1,31171,2020-11-02 14:41:45,2020-11-02 14:42:14,2,D7:F2:3B:06:4D:C8,21,21,-7918.0,6376.0,32271.0
23901,30733,-2067,-27381,-3585,4364,20458,24368,-540,-25913,21,-1,31197,2020-11-02 14:41:45,2020-11-02 14:42:14,2,D7:F2:3B:06:4D:C8,21,21,-5428.462935029829,35920.49444863717,19461.726740668044
23902,-27385,-26897,6665,-19191,7181,23531,-6103,-3610,-25393,21,-1,31224,2020-11-02 14:41:45,2020-11-02 14:42:14,2,D7:F2:3B:06:4D:C8,21,21,24653.817008786922,-14891.850716853136,26234.159946989144
23903,-4614,31984,-1016,-26094,-239,5105,-15322,-1048,-14123,21,-1,31248,2020-11-02 14:41:45,2020-11-02 14:42:14,2,D7:F2:3B:06:4D:C8,21,21,-11022.73496053459,10118.885210139242,-28660.163713660706
23904,18671,18928,17160,14877,-17133,15869,23589,-17687,-3621,21,-1,31273,2020-11-02 14:41:45,2020-11-02 14:42:14,2,D7:F2:3B:06:4D:C8,21,21,-14879.763959013413,614.5643637776011,27920.529367596522
23905,28146,-5653,-30723,-27613,-4849,25611,-19930,-31000,25056,21,-1,31299,2020-11-02 14:41:45,2020-11-02 14:42:14,2,D7:F2:3B:06:4D:C8,21,21,-23828.813459199948,-29518.38348290809,-18135.85232854055
23906,-14339,-8216,-26646,25380,30994,11287,-3033,5349,16613,21,-1,31325,2020-11-02 14:41:45,2020-11-02 14:42:14,2,D7:F2:3B:06:4D:C8,21,21,13437.917148049277,-9619.353394182128,-26646.0
23907,4106,2039,26571,-9706,22026,-24550,-18135,-22048,16616,21,-1,31350,2020-11-02 14:41:45,2020-11-02 14:42:14,2,D7:F2:3B:06:4D:C8,21,21,-1444.1981908468365,-1004.2112497946359,26906.145196801055
23908,3343,24057,26318,-15109,-2554,13336,-10298,20189,29631,21,-1,31401,2020-11-02 14:41:45,2020-11-02 14:42:14,2,D7:F2:3B:06:4D:C8,21,21,32520.405767441498,13957.72732866629,5491.546097371875
23909,-2287,5616,-2079,-9235,-23543,26393,-2850,-3616,-13007,21,-1,31403,2020-11-02 14:41:45,2020-11-02 14:42:14,2,D7:F2:3B:06:4D:C8,21,21,6058.342164236343,-257.5174188984174,-2079.0
23910,25879,15080,11753,-2332,-20728,-14055,-31778,5861,32558,21,-1,31427,2020-11-02 14:41:45,2020-11-02 14:42:14,2,D7:F2:3B:06:4D:C8,21,21,1508.3389747203746,-29750.155406964936,-12162.039993306013
23911,29484,-8223,1271,21728,9992,-19944,-9253,8425,11308,21,1,31452,2020-11-02 14:41:45,2020-11-02 14:42:14,2,D7:F2:3B:06:4D:C8,21,21,14903.90021954864,16967.91454744732,-20700.31546030794
23912,11838,2527,9724,28384,-29687,31753,15321,29419,30761,21,1,31478,2020-11-02 14:41:45,2020-11-02 14:42:14,2,D7:F2:3B:06:4D:C8,21,21,-8058.991608262328,-7634.604338966565,10855.672242905563
23913,-21960,-26916,28678,26596,-21755,5108,6102,-23830,-15577,21,1,31504,2020-11-02 14:41:45,2020-11-02 14:42:14,2,D7:F2:3B:06:4D:C8,21,21,-38886.819890110164,7965.449241571461,21295.708422451724
23914,11300,-26915,-4087,-1557,-7166,13542,32209,28135,5417,21,1,31529,2020-11-02 14:41:45,2020-11-02 14:42:14,2,D7:F2:3B:06:4D:C8,21,21,-26041.444863428937,-11553.891232290982,-7560.5251680938245
23915,8984,15073,-7415,-19982,-6397,24547,-3383,-13597,-22226,21,1,31555,2020-11-02 14:41:45,2020-11-02 14:42:14,2,D7:F2:3B:06:4D:C8,21,21,-846.6150479419875,-15346.049969629983,11254.856875598985
23916,-13548,-18458,32010,23545,-7931,-13083,-32069,22241,7484,21,1,31580,2020-11-02 14:41:45,2020-11-02 14:42:14,2,D7:F2:3B:06:4D:C8,21,21,36824.41901421607,-9151.029830294528,10445.428919412614
23917,-20974,17129,17161,-5376,-503,-8474,-9677,27105,-9533,21,1,31606,2020-11-02 14:41:45,2020-11-02 14:42:14,2,D7:F2:3B:06:4D:C8,21,21,29448.55285005112,-2007.7297257749615,-12512.513511920213
23918,23821,-29719,2311,-12793,4361,-9755,-13016,3812,4560,21,1,31632,2020-11-02 14:41:45,2020-11-02 14:42:14,2,D7:F2:3B:06:4D:C8,21,21,23821.0,14468.854188738675,26061.69488857199
23919,11779,-24344,12548,10254,1033,12261,-21211,-20249,24021,21,1,31657,2020-11-02 14:41:45,2020-11-02 14:42:14,2,D7:F2:3B:06:4D:C8,21,21,26372.588917659778,-9045.158415146492,10559.315509304244
23920,3317,9707,-28156,30229,26116,-25625,7718,23019,10200,21,1,31683,2020-11-02 14:41:45,2020-11-02 14:42:14,2,D7:F2:3B:06:4D:C8,21,21,-22640.68999240847,18296.586409689546,7114.967070930064
23921,-27931,-5648,-9989,-2533,12290,-17935,1321,8686,-32551,21,1,31708,2020-11-02 14:41:45,2020-11-02 14:42:14,2,D7:F2:3B:06:4D:C8,21,21,-1249.1032048084212,-24133.619972894838,18106.046343352507
23922,5602,-14346,31733,8222,30217,18949,-21972,23790,-13862,21,1,31734,2020-11-02 14:41:45,2020-11-02 14:42:14,2,D7:F2:3B:06:4D:C8,21,21,9253.61932214006,-24669.901178942146,23450.797731892726
23923,14319,-24079,-5650,10526,19216,13080,-5584,11499,26843,21,1,31760,2020-11-02 14:41:45,2020-11-02 14:42:14,2,D7:F2:3B:06:4D:C8,21,21,-10969.997380311055,24136.820287811133,-10669.000228225581
23924,-13565,24049,-4392,24,21776,-21469,25912,3046,-13097,21,1,31785,2020-11-02 14:41:45,2020-11-02 14:42:14,2,D7:F2:3B:06:4D:C8,21,21,-11671.039131738136,20259.450285920942,-15329.540426827381
23925,-8423,16116,22730,-5632,14871,-4572,-29763,-8223,7623,21,1,31811,2020-11-02 14:41:45,2020-11-02 14:42:14,2,D7:F2:3B:06:4D:C8,21,21,2077.7491853386127,-28644.118599734637,4745.81004330778
23926,22303,30187,25823,-22038,3603,-1509,-31276,-18462,3386,21,-1,31836,2020-11-02 14:41:45,2020-11-02 14:42:14,2,D7:F2:3B:06:4D:C8,21,21,-27198.51544363172,-16199.391152047814,-32761.663434042563
23927,3365,31207,19180,-11295,3589,-11503,-9514,-25371,10803,21,-1,31862,2020-11-02 14:41:45,2020-11-02 14:42:14,2,D7:F2:3B:06:4D:C8,21,21,-35457.701344118424,5855.982187044503,7844.192884951307
23928,-27356,-17944,1538,17376,-3063,9743,-22571,-23833,5935,21,-1,31887,2020-11-02 14:41:45,2020-11-02 14:42:14,2,D7:F2:3B:06:4D:C8,21,21,-5056.849917172322,25404.806350975723,20043.138456454813
23929,-17613,21225,-12026,29159,25864,13060,-4396,31464,11819,21,-1,31913,2020-11-02 14:41:45,2020-11-02 14:42:14,2,D7:F2:3B:06:4D:C8,21,21,-22019.724192497644,-2889.6565989261217,-20300.854692022614
23930,-17613,-28699,7687,9453,-25084,23285,-9006,28391,-5335,21,-1,31939,2020-11-02 14:41:45,2020-11-02 14:42:14,2,D7:F2:3B:06:4D:C8,21,21,-9906.913464691532,-9037.748415891443,-31829.428335648212
23931,26152,31459,-29430,-8719,9476,-28183,-14642,-19484,-16341,21,-1,31964,2020-11-02 14:41:45,2020-11-02 14:42:14,2,D7:F2:3B:06:4D:C8,21,21,-26424.004189124884,38027.22067555927,19885.25019469024
23932,-13798,31460,-23539,6648,13062,9701,21701,29921,-4813,21,-1,31990,2020-11-02 14:41:45,2020-11-02 14:42:14,2,D7:F2:3B:06:4D:C8,21,21,-30517.472990757404,-27823.3400733288,-5361.577605732094
23933,-14061,-30744,-23284,-6401,-12791,31205,-22471,-1057,27839,21,-1,32015,2020-11-02 14:41:45,2020-11-02 14:42:14,2,D7:F2:3B:06:4D:C8,21,21,29738.442326787586,-7105.345390196157,27389.57881863733
23934,-21747,11499,5897,-22265,-14839,1254,-17881,26594,22994,21,-1,32041,2020-11-02 14:41:45,2020-11-02 14:42:14,2,D7:F2:3B:06:4D:C8,21,21,-20967.652577088465,-8133.840200545818,-11581.528741858747
23935,9477,28395,-13053,526,13320,-30746,10532,1766,-2601,21,-1,32067,2020-11-02 14:41:45,2020-11-02 14:42:14,2,D7:F2:3B:06:4D:C8,21,21,9477.0,26325.604739823302,16841.00261512339
23936,-265,-5139,-8447,8211,20743,19690,15140,30441,-11558,21,-1,32092,2020-11-02 14:41:45,2020-11-02 14:42:14,2,D7:F2:3B:06:4D:C8,21,21,8498.070920752238,-5027.408002302892,-582.5069993107971
23937,-26137,-29455,26367,29463,-7422,8691,11558,-4117,-29732,21,1,32118,2020-11-02 14:41:45,2020-11-02 14:42:14,2,D7:F2:3B:06:4D:C8,21,21,3822.442856281923,-28387.311921980305,-37755.89934638896
23938,-13342,4852,11771,-5095,30977,8963,-10199,-28948,-15140,21,1,32143,2020-11-02 14:41:45,2020-11-02 14:42:14,2,D7:F2:3B:06:4D:C8,21,21,12056.597030166122,-3757.0130471594694,13439.889509057095
23939,-30482,-10768,-13838,-28902,-28921,30996,6702,21738,-29476,21,1,32194,2020-11-02 14:41:45,2020-11-02 14:42:14,2,D7:F2:3B:06:4D:C8,21,21,2311.0697784679924,28352.179392763923,20673.782241273235
23940,-27392,28656,-25633,23318,1800,8479,7477,20710,-2600,21,1,32196,2020-11-02 14:41:45,2020-11-02 14:42:14,2,D7:F2:3B:06:4D:C8,21,21,28566.27710276849,37052.32863053822,-6295.35102614955
23941,-8177,6643,8408,-15610,12813,30498,2115,-24350,-27188,21,1,32220,2020-11-02 14:41:45,2020-11-02 14:42:14,2,D7:F2:3B:06:4D:C8,21,21,-12680.32415690875,4518.518760054133,692.5384399116801
23942,14111,-18448,3047,30200,-31223,-26339,-17206,-25630,-8893,21,1,32247,2020-11-02 14:41:45,2020-11-02 14:42:14,2,D7:F2:3B:06:4D:C8,21,21,10577.490735202698,18124.525084825236,-10409.203341093966
23943,-12505,5618,-5910,22516,-1791,14100,31953,15845,5947,21,1,32271,2020-11-02 14:41:45,2020-11-02 14:42:14,2,D7:F2:3B:06:4D:C8,21,21,2769.1737223490604,-3226.802749390855,14310.292446766249
23944,7972,17395,9964,-26896,13572,-22513,-26670,24551,32311,21,1,32297,2020-11-02 14:41:45,2020-11-02 14:42:14,2,D7:F2:3B:06:4D:C8,21,21,-21040.20820899707,4459.72573093358,1685.404974153429
23945,-31696,-16651,-3345,-12305,14339,-20729,29650,-22552,-10188,21,1,32322,2020-11-02 14:41:45,2020-11-02 14:42:14,2,D7:F2:3B:06:4D:C8,21,21,9135.350419895789,-28906.02704017124,-19340.843194095727
23946,-15058,-7182,20202,2029,-13312,15613,7888,-21784,26164,21,1,32348,2020-11-02 14:41:45,2020-11-02 14:42:14,2,D7:F2:3B:06:4D:C8,21,21,-25096.60698010036,2886.3942817020943,-6947.9736712897175
23947,-16345,-19219,-528,-5401,-29184,2037,24523,-21017,-4555,21,1,32373,2020-11-02 14:41:45,2020-11-02 14:42:14,2,D7:F2:3B:06:4D:C8,21,21,14080.134774134658,12162.785031855172,-17047.704684534034
23948,-7648,-18456,12543,4328,-26110,-19472,32196,18150,29241,21,-1,32399,2020-11-02 14:41:45,2020-11-02 14:42:14,2,D7:F2:3B:06:4D:C8,21,21,9512.129552971628,-8210.096971831294,-19963.877080382215
23949,-16100,3814,-7669,17902,-2296,7150,23228,31972,-7362,21,-1,32425,2020-11-02 14:41:45,2020-11-02 14:42:14,2,D7:F2:3B:06:4D:C8,21,21,-10550.833123613655,1075.8881209041251,-14835.516241403746
23950,-14313,-12827,21778,-31495,24844,-11286,30781,-798,-28484,21,-1,32450,2020-11-02 14:41:45,2020-11-02 14:42:14,2,D7:F2:3B:06:4D:C8,21,21,-3695.395828872104,-22104.144758800987,18477.716746122216
23951,-10481,18405,-26866,-1788,12043,-10009,26928,-25117,16330,21,-1,32476,2020-11-02 14:41:45,2020-11-02 14:42:14,2,D7:F2:3B:06:4D:C8,21,21,25432.42865485565,22196.31133998352,5558.118172025172
23952,22020,-21786,15371,-12531,5897,-14873,7466,12518,-22318,21,-1,32501,2020-11-02 14:41:45,2020-11-02 14:42:14,2,D7:F2:3B:06:4D:C8,21,21,14611.992035717261,27037.902881984897,-15849.900109858367
23953,-11788,-13079,-11512,-24811,-3579,-29716,2345,-4120,3287,21,-1,32527,2020-11-02 14:41:45,2020-11-02 14:42:14,2,D7:F2:3B:06:4D:C8,21,21,-11788.0,-13079.0,-11512.0
23954,-12054,16622,-10493,-8932,19716,29175,555,-25622,28121,21,-1,32553,2020-11-02 14:41:45,2020-11-02 14:42:14,2,D7:F2:3B:06:4D:C8,21,21,12620.16782168247,-10817.860491017189,15981.179792163646
23955,-16405,-21521,-16396,-24287,-19706,4869,1071,24554,-29478,21,-1,32578,2020-11-02 14:41:45,2020-11-02 14:42:14,2,D7:F2:3B:06:4D:C8,21,21,27198.557415694264,16076.717925165776,-1698.2041278467805
23956,-4108,245,-27434,1822,-28153,22290,-1484,12520,-32295,21,-1,32604,2020-11-02 14:41:45,2020-11-02 14:42:14,2,D7:F2:3B:06:4D:C8,21,21,-6826.149113764733,-22212.19609293357,15151.966143234205
23957,4613,-6408,20690,21517,4870,28953,-29379,-32283,-26925,21,-1,32629,2020-11-02 14:41:45,2020-11-02 14:42:14,2,D7:F2:3B:06:4D:C8,21,21,15708.280742592731,14946.653118604483,-4501.7562866065
23958,20242,-32520,27100,0,-20475,-16872,-9797,20708,-16952,21,1,32655,2020-11-02 14:41:45,2020-11-02 14:42:14,2,D7:F2:3B:06:4D:C8,21,21,10630.989519958925,10653.688372193388,-44442.99663495606
23959,-12010,10486,-5662,29176,-22778,-235,-32059,-23068,-16195,21,1,32680,2020-11-02 14:41:45,2020-11-02 14:42:14,2,D7:F2:3B:06:4D:C8,21,21,1713.7993955359975,-16449.860814160733,3566.4423206607034
23960,24854,-9230,-26132,-9486,-20986,-17643,-21045,4582,-8639,21,1,32706,2020-11-02 14:41:45,2020-11-02 14:42:14,2,D7:F2:3B:06:4D:C8,21,21,18014.591666814365,-17969.335670675795,27173.021595555412
23961,6950,-2062,-26387,-11280,-2045,-14832,-29746,-6425,14908,21,1,32732,2020-11-02 14:41:45,2020-11-02 14:42:14,2,D7:F2:3B:06:4D:C8,21,21,-27352.354457091857,368.1443733122678,735.7230280517733
23962,25647,24049,15850,-23060,26881,24839,10190,4073,-26823,21,1,32757,2020-11-02 14:41:45,2020-11-02 14:42:14,2,D7:F2:3B:06:4D:C8,21,21,-16503.971992705494,19634.29571147276,28800.32726165512
23963,-20434,3310,13039,12775,-8449,20476,-20534,8425,-28103,21,1,32783,2020-11-02 14:41:45,2020-11-02 14:42:14,2,D7:F2:3B:06:4D:C8,21,21,15660.846044384283,-15934.303730536532,9967.740104813263
23964,-22745,-29974,9209,20965,2051,8693,13253,12008,19515,21,1,32808,2020-11-02 14:41:45,2020-11-02 14:42:14,2,D7:F2:3B:06:4D:C8,21,21,18035.8541918476,-6712.258109798968,33618.96691806355
23965,-2784,-30999,15106,-14873,29190,-22544,18622,-23066,-16066,21,1,32834,2020-11-02 14:41:45,2020-11-02 14:42:14,2,D7:F2:3B:06:4D:C8,21,21,31297.164549267538,-236.90524622014163,14741.48093240243
23966,21532,-21782,-30713,-5139,26632,-24339,322,25317,3653,21,1,32860,2020-11-02 14:41:45,2020-11-02 14:42:14,2,D7:F2:3B:06:4D:C8,21,21,9169.420593957106,-21782.0,36370.827856554424
23967,-13033,-23572,-29175,-1035,11784,-3606,-6857,19685,9409,21,1,32885,2020-11-02 14:41:45,2020-11-02 14:42:14,2,D7:F2:3B:06:4D:C8,21,21,38656.778011270624,-8805.005681784149,-2191.8683197430964
23968,28176,3822,-9720,25342,-23289,-4632,-8657,-10010,4553,21,1,32911,2020-11-02 14:41:45,2020-11-02 14:42:14,2,D7:F2:3B:06:4D:C8,21,21,22348.999869155108,-6114.062559304723,19134.09271090252
23969,31750,-1297,21254,-24570,5385,24297,27947,19177,-18482,21,1,32936,2020-11-02 14:41:45,2020-11-02 14:42:14,2,D7:F2:3B:06:4D:C8,21,21,35311.03045057388,-12070.559272703711,8301.20186254918
23970,17915,-28430,28165,11278,-16885,-17427,31785,-23573,10195,21,-1,32962,2020-11-02 14:41:45,2020-11-02 14:42:14,2,D7:F2:3B:06:4D:C8,21,21,-7852.992808576757,22830.77554337855,-36600.075710800236
23971,9968,13557,-5118,9238,17924,17652,11050,24045,2774,21,-1,32988,2020-11-02 14:41:45,2020-11-02 14:42:14,2,D7:F2:3B:06:4D:C8,21,21,-13056.22675689931,11631.526860901186,1894.6563689916786
23972,-15637,-30987,6909,-23782,-8194,-19201,-13523,13550,21462,21,-1,33013,2020-11-02 14:41:45,2020-11-02 14:42:14,2,D7:F2:3B:06:4D:C8,21,21,-31924.609279535794,-14820.593971744383,3689.6525139464507
23973,-26127,-19470,-7693,25374,-17403,21005,-17614,2797,-18987,21,-1,33039,2020-11-02 14:41:45,2020-11-02 14:42:14,2,D7:F2:3B:06:4D:C8,21,21,28432.438841247014,-14320.44357613899,10363.618833272842
23974,-8196,-27152,7143,7709,2315,-12777,20025,-2583,23507,21,-1,33064,2020-11-02 14:41:45,2020-11-02 14:42:14,2,D7:F2:3B:06:4D:C8,21,21,24937.451054577392,-10708.481872969538,-10903.206862058496
23975,11529,-7179,7635,-31982,-6133,-6117,-7614,-1050,-23860,21,-1,33090,2020-11-02 14:41:45,2020-11-02 14:42:14,2,D7:F2:3B:06:4D:C8,21,21,-9462.525638742205,7061.12957093708,10166.128305239137
23976,-28390,12794,-27698,-27905,-17145,-26857,26560,3046,-16446,21,-1,33141,2020-11-02 14:41:45,2020-11-02 14:42:14,2,D7:F2:3B:06:4D:C8,21,21,-14850.403730971339,38018.30678744337,8422.08988571069
23977,-4324,-3593,14294,-24336,21247,-3825,-27452,4327,28348,21,-1,33143,2020-11-02 14:41:45,2020-11-02 14:42:14,2,D7:F2:3B:06:4D:C8,21,21,-3583.1516349569974,8808.248189065966,-12062.373282265857
23978,-6116,32755,3813,24553,13317,-9199,-20027,14824,16452,21,-1,33166,2020-11-02 14:41:45,2020-11-02 14:42:14,2,D7:F2:3B:06:4D:C8,21,21,31115.05243460865,8641.845149944109,9055.742619793344
23979,-2766,-20748,28651,-31513,520,21771,-23354,32232,63,21,-1,33192,2020-11-02 14:41:45,2020-11-02 14:42:14,2,D7:F2:3B:06:4D:C8,21,21,32230.847806072743,-8121.35044738923,-12418.78325813228
23980,-24016,5873,18415,12005,27140,-19971,17092,-6169,12861,21,-1,33218,2020-11-02 14:41:45,2020-11-02 14:42:14,2,D7:F2:3B:06:4D:C8,21,21,22034.68223779428,-2036.1499819201672,-21463.91115175796
23981,17190,-3861,14840,16356,-9724,-23053,7870,-11034,24895,21,-1,33243,2020-11-02 14:41:45,2020-11-02 14:42:14,2,D7:F2:3B:06:4D:C8,21,21,-14477.050595262503,5534.007350263813,17041.678019180967
23982,-7142,3050,12290,-22297,20996,32495,-447,4070,-19644,21,-1,33270,2020-11-02 14:41:45,2020-11-02 14:42:14,2,D7:F2:3B:06:4D:C8,21,21,7500.942435302976,-2011.5980170677867,12290.0
23983,18197,-7189,-8696,28398,1286,10479,313,11238,-32322,21,-1,33295,2020-11-02 14:41:45,2020-11-02 14:42:14,2,D7:F2:3B:06:4D:C8,21,21,7606.960815784143,371.9190927562031,-20010.716362378636
23984,-7662,1005,6668,2552,8713,-22802,32305,-2586,-13372,21,-1,33320,2020-11-02 14:41:45,2020-11-02 14:42:14,2,D7:F2:3B:06:4D:C8,21,21,9261.885123076776,4187.514110604119,927.7405566323386
23985,-14578,-25364,2829,32258,9995,21741,-6101,25832,-13622,21,-1,33346,2020-11-02 14:41:45,2020-11-02 14:42:14,2,D7:F2:3B:06:4D:C8,21,21,-7058.80477718076,11787.073260875297,-25982.532595195735
23986,-26364,28395,-27378,-32499,31497,-17685,12329,-28182,-25905,21,-1,33371,2020-11-02 14:41:45,2020-11-02 14:42:14,2,D7:F2:3B:06:4D:C8,21,21,-39570.05468240278,25806.815911320475,-4371.547775201679
23987,244,-25365,-756,5656,-24061,-29715,-1751,5613,28882,21,-1,33397,2020-11-02 14:41:45,2020-11-02 14:42:14,2,D7:F2:3B:06:4D:C8,21,21,-24253.900653577482,-7429.068857292539,-756.0
23988,-17436,6379,-31741,-31967,-11263,-31496,-25555,-10002,-20525,21,-1,33422,2020-11-02 14:41:45,2020-11-02 14:42:14,2,D7:F2:3B:06:4D:C8,21,21,33433.165416506075,-15286.971189180369,-853.6861798761129
23989,-6169,16364,6632,-11740,-11763,-19699,-22222,-29459,-30508,21,-1,33448,2020-11-02 14:41:45,2020-11-02 14:42:14,2,D7:F2:3B:06:4D:C8,21,21,11726.880665586978,-14168.750685059196,3398.125200712433
23990,2041,10739,-28711,15385,-10991,-483,15673,19689,27602,21,-1,33474,2020-11-02 14:41:45,2020-11-02 14:42:14,2,D7:F2:3B:06:4D:C8,21,21,15693.456283752152,-14933.199616430713,-21783.670537487335
23991,-7926,-11277,8921,-12532,6412,19488,-6845,-14619,-26167,21,-1,33499,2020-11-02 14:41:45,2020-11-02 14:42:14,2,D7:F2:3B:06:4D:C8,21,21,5278.915714806397,-8274.952841329043,-13161.863483175566
23992,-20961,-3596,-11565,28927,12807,16155,-2877,23525,-12868,21,-1,33525,2020-11-02 14:41:45,2020-11-02 14:42:14,2,D7:F2:3B:06:4D:C8,21,21,-12613.763567956204,-18920.395551386468,-8303.94862886181
23993,-22498,28659,31964,-23310,23041,29715,27337,-1562,-191,21,1,33550,2020-11-02 14:41:45,2020-11-02 14:42:14,2,D7:F2:3B:06:4D:C8,21,21,-22498.0,5457.662429692362,-42582.26741031441
23994,-24529,-11788,-533,-25104,-252,14865,-32565,-24600,-3524,21,1,33601,2020-11-02 14:41:45,2020-11-02 14:42:14,2,D7:F2:3B:06:4D:C8,21,21,7364.058380694061,-2832.703203845058,26051.090394159233
23995,-16326,26355,-25884,-31252,-20986,-32250,-7477,10985,26937,21,1,33604,2020-11-02 14:41:45,2020-11-02 14:42:14,2,D7:F2:3B:06:4D:C8,21,21,19948.73581634179,34633.889203643776,-5800.639185428589
23996,-31690,7149,16876,19172,12292,-4873,30920,22760,-712,21,1,33627,2020-11-02 14:41:45,2020-11-02 14:42:14,2,D7:F2:3B:06:4D:C8,21,21,31080.988418332236,18210.70702309173,6519.6614680990015
23997,-14296,16869,-17925,10722,16133,-23059,-9024,-19738,-32452,21,1,33653,2020-11-02 14:41:45,2020-11-02 14:42:14,2,D7:F2:3B:06:4D:C8,21,21,10694.39220322475,15109.89021835683,21623.265132555956
23998,13340,25572,19976,10214,-9465,-31766,-29886,18405,-9917,21,1,33678,2020-11-02 14:41:45,2020-11-02 14:42:14,2,D7:F2:3B:06:4D:C8,21,21,-14848.643406086649,1097.6090228282483,-31768.481289351643
23999,-25323,31462,-16880,21487,5385,21993,-30666,23269,-15936,21,1,33704,2020-11-02 14:41:45,2020-11-02 14:42:14,2,D7:F2:3B:06:4D:C8,21,21,23939.076929580002,-8034.37654470768,-35754.93759325419
24000,-24564,10731,3345,17148,1545,-6424,-16083,4583,-10296,21,1,33729,2020-11-02 14:41:45,2020-11-02 14:42:14,2,D7:F2:3B:06:4D:C8,21,21,-14470.300949957827,19900.463988018317,-11149.681855516583
24001,-17405,-22037,-9206,-27640,-18677,-15894,28201,-32279,29134,21,1,33755,2020-11-02 14:41:45,2020-11-02 14:42:14,2,D7:F2:3B:06:4D:C8,21,21,11904.55814050765,-14024.95391625114,23127.81859852556
24002,-2568,-6422,-14841,787,20235,27631,11816,-19221,-16686,21,1,33781,2020-11-02 14:41:45,2020-11-02 14:42:14,2,D7:F2:3B:06:4D:C8,21,21,13662.748003226972,-8996.527581916547,-695.5555104606465
24003,-21266,1006,10754,-23782,-8185,-19977,-25559,3565,-23595,21,1,33806,2020-11-02 14:41:45,2020-11-02 14:42:14,2,D7:F2:3B:06:4D:C8,21,21,20557.38612112605,-10344.569090130208,-6267.940188487508
24004,15337,-26897,12540,12575,-19451,-30460,13613,-5652,-8746,21,-1,33832,2020-11-02 14:41:45,2020-11-02 14:42:14,2,D7:F2:3B:06:4D:C8,21,21,8110.338164417501,-13018.827489216172,-29675.854219631525
24005,15856,237,-12306,7970,-12025,-6126,-16334,-20758,24534,21,-1,33857,2020-11-02 14:41:45,2020-11-02 14:42:14,2,D7:F2:3B:06:4D:C8,21,21,2169.8367400493216,19782.307026838906,-2618.9078291173223
24006,-21510,-29200,-25390,-17893,-2302,-6629,-3525,-12569,23249,21,-1,33883,2020-11-02 14:41:45,2020-11-02 14:42:14,2,D7:F2:3B:06:4D:C8,21,21,-43040.31565203907,-5160.332292155661,-8993.019471088466
24007,1796,-14349,-12603,-6138,19975,-16095,20411,-14618,-14906,21,-1,33909,2020-11-02 14:41:45,2020-11-02 14:42:14,2,D7:F2:3B:06:4D:C8,21,21,18800.210352400147,2669.8391152970735,-2716.445435479244
24008,24860,19438,11991,-9995,-23282,-20189,2759,-794,-15291,21,-1,33934,2020-11-02 14:41:45,2020-11-02 14:42:14,2,D7:F2:3B:06:4D:C8,21,21,7329.51302607564,-30694.1962396898,11991.0
24009,28462,21996,27373,-1812,29958,9499,-16948,12521,28220,21,-1,33960,2020-11-02 14:41:45,2020-11-02 14:42:14,2,D7:F2:3B:06:4D:C8,21,21,38309.61425157451,20280.43813011269,-12816.702935865778
24010,-28616,-19729,13037,17901,8449,29194,-7476,-10006,-14536,21,-1,33985,2020-11-02 14:41:45,2020-11-02 14:42:14,2,D7:F2:3B:06:4D:C8,21,21,14996.63032269235,32021.78451620296,-11303.922388373376
24011,-3534,9965,-2073,-31254,-6658,-22786,3274,11243,30520,21,-1,34011,2020-11-02 14:41:45,2020-11-02 14:42:14,2,D7:F2:3B:06:4D:C8,21,21,8519.2361560695,6330.408987805899,1853.7117802464527
24012,23592,2029,-19471,-28441,-20734,-17417,-20539,25578,27705,21,-1,34037,2020-11-02 14:41:45,2020-11-02 14:42:14,2,D7:F2:3B:06:4D:C8,21,21,15873.8573419827,25655.902947471313,5441.915383053527
24013,-8414,29418,-15111,-4889,29192,-11790,11456,-8984,-26821,21,-1,34062,2020-11-02 14:41:45,2020-11-02 14:42:14,2,D7:F2:3B:06:4D:C8,21,21,-9555.845058289991,-32706.192209641395,1883.4164085372458
24014,-12259,4330,30465,9708,15113,7918,-25275,3303,2624,21,-1,34088,2020-11-02 14:41:45,2020-11-02 14:42:14,2,D7:F2:3B:06:4D:C8,21,21,-12259.0,-25886.26489789547,-16636.29810492661
24015,17686,-790,3845,23282,19719,-17686,-31684,29670,-14662,21,-1,34113,2020-11-02 14:41:45,2020-11-02 14:42:14,2,D7:F2:3B:06:4D:C8,21,21,-5511.21397774931,-2643.7200272525183,17054.031368241485
24016,-3826,-11796,-16124,-15367,-11769,8426,21300,25063,21698,21,-1,34139,2020-11-02 14:41:45,2020-11-02 14:42:14,2,D7:F2:3B:06:4D:C8,21,21,6267.550743346446,-14987.83815253631,-12241.314602319242
24017,-7926,-20,26884,-6912,-11766,-8471,31022,5865,-18744,21,-1,34164,2020-11-02 14:41:45,2020-11-02 14:42:14,2,D7:F2:3B:06:4D:C8,21,21,1508.0191549360238,-25819.625268687152,10800.192647028005
24018,-21758,-16919,30218,-23030,12813,31465,-12502,19435,20430,21,-1,34190,2020-11-02 14:41:45,2020-11-02 14:42:14,2,D7:F2:3B:06:4D:C8,21,21,-26588.342147230876,-31076.792014980994,289.3249373969811
24019,-21772,-18712,3085,25368,16130,490,299,3822,-14639,21,-1,34215,2020-11-02 14:41:45,2020-11-02 14:42:14,2,D7:F2:3B:06:4D:C8,21,21,-7954.424525457773,27584.16318231887,3085.0
24020,10980,-18453,30469,-13023,19200,-28683,-9938,24816,-3630,21,-1,34241,2020-11-02 14:41:45,2020-11-02 14:42:14,2,D7:F2:3B:06:4D:C8,21,21,-31387.22098071046,15668.580985927016,-12600.45630108273
24021,-13846,-22301,32512,-15573,7691,-20215,30004,-25361,-20525,21,-1,34267,2020-11-02 14:41:45,2020-11-02 14:42:14,2,D7:F2:3B:06:4D:C8,21,21,-28384.803658164215,-29147.957625881514,-9527.641288759913
24022,-23554,-20259,-24605,15153,786,-6634,3645,2796,9170,21,-1,34294,2020-11-02 14:41:45,2020-11-02 14:42:14,2,D7:F2:3B:06:4D:C8,21,21,4321.0801688050105,-30765.991990747836,-24605.0
24023,-4592,2546,25008,-21220,-12275,-10470,-581,12777,-24885,21,-1,34318,2020-11-02 14:41:45,2020-11-02 14:42:14,2,D7:F2:3B:06:4D:C8,21,21,-18039.56340899868,16991.50155786992,-6231.506304387408
24024,-21483,19193,18628,16890,12803,-32494,-29502,27881,4549,21,1,34343,2020-11-02 14:41:45,2020-11-02 14:42:14,2,D7:F2:3B:06:4D:C8,21,21,-3885.4359103859556,-12418.51306282924,-31742.350938369746
24025,18199,-8973,-7448,-21773,4104,4885,9925,18410,-15937,21,1,34369,2020-11-02 14:41:45,2020-11-02 14:42:14,2,D7:F2:3B:06:4D:C8,21,21,9467.830995868251,17277.389676983737,8890.613937368566
24026,10280,11766,-2844,25588,21773,-10991,-28216,25322,6470,21,1,34395,2020-11-02 14:41:45,2020-11-02 14:42:14,2,D7:F2:3B:06:4D:C8,21,21,-3371.332606181566,-15501.1426449623,744.4361349559954
24027,-15568,13813,-8230,-11796,-2301,-32761,9929,-23062,29506,21,1,34420,2020-11-02 14:41:45,2020-11-02 14:42:14,2,D7:F2:3B:06:4D:C8,21,21,18224.64360955948,-10884.606255583154,7090.994638657045
24028,-2777,23278,-28186,18403,3074,11518,-16443,-32022,-10431,21,1,34446,2020-11-02 14:41:45,2020-11-02 14:42:14,2,D7:F2:3B:06:4D:C8,21,21,-35032.89393660668,-10803.876845883093,-14.01875380977026
24029,-32481,27114,-30222,-13089,20996,9722,25024,-8983,-23998,21,1,34471,2020-11-02 14:41:45,2020-11-02 14:42:14,2,D7:F2:3B:06:4D:C8,21,21,41772.48228718419,13740.605786496326,-27745.43416829131
24030,16156,-19995,4862,-26145,-6905,2552,11450,-25880,10052,21,1,34497,2020-11-02 14:41:45,2020-11-02 14:42:14,2,D7:F2:3B:06:4D:C8,21,21,1021.9178932336054,-25975.573536387055,-2946.2973840462187
24031,9244,-9241,-16118,13285,-2806,-19980,30271,14567,-10310,21,1,34522,2020-11-02 14:41:45,2020-11-02 14:42:14,2,D7:F2:3B:06:4D:C8,21,21,-15182.621584726714,-9812.151679608709,-10190.545727847084
24032,-32744,-20250,23312,29425,21263,-18194,21814,19430,-23615,21,1,34548,2020-11-02 14:41:45,2020-11-02 14:42:14,2,D7:F2:3B:06:4D:C8,21,21,-31478.450039011484,10809.271113741512,30297.66032437308
24033,-22768,15849,23315,15616,-10739,10475,-22227,3047,13770,21,1,34574,2020-11-02 14:41:45,2020-11-02 14:42:14,2,D7:F2:3B:06:4D:C8,21,21,20750.281204563275,-15542.588928899195,-25318.286065980217
24034,-26104,15593,22542,-11507,-5625,30952,-1495,31977,-7473,21,1,34599,2020-11-02 14:41:45,2020-11-02 14:42:14,2,D7:F2:3B:06:4D:C8,21,21,-2558.9419805549387,32845.085493258644,-18637.44628109452
24035,-15109,-6937,-21494,-12007,25092,-6681,28970,-26900,16083,21,1,34625,2020-11-02 14:41:45,2020-11-02 14:42:14,2,D7:F2:3B:06:4D:C8,21,21,16246.295626550738,18758.206108847062,11071.741868049992
24036,-3350,-28694,-5891,21795,-25600,10223,-10195,23279,21205,21,1,34650,2020-11-02 14:41:45,2020-11-02 14:42:14,2,D7:F2:3B:06:4D:C8,21,21,16425.11833001898,18326.024861064598,-16237.127752053842
24037,-9245,-13,-3356,-20189,5641,6657,-29390,-8465,-13610,21,1,34676,2020-11-02 14:41:45,2020-11-02 14:42:14,2,D7:F2:3B:06:4D:C8,21,21,4663.873210049711,2466.4026286901512,-8300.486416696971
24038,14578,-15371,-23834,-17893,-19183,-13296,14135,17901,-554,21,1,34702,2020-11-02 14:41:45,2020-11-02 14:42:14,2,D7:F2:3B:06:4D:C8,21,21,-15004.827405608337,28068.78789552942,1960.5054459720068
24039,-12550,23799,7639,-30445,-10223,-9447,16189,23785,8916,21,1,34727,2020-11-02 14:41:45,2020-11-02 14:42:14,2,D7:F2:3B:06:4D:C8,21,21,11062.094582174033,-13958.056263130697,-21565.06319977555
24040,12554,-5389,23250,-29950,4368,-225,-1863,13030,22987,21,1,34753,2020-11-02 14:41:45,2020-11-02 14:42:14,2,D7:F2:3B:06:4D:C8,21,21,-14482.361204327553,-8523.432218346883,-21090.73384609067
24041,10780,-30225,26844,9716,-32756,5661,23749,-32283,-4931,21,1,34778,2020-11-02 14:41:45,2020-11-02 14:42:14,2,D7:F2:3B:06:4D:C8,21,21,8166.975172451581,40071.9846246487,-8825.866856829307
24042,8742,-18196,32482,-31253,17667,-13803,-21046,9959,-9407,21,1,34804,2020-11-02 14:41:45,2020-11-02 14:42:14,2,D7:F2:3B:06:4D:C8,21,21,8114.730746295216,29186.351651911846,-23343.20728105017
24043,-967,-15634,-20763,-16409,19203,26378,-4662,-29208,-27075,21,1,34830,2020-11-02 14:41:45,2020-11-02 14:42:14,2,D7:F2:3B:06:4D:C8,21,21,25025.28461169862,-5056.574767084385,-4962.398183173711
24044,29239,11756,-27163,27105,24065,-14086,10439,24040,829,21,1,34855,2020-11-02 14:41:45,2020-11-02 14:42:14,2,D7:F2:3B:06:4D:C8,21,21,-15491.419404729084,29208.670268122743,25255.112987172826
24045,-29396,32231,19702,22493,-32766,28144,15039,25063,14144,21,-1,34881,2020-11-02 14:41:45,2020-11-02 14:42:14,2,D7:F2:3B:06:4D:C8,21,21,27138.2128125316,15982.578572922403,-36044.49428833907
24046,-481,12519,26631,2274,-29435,-2836,-27839,-28186,13638,21,-1,34906,2020-11-02 14:41:45,2020-11-02 14:42:14,2,D7:F2:3B:06:4D:C8,21,21,28134.616692651936,6619.3875258971575,5549.228355325464
24047,19478,-21526,-24306,-23573,19465,-28179,25655,-28698,-16960,21,-1,34932,2020-11-02 14:41:45,2020-11-02 14:42:14,2,D7:F2:3B:06:4D:C8,21,21,-19072.441425618883,-31282.25880885597,-9550.133919589272
24048,14098,-29714,20495,23542,-25334,-25874,9519,24295,-30009,21,-1,34958,2020-11-02 14:41:45,2020-11-02 14:42:14,2,D7:F2:3B:06:4D:C8,21,21,32309.116866032615,-8173.4337999641975,19774.63962388821
24049,-13042,3823,-9460,19968,14091,19438,-18135,-1304,5069,21,-1,34983,2020-11-02 14:41:45,2020-11-02 14:42:14,2,D7:F2:3B:06:4D:C8,21,21,-13042.0,-5119.736590749847,8825.827227027341
24050,-23286,16366,-3828,30985,16651,24046,8743,4587,15057,21,-1,35009,2020-11-02 14:41:45,2020-11-02 14:42:14,2,D7:F2:3B:06:4D:C8,21,21,-1279.1311107250244,-26194.186481321012,11703.236910502794
24051,-24061,32492,-18421,-25581,26633,22510,-8154,21229,-28972,21,-1,35034,2020-11-02 14:41:45,2020-11-02 14:42:14,2,D7:F2:3B:06:4D:C8,21,21,3293.634679587447,18377.887587437745,40316.25285689285
24052,24564,-16404,-4862,20508,-6657,8687,-32727,-19217,15062,21,-1,35060,2020-11-02 14:41:45,2020-11-02 14:42:14,2,D7:F2:3B:06:4D:C8,21,21,9106.886248244313,-19920.76554943856,20404.609253446637
24053,7911,-18705,8952,-21985,-1281,-30216,-8659,-30991,-14890,21,-1,35085,2020-11-02 14:41:45,2020-11-02 14:42:14,2,D7:F2:3B:06:4D:C8,21,21,-11485.058379611353,-18911.179817099375,-1749.2746903366321
24054,-9242,-10510,-28182,32544,7686,16904,-13006,7921,-1322,21,-1,35111,2020-11-02 14:41:45,2020-11-02 14:42:14,2,D7:F2:3B:06:4D:C8,21,21,12916.870889495549,-21252.116830690895,19276.9749867236
24055,17904,-6154,-32304,-23270,3337,11286,-28360,-20754,24021,21,-1,35136,2020-11-02 14:41:45,2020-11-02 14:42:14,2,D7:F2:3B:06:4D:C8,21,21,34650.20766222816,-3437.510835860583,-13766.625447719774
24056,-24321,15864,-29751,-24824,-28399,-23776,-9922,8939,-29488,21,-1,35162,2020-11-02 14:41:45,2020-11-02 14:42:14,2,D7:F2:3B:06:4D:C8,21,21,5036.261046868456,-41013.06100545857,4567.7608989885575
24057,23833,19191,-1835,16890,-21999,30753,-1607,-25113,29127,21,-1,35188,2020-11-02 14:41:45,2020-11-02 14:42:14,2,D7:F2:3B:06:4D:C8,21,21,13589.813498837291,21713.849301984672,-16837.437826389123
24058,15398,9461,-25896,20208,-6393,-24296,29633,-11034,8381,21,-1,35213,2020-11-02 14:41:45,2020-11-02 14:42:14,2,D7:F2:3B:06:4D:C8,21,21,30596.93615768597,6658.973840436191,4086.233737180924
24059,28981,14836,7658,7915,-17149,24077,25028,20967,11075,21,-1,35239,2020-11-02 14:41:45,2020-11-02 14:42:14,2,D7:F2:3B:06:4D:C8,21,21,-13456.259027835637,-28178.511586369314,11981.26866206756
24060,-1233,-3343,-19478,-10778,-26882,-25857,12482,-27929,-21695,21,-1,35264,2020-11-02 14:41:45,2020-11-02 14:42:14,2,D7:F2:3B:06:4D:C8,21,21,-1897.6740085816825,-19566.081553334727,-2378.173249661989
24061,-9437,19438,24309,27875,27903,21753,-24900,-26649,15427,21,-1,35290,2020-11-02 14:41:45,2020-11-02 14:42:14,2,D7:F2:3B:06:4D:C8,21,21,26085.792358655952,17741.07609133795,7912.3921883614785
24062,-20194,-9749,-3586,31204,3333,25080,-958,9959,32581,21,-1,35317,2020-11-02 14:41:45,2020-11-02 14:42:14,2,D7:F2:3B:06:4D:C8,21,21,-13299.507383956236,10590.838770530278,15055.140998367513
24063,29468,-23317,9227,-21015,-11766,18423,4156,9446,24764,21,1,35341,2020-11-02 14:41:45,2020-11-02 14:42:14,2,D7:F2:3B:06:4D:C8,21,21,-33128.488885733335,-2684.5256321565093,-19811.09760407377
24064,4633,-30739,29456,-26893,-14580,-24588,1844,24549,23490,21,1,35367,2020-11-02 14:41:45,2020-11-02 14:42:14,2,D7:F2:3B:06:4D:C8,21,21,-6712.634475318893,39255.12413796289,-15747.460535396922
24065,10004,-23826,-20210,4607,29708,25329,24876,-12315,-20023,21,1,35392,2020-11-02 14:41:45,2020-11-02 14:42:14,2,D7:F2:3B:06:4D:C8,21,21,32284.522137193257,4320.494911198059,-3904.5289210594983
24066,28685,28142,30987,6409,-6902,-10002,-8665,32231,-31793,21,1,35418,2020-11-02 14:41:45,2020-11-02 14:42:14,2,D7:F2:3B:06:4D:C8,21,21,-35388.833869847294,25892.19650892808,25538.60127875843
24067,-7932,5613,-8693,-2286,24327,-19,-15578,-15895,25555,21,1,35443,2020-11-02 14:41:45,2020-11-02 14:42:14,2,D7:F2:3B:06:4D:C8,21,21,-10790.928101815873,3172.6055982190483,-6594.018988415917
24068,-783,3565,32009,32284,-23810,-11024,27433,11756,-17452,21,1,35469,2020-11-02 14:41:45,2020-11-02 14:42:14,2,D7:F2:3B:06:4D:C8,21,21,24030.23456833467,-18690.146371317944,10541.567730158746
24069,-24856,30443,775,-17371,-24059,-25855,2350,-2836,30165,21,1,35495,2020-11-02 14:41:45,2020-11-02 14:42:14,2,D7:F2:3B:06:4D:C8,21,21,22141.824411695972,32470.549683083962,775.0
24070,-22536,-545,15611,20014,25103,-4332,-32716,8426,-20011,21,1,35520,2020-11-02 14:41:45,2020-11-02 14:42:14,2,D7:F2:3B:06:4D:C8,21,21,6666.45822473047,16227.530447366842,21073.614600198645
24071,-24556,2531,-14634,-13780,17684,9501,10304,-27419,-14384,21,1,35546,2020-11-02 14:41:45,2020-11-02 14:42:14,2,D7:F2:3B:06:4D:C8,21,21,7580.536578055597,-16313.06194653259,22360.15492158656
24072,2590,14846,-30017,31762,-29167,14864,-31037,1507,-9532,21,1,35571,2020-11-02 14:41:45,2020-11-02 14:42:14,2,D7:F2:3B:06:4D:C8,21,21,29163.952682662144,15648.015345030248,5721.501960599291
24073,-3839,-23562,-2607,-25605,-23040,30218,-10039,25315,-15682,21,-1,35597,2020-11-02 14:41:45,2020-11-02 14:42:14,2,D7:F2:3B:06:4D:C8,21,21,-8814.2601655678,16603.595398360438,-14944.2849136795
24074,8464,-13840,-3111,-17934,17665,-19439,-31284,18149,14778,21,-1,35623,2020-11-02 14:41:45,2020-11-02 14:42:14,2,D7:F2:3B:06:4D:C8,21,21,5175.4023021799185,-9043.223298417559,12817.89921888718
24075,-11496,20718,8419,-3605,-11257,16660,6863,17127,3137,21,-1,35648,2020-11-02 14:41:45,2020-11-02 14:42:14,2,D7:F2:3B:06:4D:C8,21,21,24772.564676194874,4109.638951878438,1305.3765927675615
24076,3376,9965,15332,13544,25862,31500,-12337,-8728,22588,21,-1,35674,2020-11-02 14:41:45,2020-11-02 14:42:14,2,D7:F2:3B:06:4D:C8,21,21,-16051.549539013587,-7605.360795596896,-5502.278579406031
24077,-16339,31976,18659,-21536,5123,4096,461,7145,-28614,21,-1,35699,2020-11-02 14:41:45,2020-11-02 14:42:14,2,D7:F2:3B:06:4D:C8,21,21,-28692.01424879508,-15699.399020437257,23830.29514596984
24078,-5338,-12319,-17680,-29479,12543,7415,29382,-27160,-12741,21,-1,35725,2020-11-02 14:41:45,2020-11-02 14:42:14,2,D7:F2:3B:06:4D:C8,21,21,-22186.42695732297,658.7931757232109,-403.5534896309273
24079,23839,-25123,-18174,-29222,13572,-14350,1214,-20249,-12994,21,-1,35751,2020-11-02 14:41:45,2020-11-02 14:42:14,2,D7:F2:3B:06:4D:C8,21,21,-14090.332544631969,29582.579495719412,21356.28350535567
24080,-13288,29408,10770,-20507,-19191,-15632,-14783,23782,28227,21,-1,35776,2020-11-02 14:41:45,2020-11-02 14:42:14,2,D7:F2:3B:06:4D:C8,21,21,-22972.742844678614,-22857.89342962455,10352.00957071594
24081,13583,-3609,24597,30963,-17139,10992,21816,28389,8126,21,-1,35802,2020-11-02 14:41:45,2020-11-02 14:42:14,2,D7:F2:3B:06:4D:C8,21,21,5282.701950895618,8415.648879645669,26529.32515222583
24082,7693,-14869,1043,1794,21263,-8720,-31953,23781,-826,21,-1,35827,2020-11-02 14:41:45,2020-11-02 14:42:14,2,D7:F2:3B:06:4D:C8,21,21,5538.287721130807,-5217.931054126364,14948.505732425412
24083,5385,1260,-5106,-32498,-30193,-29456,-22231,26598,-4402,21,-1,35853,2020-11-02 14:41:45,2020-11-02 14:42:14,2,D7:F2:3B:06:4D:C8,21,21,-7210.865141554824,-1967.9493068702432,887.5023582495141
24084,7171,5611,-7926,11290,-10994,4849,15655,-281,18389,21,-1,35878,2020-11-02 14:41:45,2020-11-02 14:42:14,2,D7:F2:3B:06:4D:C8,21,21,-7786.785785597584,-3811.3624550562563,8400.44768839155
24085,-18442,-15896,-25083,18980,-9459,31988,-15833,29929,24538,21,-1,35904,2020-11-02 14:41:45,2020-11-02 14:42:14,2,D7:F2:3B:06:4D:C8,21,21,6767.052091793012,32608.226366688978,-10623.448037512557
24086,18668,-21788,30709,-28884,4098,-22787,16428,5610,-24612,21,-1,35930,2020-11-02 14:41:45,2020-11-02 14:42:14,2,D7:F2:3B:06:4D:C8,21,21,2068.508423394356,26453.490124274223,-32591.225539204148
24087,25075,-9495,-29219,18218,-23802,-29171,-24269,-5400,4572,21,-1,35955,2020-11-02 14:41:45,2020-11-02 14:42:14,2,D7:F2:3B:06:4D:C8,21,21,25075.0,28319.35829050235,11912.973265065099
24088,-25088,-2057,-4419,3863,17932,-21477,-1732,-8731,19159,21,-1,35981,2020-11-02 14:41:45,2020-11-02 14:42:14,2,D7:F2:3B:06:4D:C8,21,21,10028.487576385438,648.2672894956564,-23498.419956491816
24089,11793,5109,14538,7930,-30705,-25570,-24899,31203,6602,21,-1,36006,2020-11-02 14:41:45,2020-11-02 14:42:14,2,D7:F2:3B:06:4D:C8,21,21,16795.842324856436,-386.16521110068766,9709.826518959886
24090,30225,9450,-4126,-10261,-6641,13341,8908,-17181,4165,21,-1,36032,2020-11-02 14:41:45,2020-11-02 14:42:14,2,D7:F2:3B:06:4D:C8,21,21,-17781.595858015247,8577.766073771301,25102.06722415254
24091,-14290,10474,-5386,-10776,-1783,26906,16851,-32538,-18119,21,-1,36057,2020-11-02 14:41:45,2020-11-02 14:42:14,2,D7:F2:3B:06:4D:C8,21,21,-7080.176615811152,-1553.4547597663204,17040.412242615505
24092,-32448,-20499,-28176,1002,5123,20745,13011,31208,-1227,21,1,36083,2020-11-02 14:41:45,2020-11-02 14:42:14,2,D7:F2:3B:06:4D:C8,21,21,-2573.9472204105077,34150.95830062028,-33076.510152309536
24093,-28361,-2325,-1552,-4890,-30721,23800,-23857,11752,-6859,21,1,36109,2020-11-02 14:41:45,2020-11-02 14:42:14,2,D7:F2:3B:06:4D:C8,21,21,8277.919631124767,-7905.482257889516,26098.65986695166
24094,30247,-11544,-26377,-26908,15611,15854,-5177,-2330,1594,21,1,36134,2020-11-02 14:41:45,2020-11-02 14:42:14,2,D7:F2:3B:06:4D:C8,21,21,30247.0,-11544.0,-26377.0
24095,5147,-16154,-5120,31204,5631,-19988,-14659,12006,-27584,21,1,36160,2020-11-02 14:41:45,2020-11-02 14:42:14,2,D7:F2:3B:06:4D:C8,21,21,-10160.896348149274,8602.48361512399,-11679.519941063074
24096,8982,11499,29453,-25878,-30203,7919,-23744,-15899,-27206,21,1,36185,2020-11-02 14:41:45,2020-11-02 14:42:14,2,D7:F2:3B:06:4D:C8,21,21,18730.689932512436,23913.51879208823,12557.364677053865
24097,22290,-15894,-3824,-16651,-23287,31469,13879,-28187,23746,21,1,36211,2020-11-02 14:41:45,2020-11-02 14:42:14,2,D7:F2:3B:06:4D:C8,21,21,23522.674106055572,11796.378077290596,-8462.598841840529
24098,13839,18411,-12019,15105,27146,-28436,-21201,-31258,1738,21,1,36237,2020-11-02 14:41:45,2020-11-02 14:42:14,2,D7:F2:3B:06:4D:C8,21,21,12844.133111608207,-19922.87323178234,-10632.336046307986
24099,-761,27880,6922,1035,-26615,9450,19499,-30488,11728,21,1,36262,2020-11-02 14:41:45,2020-11-02 14:42:14,2,D7:F2:3B:06:4D:C8,21,21,27240.13185879369,9151.677631426639,-98.07061730268379
24100,-7173,31976,3337,-21228,10,16362,4650,8427,-20268,21,1,36288,2020-11-02 14:41:45,2020-11-02 14:42:14,2,D7:F2:3B:06:4D:C8,21,21,5569.369133146057,-31505.34038403945,7838.860168709024
24101,5864,-7447,9732,-21986,30470,-7439,-32469,14829,6872,21,1,36313,2020-11-02 14:41:45,2020-11-02 14:42:14,2,D7:F2:3B:06:4D:C8,21,21,6159.753129692667,-11588.752696307007,-3509.185279388718
24102,-7190,27629,18929,5668,-1269,-21242,-24785,5357,-16935,21,1,36341,2020-11-02 14:41:45,2020-11-02 14:42:14,2,D7:F2:3B:06:4D:C8,21,21,-26455.53236048131,20014.777963815566,8536.876043535436
24103,24321,2542,-18970,11553,4630,-6889,32052,8681,30426,21,-1,36365,2020-11-02 14:41:45,2020-11-02 14:42:14,2,D7:F2:3B:06:4D:C8,21,21,-14890.887734626212,-11247.50022526059,-24689.854316247427
24104,31506,-27404,-8229,12055,8209,-3302,-15300,31460,10966,21,-1,36390,2020-11-02 14:41:45,2020-11-02 14:42:14,2,D7:F2:3B:06:4D:C8,21,21,-13155.786795506803,-13230.98829989653,38251.6655245124
24105,21016,-13060,-31021,-8442,-23540,9495,-14402,4578,11465,21,-1,36416,2020-11-02 14:41:45,2020-11-02 14:42:14,2,D7:F2:3B:06:4D:C8,21,21,11961.177170169536,28586.472669881536,24784.715410872308
24106,17432,-5381,16340,-12812,-5626,-6893,-30773,-18718,24763,21,-1,36441,2020-11-02 14:41:45,2020-11-02 14:42:14,2,D7:F2:3B:06:4D:C8,21,21,-1781.5108564143738,24244.032222762773,2979.6821391077847
24107,5399,-8462,21987,6120,14088,3095,-20528,-11804,29247,21,-1,36467,2020-11-02 14:41:45,2020-11-02 14:42:14,2,D7:F2:3B:06:4D:C8,21,21,15677.654207702792,-12527.440202480957,13470.6055735057
24108,5166,14826,19952,-29213,32524,6163,-29997,6887,-11977,21,-1,36492,2020-11-02 14:41:45,2020-11-02 14:42:14,2,D7:F2:3B:06:4D:C8,21,21,-21694.836607800786,-11534.816836056692,6392.354896237377
24109,-19400,-27,3066,13026,15624,6148,-558,-4377,23347,21,-1,36518,2020-11-02 14:41:45,2020-11-02 14:42:14,2,D7:F2:3B:06:4D:C8,21,21,12660.252577380757,14699.616786737126,3066.0
24110,-18385,-3612,260,-1819,17927,30196,-10289,-22810,7986,21,-1,36544,2020-11-02 14:41:45,2020-11-02 14:42:14,2,D7:F2:3B:06:4D:C8,21,21,11049.683677911584,14001.788723382964,-5742.540567017356
24111,-738,29926,-3833,-6932,-25593,-12052,-5686,-3357,-8397,21,-1,36569,2020-11-02 14:41:45,2020-11-02 14:42:14,2,D7:F2:3B:06:4D:C8,21,21,24783.117589630423,16790.092392198178,-3833.0
24112,-4587,3817,3084,10739,28681,-10774,-19519,7393,315,21,-1,36595,2020-11-02 14:41:45,2020-11-02 14:42:14,2,D7:F2:3B:06:4D:C8,21,21,-5500.755369815166,-3343.58725466727,1919.173945184806
24113,-32752,-26134,-25585,-26118,-19447,-21528,-202,-4385,-22332,21,-1,36620,2020-11-02 14:41:45,2020-11-02 14:42:14,2,D7:F2:3B:06:4D:C8,21,21,28736.20395802122,30494.42641013281,-25585.0
24114,-1529,-4629,5646,13315,-26361,-24,28967,22498,27860,21,-1,36646,2020-11-02 14:41:45,2020-11-02 14:42:14,2,D7:F2:3B:06:4D:C8,21,21,1557.0570658930064,-4471.28899012688,-5764.195178888618
24115,516,4589,-28149,3596,31751,-8981,-7901,21477,32473,21,-1,36672,2020-11-02 14:41:45,2020-11-02 14:42:14,2,D7:F2:3B:06:4D:C8,21,21,-21244.32567740894,-2945.1224788650406,18806.81414000434
24116,6909,-12051,19975,15892,3079,-6673,-15325,-6169,30172,21,-1,36697,2020-11-02 14:41:45,2020-11-02 14:42:14,2,D7:F2:3B:06:4D:C8,21,21,22653.59432809081,5129.7641810059995,7243.044281623563
24117,-19983,22256,-17406,-9702,-18688,-2060,14886,-12311,-6691,21,1,36723,2020-11-02 14:41:45,2020-11-02 14:42:14,2,D7:F2:3B:06:4D:C8,21,21,-3483.451639658422,17576.62404129426,-29606.52821566821
24118,-18964,30961,-15110,7711,30975,-18945,-9430,-25622,-15907,21,1,36748,2020-11-02 14:41:45,2020-11-02 14:42:14,2,D7:F2:3B:06:4D:C8,21,21,9267.448834897128,10604.896828945422,36717.563540354735
24119,-12812,31983,-21010,-1760,-18169,-22259,-3025,13033,-22307,21,1,36774,2020-11-02 14:41:45,2020-11-02 14:42:14,2,D7:F2:3B:06:4D:C8,21,21,18148.276887053224,-29719.33132873111,20393.163668346097
24120,-9472,32504,-24620,-8424,28167,-24299,-8394,18406,2267,21,1,36800,2020-11-02 14:41:45,2020-11-02 14:42:14,2,D7:F2:3B:06:4D:C8,21,21,3640.198582104611,-3155.029496032399,41583.26518158487
24121,-27124,-23046,-18483,14853,-20733,25623,-30144,21220,-4910,21,1,36825,2020-11-02 14:41:45,2020-11-02 14:42:14,2,D7:F2:3B:06:4D:C8,21,21,22994.011303673968,11186.518642413277,30896.407976162118
24122,-10219,6647,-23844,15095,17674,-20713,-16706,23779,-4410,21,1,36851,2020-11-02 14:41:45,2020-11-02 14:42:14,2,D7:F2:3B:06:4D:C8,21,21,3744.3217674639873,-24447.415867760414,-10268.924865363068
24123,19744,27891,-24867,-4114,-19193,14869,-8248,-18973,11194,21,1,36876,2020-11-02 14:41:45,2020-11-02 14:42:14,2,D7:F2:3B:06:4D:C8,21,21,-2819.9916890894747,-15228.934729044024,39322.10955546489
24124,-32219,-4113,27365,-3356,-13053,21776,2252,18917,-23233,21,1,36902,2020-11-02 14:41:45,2020-11-02 14:42:14,2,D7:F2:3B:06:4D:C8,21,21,-20260.467312188965,29750.41994944662,-22544.399129790327
24125,17973,13295,25586,-15390,-25851,27142,-25141,5350,20539,21,1,36927,2020-11-02 14:41:45,2020-11-02 14:42:14,2,D7:F2:3B:06:4D:C8,21,21,-13834.191044029682,30309.342584922455,-6662.436508297471
24126,32047,-21523,6651,10980,11013,23033,14280,17381,17722,21,1,36953,2020-11-02 14:41:45,2020-11-02 14:42:14,2,D7:F2:3B:06:4D:C8,21,21,34119.14741131744,-7801.963713251014,17592.574602425437
24127,-18909,-22037,32004,23272,-11516,-22542,19393,-11293,-31939,21,-1,36978,2020-11-02 14:41:45,2020-11-02 14:42:14,2,D7:F2:3B:06:4D:C8,21,21,-11182.502071737763,23185.632624368518,-34710.42715414777
24128,-20710,30699,-14580,10991,-7929,-21264,1860,27874,-18620,21,-1,37004,2020-11-02 14:41:45,2020-11-02 14:42:14,2,D7:F2:3B:06:4D:C8,21,21,-19993.00087746918,-33859.25909547373,-6143.255685635731
24129,11798,-21525,16912,-15370,-12793,23279,19255,3042,18115,21,-1,37030,2020-11-02 14:41:45,2020-11-02 14:42:14,2,D7:F2:3B:06:4D:C8,21,21,-14350.34071817349,-17068.661402214133,-19780.361275995376
24130,-18671,31468,11793,7423,22791,16365,-14804,20707,30413,21,-1,37055,2020-11-02 14:41:45,2020-11-02 14:42:14,2,D7:F2:3B:06:4D:C8,21,21,1626.8453811487889,-13861.507901013936,35820.777306138436
24131,19467,27883,13839,9992,517,5099,8232,-14363,6867,21,-1,37081,2020-11-02 14:41:45,2020-11-02 14:42:14,2,D7:F2:3B:06:4D:C8,21,21,-22455.673894008916,-28642.605486360095,4825.718590910707
24132,-5633,-28181,19724,25616,26116,10220,26919,-27160,7894,21,-1,37106,2020-11-02 14:41:45,2020-11-02 14:42:14,2,D7:F2:3B:06:4D:C8,21,21,-22622.49402694604,26487.636298999343,-1250.4052513977476
24133,-17164,-29715,-25592,-6377,20738,-12559,-2008,-7958,3800,21,-1,37132,2020-11-02 14:41:45,2020-11-02 14:42:14,2,D7:F2:3B:06:4D:C8,21,21,12261.176665282936,-29715.0,-28270.42459502017
24134,14831,-13586,20995,19742,6917,32253,6700,-13333,29145,21,-1,37158,2020-11-02 14:41:45,2020-11-02 14:42:14,2,D7:F2:3B:06:4D:C8,21,21,-25707.92032895889,-1252.4813571519735,13522.651545088667
24135,16630,-6934,12535,31779,16655,-9971,3888,1002,-1574,21,-1,37183,2020-11-02 14:41:45,2020-11-02 14:42:14,2,D7:F2:3B:06:4D:C8,21,21,16630.0,-6934.0,12535.0
24136,-24572,17395,-29226,20253,-31979,-23781,-18891,31205,31450,21,-1,37209,2020-11-02 14:41:45,2020-11-02 14:42:14,2,D7:F2:3B:06:4D:C8,21,21,-29648.182917864644,24977.13769673217,-16051.670540704474
24137,26642,16121,10451,-4858,-6378,-3299,31554,29664,-3121,21,-1,37234,2020-11-02 14:41:45,2020-11-02 14:42:14,2,D7:F2:3B:06:4D:C8,21,21,19538.381690279617,14594.63568635713,22003.510086062568
24138,-13287,-30218,-8217,-6152,8975,3865,21719,-32032,24890,21,-1,37260,2020-11-02 14:41:45,2020-11-02 14:42:14,2,D7:F2:3B:06:4D:C8,21,21,23555.41773096461,-20268.502634786568,13839.114077982294
24139,-18909,-1803,7147,25845,-6145,-25071,13531,-28701,-6092,21,-1,37311,2020-11-02 14:41:45,2020-11-02 14:42:14,2,D7:F2:3B:06:4D:C8,21,21,-10125.57962254707,5130.360287937196,16823.57689742038
24140,-18140,-27403,27623,26866,30718,-26355,-29224,-11291,-21195,21,-1,37313,2020-11-02 14:41:45,2020-11-02 14:42:14,2,D7:F2:3B:06:4D:C8,21,21,-10494.93408600462,33111.88219812732,-25228.43145793565
24141,-27087,-6413,-29202,30705,20230,-10489,-41,22503,-11725,21,-1,37337,2020-11-02 14:41:45,2020-11-02 14:42:14,2,D7:F2:3B:06:4D:C8,21,21,-15275.752001403065,-17967.701135836993,32732.278544043827
24142,-11474,-15121,-19990,7149,6146,-7686,-24874,10471,30514,21,-1,37362,2020-11-02 14:41:45,2020-11-02 14:42:14,2,D7:F2:3B:06:4D:C8,21,21,22613.62223611874,11730.417174125412,10531.80038184828
24143,-13532,-9239,-16400,-10780,-24583,1265,10960,-13595,-32459,21,-1,37388,2020-11-02 14:41:45,2020-11-02 14:42:14,2,D7:F2:3B:06:4D:C8,21,21,-2558.2785670752473,22403.676109443004,-5381.881878712697
24144,32540,-18715,1792,21985,-9990,16111,25541,-12828,13116,21,-1,37413,2020-11-02 14:41:45,2020-11-02 14:42:14,2,D7:F2:3B:06:4D:C8,21,21,-1805.0672610589227,-28710.508818136033,24181.863133075305
24145,-32229,-31002,27668,-15641,17924,30704,4027,-1565,-17854,21,-1,37439,2020-11-02 14:41:45,2020-11-02 14:42:14,2,D7:F2:3B:06:4D:C8,21,21,27531.46568306375,35239.90411936847,27668.0
24146,21778,-25880,-30695,19444,-5624,23792,6461,4835,-30786,21,1,37465,2020-11-02 14:41:45,2020-11-02 14:42:14,2,D7:F2:3B:06:4D:C8,21,21,-5181.75303457394,24243.694736463643,-38361.84836545091
24147,24592,9965,-16625,-26369,-31219,-17168,-8655,-9758,30409,21,1,37490,2020-11-02 14:41:45,2020-11-02 14:42:14,2,D7:F2:3B:06:4D:C8,21,21,-337.2428985283386,-29196.532590602736,11309.60060803495
24148,30475,-9232,5639,-7930,-6390,-8209,4137,2020,19923,21,1,37516,2020-11-02 14:41:45,2020-11-02 14:42:14,2,D7:F2:3B:06:4D:C8,21,21,-28867.20141948988,13440.242974239765,5639.0
24149,-5113,9459,-8446,-22517,12550,14063,13606,11494,-2601,21,1,37541,2020-11-02 14:41:45,2020-11-02 14:42:14,2,D7:F2:3B:06:4D:C8,21,21,13144.643217825374,3743.593140070288,-392.72264729210383
24150,9984,19442,-32764,-24560,774,20719,-4315,-31000,-18470,21,1,37567,2020-11-02 14:41:45,2020-11-02 14:42:14,2,D7:F2:3B:06:4D:C8,21,21,31043.69126232656,-15213.3618088734,-18867.80780275392
24151,-25105,-23052,-30717,29719,-25341,-31500,26407,32234,-19492,21,1,37592,2020-11-02 14:41:45,2020-11-02 14:42:14,2,D7:F2:3B:06:4D:C8,21,21,41518.23556989091,14179.868318886613,-13429.715842938771
24152,-30229,-782,29691,-10466,31492,-32510,-3030,-5910,-25379,21,1,37618,2020-11-02 14:41:45,2020-11-02 14:42:14,2,D7:F2:3B:06:4D:C8,21,21,27598.356438178685,-30757.593858636035,-9394.710636226968
24153,-19984,16114,3558,28960,-31221,-19183,-32465,-15896,13790,21,1,37644,2020-11-02 14:41:45,2020-11-02 14:42:14,2,D7:F2:3B:06:4D:C8,21,21,1714.2638482155123,-6531.001451161456,-25021.74924947551
24154,-24833,-22794,5067,18451,16144,25118,-11211,28900,-17957,21,1,37669,2020-11-02 14:41:45,2020-11-02 14:42:14,2,D7:F2:3B:06:4D:C8,21,21,26644.960465244825,11931.4584263099,-17595.601598887675
24155,-26864,2290,-13876,24056,24341,-9437,-11845,4832,18121,21,1,37695,2020-11-02 14:41:45,2020-11-02 14:42:14,2,D7:F2:3B:06:4D:C8,21,21,28510.21160092791,9643.53375626418,3692.162396497337
24156,-18656,4582,27366,-30490,23827,7712,-5415,19938,26164,21,-1,37720,2020-11-02 14:41:45,2020-11-02 14:42:14,2,D7:F2:3B:06:4D:C8,21,21,-11128.970959008682,-19895.29550491967,-24459.399791602907
24157,1331,-8478,766,-17951,-11768,27156,-6437,13286,-27859,21,-1,37746,2020-11-02 14:41:45,2020-11-02 14:42:14,2,D7:F2:3B:06:4D:C8,21,21,-1145.2107509564362,7347.757058225286,-4351.294008590351
24158,-15561,-2584,-12015,-5145,2821,-4602,-14375,-1817,17963,21,-1,37772,2020-11-02 14:41:45,2020-11-02 14:42:14,2,D7:F2:3B:06:4D:C8,21,21,16795.289112439077,7555.343953052524,7349.628792031477
24159,27957,17387,20489,13298,30724,23031,-22056,27623,-25559,21,-1,37797,2020-11-02 14:41:45,2020-11-02 14:42:14,2,D7:F2:3B:06:4D:C8,21,21,11535.42320431139,8554.43922241568,36020.220988875546
24160,-10202,24554,27137,-21261,-9473,6379,982,-7452,30250,21,-1,37823,2020-11-02 14:41:45,2020-11-02 14:42:14,2,D7:F2:3B:06:4D:C8,21,21,15504.40864762697,34147.82329084593,6077.496687333549
24161,26909,-29463,10244,-4110,-30206,-6939,975,-31519,-19665,21,-1,37848,2020-11-02 14:41:45,2020-11-02 14:42:14,2,D7:F2:3B:06:4D:C8,21,21,-21439.410974075487,26704.717703744023,-22897.857879025105
24162,32528,8171,3849,-18443,-20217,28646,26435,-16930,-18503,21,-1,37874,2020-11-02 14:41:45,2020-11-02 14:42:14,2,D7:F2:3B:06:4D:C8,21,21,5226.864570318621,3197.604429122428,33197.982448914045
24163,-4085,17136,12556,16635,27139,-28695,2856,-18720,9940,21,-1,37900,2020-11-02 14:41:45,2020-11-02 14:42:14,2,D7:F2:3B:06:4D:C8,21,21,-13191.762966475104,11170.624592375545,-13006.82102023975
24164,-2805,-22031,5645,5377,-23297,-27670,15653,-9757,-13098,21,-1,37925,2020-11-02 14:41:45,2020-11-02 14:42:14,2,D7:F2:3B:06:4D:C8,21,21,-3537.7466760846364,-17426.567485254593,-14453.307757662937
24165,-12794,-1552,8203,520,-19712,14827,-988,-4634,-6953,21,-1,37951,2020-11-02 14:41:45,2020-11-02 14:42:14,2,D7:F2:3B:06:4D:C8,21,21,-8218.590669698835,9927.230600924875,8203.0
24166,-4867,12785,-30459,2319,-12544,30189,2598,-12567,-11816,21,-1,37977,2020-11-02 14:41:45,2020-11-02 14:42:14,2,D7:F2:3B:06:4D:C8,21,21,-743.2142489541548,-32346.281701529435,8249.865918028818
24167,-5133,23539,-7936,14868,-30721,-18189,11816,1004,-25383,21,-1,38002,2020-11-02 14:41:45,2020-11-02 14:42:14,2,D7:F2:3B:06:4D:C8,21,21,5307.32172001781,-2198.5960989233463,24706.493424887845
24168,-28692,6902,20991,25367,-16896,16383,27691,-5396,-12583,21,-1,38027,2020-11-02 14:41:45,2020-11-02 14:42:14,2,D7:F2:3B:06:4D:C8,21,21,22282.973096470138,21356.06091488657,-18944.0840681634
24169,12015,-21774,-3329,-16100,30731,2575,8495,20971,17114,21,-1,38053,2020-11-02 14:41:45,2020-11-02 14:42:14,2,D7:F2:3B:06:4D:C8,21,21,14281.889464743937,-9667.741017412081,18223.93917178951
24170,25083,-2328,1271,-21983,-23532,26141,24372,-15386,-5159,21,-1,38079,2020-11-02 14:41:45,2020-11-02 14:42:14,2,D7:F2:3B:06:4D:C8,21,21,-11284.817168660735,2483.578320906865,22420.451694687632
24171,-30962,-18197,11215,21531,-20717,-14555,29508,-23839,16334,21,-1,38104,2020-11-02 14:41:45,2020-11-02 14:42:14,2,D7:F2:3B:06:4D:C8,21,21,-20004.793894785806,30272.422027187396,9946.917303114571
24172,-3792,2548,5056,27385,-17136,-9186,-13357,-23326,-25537,21,-1,38130,2020-11-02 14:41:45,2020-11-02 14:42:14,2,D7:F2:3B:06:4D:C8,21,21,-2110.0511357660944,-2968.243892857103,5759.506610549963
24173,6442,8941,12013,22759,-4090,8975,-20265,14821,13368,21,-1,38155,2020-11-02 14:41:45,2020-11-02 14:42:14,2,D7:F2:3B:06:4D:C8,21,21,12600.464044007083,-10336.066260728387,-383.4763741313327
24174,4642,7404,18172,-28184,-15865,-13555,-10026,1511,1845,21,-1,38181,2020-11-02 14:41:45,2020-11-02 14:42:14,2,D7:F2:3B:06:4D:C8,21,21,4642.0,19291.6090085768,3588.12233071817
24175,31542,6895,19710,-23059,23564,-25850,-11305,11496,31024,21,1,38207,2020-11-02 14:41:45,2020-11-02 14:42:14,2,D7:F2:3B:06:4D:C8,21,21,17003.42836540989,14121.647165961276,-30698.296274263696
24176,-19663,-8982,7164,-26899,32262,-9737,32471,30183,-20179,21,1,38232,2020-11-02 14:41:45,2020-11-02 14:42:14,2,D7:F2:3B:06:4D:C8,21,21,16237.532634969324,-2050.9640472116316,-15835.683420848985
24177,15140,7656,2048,-13588,-7168,-28692,-11309,6629,-30418,21,1,38258,2020-11-02 14:41:45,2020-11-02 14:42:14,2,D7:F2:3B:06:4D:C8,21,21,-4572.392935648852,5200.934516216559,-15622.795620504538
24178,3609,-19737,-3068,32238,-8448,14312,30923,14818,23604,21,1,38283,2020-11-02 14:41:45,2020-11-02 14:42:14,2,D7:F2:3B:06:4D:C8,21,21,-16213.580294354406,-5706.255941977486,-10795.607030786601
24179,11794,-31255,-21751,16626,25860,12776,5446,20960,21828,21,1,38309,2020-11-02 14:41:45,2020-11-02 14:42:14,2,D7:F2:3B:06:4D:C8,21,21,19008.613282950777,28861.33424083391,19868.957418498212
24180,-5365,-25620,25357,19192,15367,-3096,-16081,10721,-17204,21,1,38334,2020-11-02 14:41:45,2020-11-02 14:42:14,2,D7:F2:3B:06:4D:C8,21,21,-2988.2580196798353,-34485.55410007076,11400.085368930879
24181,7942,12527,26637,-25600,5640,-12566,15142,-12317,6102,21,1,38360,2020-11-02 14:41:45,2020-11-02 14:42:14,2,D7:F2:3B:06:4D:C8,21,21,22831.8895398099,-18918.39863105706,7094.355170016341
24182,-7170,-16655,-10484,9993,-8953,28142,14627,-28698,14810,21,1,38386,2020-11-02 14:41:45,2020-11-02 14:42:14,2,D7:F2:3B:06:4D:C8,21,21,-9821.909814555218,-18101.693448271064,3817.193065534463
24183,-5384,-17677,522,530,-4346,-20748,11811,-23576,-17188,21,1,38411,2020-11-02 14:41:45,2020-11-02 14:42:14,2,D7:F2:3B:06:4D:C8,21,21,9923.551966555577,5146.947440693687,14723.05394304482
24184,-7438,26868,13317,-12008,-5883,-27907,-7132,-30999,-21026,21,1,38437,2020-11-02 14:41:45,2020-11-02 14:42:14,2,D7:F2:3B:06:4D:C8,21,21,20351.158395137958,-23081.7464783522,2760.269639923189
24185,3569,32499,12286,-3812,-505,-760,-26329,-17176,28384,21,1,38462,2020-11-02 14:41:45,2020-11-02 14:42:14,2,D7:F2:3B:06:4D:C8,21,21,-12297.261700768748,32485.96096317449,-3648.047828895508
24186,-11786,8431,-30220,14622,3596,14613,-21206,-8475,9442,21,1,38488,2020-11-02 14:41:45,2020-11-02 14:42:14,2,D7:F2:3B:06:4D:C8,21,21,-5889.679030971818,-32513.774614704478,5604.114400717541
24187,-18683,15603,10714,15895,24586,29980,9264,31201,-8736,21,-1,38514,2020-11-02 14:41:45,2020-11-02 14:42:14,2,D7:F2:3B:06:4D:C8,21,21,-13157.559819307087,19408.61893824519,-12549.184216965892
24188,4377,21239,-5426,14337,-18935,-28902,-30782,-32546,22211,21,-1,38565,2020-11-02 14:41:45,2020-11-02 14:42:14,2,D7:F2:3B:06:4D:C8,21,21,-20687.04928128047,-8392.455234354897,1143.4216952735205
24189,15135,-22542,-3106,-18960,2820,12819,-7977,-3104,-1480,21,-1,38567,2020-11-02 14:41:45,2020-11-02 14:42:14,2,D7:F2:3B:06:4D:C8,21,21,15135.0,-14793.103457692934,17290.25997751316
24190,15396,-11793,-20250,-21783,-17666,9230,-29994,26339,13111,21,-1,38590,2020-11-02 14:41:45,2020-11-02 14:42:14,2,D7:F2:3B:06:4D:C8,21,21,-15797.845028015794,-4104.437245197188,22798.15458257608
24191,23594,237,-4616,15590,-20734,13837,-21804,24549,3893,21,-1,38616,2020-11-02 14:41:45,2020-11-02 14:42:14,2,D7:F2:3B:06:4D:C8,21,21,-18855.196099541343,-886.0381788986526,14890.835349078805
24192,-20416,14831,-23039,-23060,23555,-768,26835,9958,-14030,21,-1,38641,2020-11-02 14:41:45,2020-11-02 14:42:14,2,D7:F2:3B:06:4D:C8,21,21,-21421.926505372612,18385.958775819385,19251.616105986654
24193,-15821,25069,-1541,18671,-19969,-10000,-16689,-15388,-4813,21,-1,38667,2020-11-02 14:41:45,2020-11-02 14:42:14,2,D7:F2:3B:06:4D:C8,21,21,26728.338744092525,-11833.61238013869,-5166.72130249647
24194,-13023,3051,21762,-16147,-20482,9450,-12859,-12574,-30917,21,-1,38693,2020-11-02 14:41:45,2020-11-02 14:42:14,2,D7:F2:3B:06:4D:C8,21,21,-13169.037582655383,20765.39311257387,-6918.57442157557
24195,11544,-8981,9,4080,-21244,3307,25923,-16159,-18757,21,-1,38718,2020-11-02 14:41:45,2020-11-02 14:42:14,2,D7:F2:3B:06:4D:C8,21,21,11698.517851172652,-4269.011798069806,7670.892800302688
24196,-21485,5357,9484,16884,-15606,-32276,-9422,-2847,-30006,21,-1,38744,2020-11-02 14:41:45,2020-11-02 14:42:14,2,D7:F2:3B:06:4D:C8,21,21,-16522.69749971681,-17517.687226536822,616.4670032375352
24197,26639,10990,6416,6652,-13554,18412,14374,-17437,29654,21,-1,38769,2020-11-02 14:41:45,2020-11-02 14:42:14,2,D7:F2:3B:06:4D:C8,21,21,-17754.01557686271,23327.92604847332,-3490.597967895511
24198,-30713,-15635,-25841,23046,5132,2796,-11232,-23578,-30500,21,-1,38795,2020-11-02 14:41:45,2020-11-02 14:42:14,2,D7:F2:3B:06:4D:C8,21,21,34473.60315754266,10101.79283334096,23770.219643253746
24199,2046,-30994,-31734,10000,10504,-15891,-30944,-25879,-1826,21,-1,38821,2020-11-02 14:41:45,2020-11-02 14:42:14,2,D7:F2:3B:06:4D:C8,21,21,-30642.741461368292,21638.6771559128,23762.385290073853
