id,accelerationx,accelerationy,accelerationz,angularvelocityx,angularvelocityy,angularvelocityz,pitch,roll,yaw,mdlcircle_id,hallsensor,timestamp,starttime,endtime,train_mode,blemac,training_id,training_handle_id,accelerationWorldx,accelerationWorldy,accelerationWorldz
34164,27892,18180,27139,25088,-29697,7168,25084,-5602,-28919,30,1,33269,2020-11-02 14:52:34,2020-11-02 14:53:04,3,D7:F2:3B:06:4D:C8,30,30,-388.18026843019106,29201.58849157667,-31497.9035913157
34165,-5135,-10753,14594,-26368,-15105,4096,-24068,-9442,-17399,30,1,33293,2020-11-02 14:52:34,2020-11-02 14:53:04,3,D7:F2:3B:06:4D:C8,30,30,-12546.039164892476,2268.349124887134,-13871.970426749327
34166,-14606,27393,16898,-7680,-13569,256,-7428,-10466,-8183,30,1,33319,2020-11-02 14:52:34,2020-11-02 14:53:04,3,D7:F2:3B:06:4D:C8,30,30,26484.222907444157,12463.342393682702,-19811.742032608894
34167,10998,-24578,-32255,16385,25343,28160,14589,-15074,2314,30,1,33344,2020-11-02 14:52:34,2020-11-02 14:53:04,3,D7:F2:3B:06:4D:C8,30,30,3539.511305368842,39557.44545091803,13714.936460545881
34168,15606,-1036,-14082,-10496,-14340,23297,11518,32286,-9206,30,1,33370,2020-11-02 14:52:34,2020-11-02 14:53:04,3,D7:F2:3B:06:4D:C8,30,30,10981.278554989682,7394.799473760098,16360.064732164148
34169,-21762,-2576,2804,-14078,1528,20991,-21506,-25827,6667,30,1,33395,2020-11-02 14:52:34,2020-11-02 14:53:04,3,D7:F2:3B:06:4D:C8,30,30,4220.231766880406,12024.978765170505,18046.394807024808
34170,-9742,10999,-24871,-26112,-256,20216,10236,-228,12808,30,1,33421,2020-11-02 14:52:34,2020-11-02 14:53:04,3,D7:F2:3B:06:4D:C8,30,30,-20379.6376997321,-20040.661307418224,-4182.51928734445
34171,-22553,768,10687,16107,25352,8950,28147,-6371,-18688,30,1,33446,2020-11-02 14:52:34,2020-11-02 14:53:04,3,D7:F2:3B:06:4D:C8,30,30,6830.570866415508,-6688.9595361076035,-23066.007976309877
34172,31999,-12315,-15387,5574,18935,5110,21224,29,28668,30,1,33472,2020-11-02 14:52:34,2020-11-02 14:53:04,3,D7:F2:3B:06:4D:C8,30,30,22850.099758769255,-26610.3293436166,13495.121645933788
34173,26326,15840,28932,-16197,3058,25334,5857,-31462,23295,30,1,33498,2020-11-02 14:52:34,2020-11-02 14:53:04,3,D7:F2:3B:06:4D:C8,30,30,-34981.44360926244,-16349.878533707273,-17029.520690407302
34174,1982,-13349,-3029,-19002,12530,-20994,3292,24857,17924,30,1,33523,2020-11-02 14:52:34,2020-11-02 14:53:04,3,D7:F2:3B:06:4D:C8,30,30,896.9536965095435,13356.082932470676,3479.869073296194
34175,-15421,-16421,-18108,25059,10485,32532,11739,24859,11786,30,1,33549,2020-11-02 14:52:34,2020-11-02 14:53:04,3,D7:F2:3B:06:4D:C8,30,30,-27709.808046784674,4559.333341609728,-6836.312126463607
34176,-2866,31703,-6121,-19974,-18956,-28387,-10528,15135,-25327,30,1,33574,2020-11-02 14:52:34,2020-11-02 14:53:04,3,D7:F2:3B:06:4D:C8,30,30,7976.3994704376,-27561.072353045292,15083.936761940011
34177,-10783,5069,-13034,23545,16883,23842,-6906,16416,-2504,30,1,33600,2020-11-02 14:52:34,2020-11-02 14:53:04,3,D7:F2:3B:06:4D:C8,30,30,-5794.766338888009,-8228.940427540521,14510.624677031643
34178,26858,21965,-4330,-4606,-31506,-11751,14353,-3301,-17085,30,1,33626,2020-11-02 14:52:34,2020-11-02 14:53:04,3,D7:F2:3B:06:4D:C8,30,30,-15908.316701532753,-22256.52875816044,21774.633782475226
34179,-9751,15826,-14838,5896,1769,22804,-13295,32023,23107,30,1,33651,2020-11-02 14:52:34,2020-11-02 14:53:04,3,D7:F2:3B:06:4D:C8,30,30,-18536.772288354423,9254.920171423684,-11680.969426818583
34180,4588,24532,21007,18706,24040,-9708,-20206,-3054,9538,30,1,33677,2020-11-02 14:52:34,2020-11-02 14:53:04,3,D7:F2:3B:06:4D:C8,30,30,20420.74115014585,-7659.650359104961,-24258.72841381022
34181,12786,-24106,-1030,22044,-31509,21783,-12267,24078,15425,30,1,33702,2020-11-02 14:52:34,2020-11-02 14:53:04,3,D7:F2:3B:06:4D:C8,30,30,2246.177395633882,-26763.396090257607,-4931.252257117586
34182,14332,-31779,28924,-8166,-14100,-17901,20761,11274,3648,30,-1,33728,2020-11-02 14:52:34,2020-11-02 14:53:04,3,D7:F2:3B:06:4D:C8,30,30,-20125.22958059063,27379.216436341954,-29954.339963692444
34183,-25086,22501,246,-235,-26901,19210,13596,9991,-8131,30,-1,33753,2020-11-02 14:52:34,2020-11-02 14:53:04,3,D7:F2:3B:06:4D:C8,30,30,-6135.179728994937,-8189.5475173030845,32108.469196689595
34184,-21242,-3350,-15,-7158,13799,25857,-17123,-31483,-26310,30,-1,33779,2020-11-02 14:52:34,2020-11-02 14:53:04,3,D7:F2:3B:06:4D:C8,30,30,980.6127761186677,-3247.308730900746,21235.31665856501
34185,-30713,11243,27116,-15615,-5914,21241,-23523,8453,-28618,30,-1,33805,2020-11-02 14:52:34,2020-11-02 14:53:04,3,D7:F2:3B:06:4D:C8,30,30,37007.84079052609,-209.98378888477419,20864.958682716795
34186,-23818,-14343,-14895,29436,-5905,-26382,-18660,-7163,4403,30,-1,33830,2020-11-02 14:52:34,2020-11-02 14:53:04,3,D7:F2:3B:06:4D:C8,30,30,-26980.40767998297,12097.479858688466,-10981.274083208318
34187,-26631,17924,14335,-15871,-20735,-4105,-6629,15111,-27087,30,-1,33881,2020-11-02 14:52:34,2020-11-02 14:53:04,3,D7:F2:3B:06:4D:C8,30,30,-19341.058879181408,-10876.727392438117,27268.890785336767
34188,5874,-268,4860,-12245,10764,24058,-24800,-13048,-9166,30,-1,33883,2020-11-02 14:52:34,2020-11-02 14:53:04,3,D7:F2:3B:06:4D:C8,30,30,-2607.9666408578014,-2421.524700091933,6747.594247360873
34189,-18415,32491,-29205,-8407,31748,-26113,40,-16632,13876,30,-1,33907,2020-11-02 14:52:34,2020-11-02 14:53:04,3,D7:F2:3B:06:4D:C8,30,30,-43784.26749362554,17594.56308295544,-4591.143753635633
34190,14083,22769,5603,25881,10481,-12050,4653,-24566,-973,30,-1,33933,2020-11-02 14:52:34,2020-11-02 14:53:04,3,D7:F2:3B:06:4D:C8,30,30,-4964.898731411926,22769.0,-14320.414749120371
34191,-30461,23287,-10270,7944,2277,-6938,26158,18447,10802,30,-1,33958,2020-11-02 14:52:34,2020-11-02 14:53:04,3,D7:F2:3B:06:4D:C8,30,30,34810.10970652212,11656.320178081438,15100.207022618808
34192,10465,-14069,-9252,7170,17391,3046,15918,-28396,-8400,30,-1,33984,2020-11-02 14:52:34,2020-11-02 14:53:04,3,D7:F2:3B:06:4D:C8,30,30,4653.1941219093205,19159.758682640182,-2074.5895224893793
34193,-25332,-10219,29900,23797,12804,24832,21806,-5867,25905,30,1,34009,2020-11-02 14:52:34,2020-11-02 14:53:04,3,D7:F2:3B:06:4D:C8,30,30,-3664.84237335505,-13265.343159593824,-38088.68317803437
34194,15064,29707,14590,-27652,-6138,2024,-23759,-28393,-20938,30,1,34035,2020-11-02 14:52:34,2020-11-02 14:53:04,3,D7:F2:3B:06:4D:C8,30,30,-4249.771371837283,30161.65454165351,-19862.328252172865
34195,5872,-15368,-19972,6914,-3076,-11026,-6092,-18663,30010,30,1,34061,2020-11-02 14:52:34,2020-11-02 14:53:04,3,D7:F2:3B:06:4D:C8,30,30,-25812.53739334309,-1258.3829157746277,-1290.727606643326
34196,-16409,-26125,-7953,-17918,25853,-22807,11067,7708,-18624,30,1,34086,2020-11-02 14:52:34,2020-11-02 14:53:04,3,D7:F2:3B:06:4D:C8,30,30,29622.46767320491,11720.79779924522,-391.6923526679843
34197,-30738,11499,13291,19706,-3584,28907,-7100,8989,-29250,30,1,34112,2020-11-02 14:52:34,2020-11-02 14:53:04,3,D7:F2:3B:06:4D:C8,30,30,-21988.864447666027,-13003.949789292335,24517.12577321683
34198,-21795,7401,-31242,6649,2310,-28440,-27710,-27877,22218,30,1,34137,2020-11-02 14:52:34,2020-11-02 14:53:04,3,D7:F2:3B:06:4D:C8,30,30,-36254.157914858406,-13828.609924076489,-514.7537782691779
34199,14556,-10274,-27911,-6678,13053,-11036,22216,22553,-10030,30,1,34163,2020-11-02 14:52:34,2020-11-02 14:53:04,3,D7:F2:3B:06:4D:C8,30,30,6083.5036612124995,16640.483559852182,-27973.941858420727
34200,6100,18403,-30746,4566,-15389,8419,-24883,5400,7390,30,1,34189,2020-11-02 14:52:34,2020-11-02 14:53:04,3,D7:F2:3B:06:4D:C8,30,30,-6161.991894093433,11205.779639891134,34024.36308822442
34201,-22586,-11554,-10768,-1091,215,30441,27601,-20713,-30228,30,1,34214,2020-11-02 14:52:34,2020-11-02 14:53:04,3,D7:F2:3B:06:4D:C8,30,30,6283.423516464657,19136.41204958317,-18811.92331425224
34202,-18205,-6425,29468,-24888,5110,13309,-2097,-30952,-267,30,1,34240,2020-11-02 14:52:34,2020-11-02 14:53:04,3,D7:F2:3B:06:4D:C8,30,30,23093.510439415328,-6425.0,25816.173701472784
34203,-16696,5886,-22256,2271,2572,3592,3016,-15337,28403,30,1,34265,2020-11-02 14:52:34,2020-11-02 14:53:04,3,D7:F2:3B:06:4D:C8,30,30,-13314.96570375308,-24421.257639521253,-5919.865844088381
34204,-8512,-6161,9255,12006,5641,21012,-28738,-8937,3822,30,1,34293,2020-11-02 14:52:34,2020-11-02 14:53:04,3,D7:F2:3B:06:4D:C8,30,30,-1836.807814574705,-10622.486886646284,-8936.218405754476
34205,-5419,-19997,-28393,7664,9223,-16862,-20160,32278,3557,30,1,34342,2020-11-02 14:52:34,2020-11-02 14:53:04,3,D7:F2:3B:06:4D:C8,30,30,-31197.49270832603,15790.059565675298,3577.497257353246
34206,-31255,-15901,9496,-27916,-12295,28708,18999,-25068,11740,30,1,34344,2020-11-02 14:52:34,2020-11-02 14:53:04,3,D7:F2:3B:06:4D:C8,30,30,-17929.77998225811,4569.79974974602,31265.48835433468
34207,14070,-18968,-499,5631,-29710,-24807,23857,-27886,31445,30,-1,34368,2020-11-02 14:52:34,2020-11-02 14:53:04,3,D7:F2:3B:06:4D:C8,30,30,12069.839944745552,1574.4264267643339,-20244.482461523457
34208,-26376,-14355,32257,23296,17900,8978,-24019,18449,4304,30,-1,34393,2020-11-02 14:52:34,2020-11-02 14:53:04,3,D7:F2:3B:06:4D:C8,30,30,21603.472039114684,-15029.123913650692,35350.93888772012
34209,-240,-27921,15348,7421,7146,-22264,6442,-26352,2251,30,-1,34419,2020-11-02 14:52:34,2020-11-02 14:53:04,3,D7:F2:3B:06:4D:C8,30,30,-11348.151778029118,-28000.677356975924,10118.422000161403
34210,15092,16376,-11000,-8705,2021,-18941,4902,-1264,-13371,30,-1,34444,2020-11-02 14:52:34,2020-11-02 14:53:04,3,D7:F2:3B:06:4D:C8,30,30,8610.16660452789,-20537.937360949192,-11000.0
34211,-1045,6904,32726,-21500,-22552,-30714,25379,21520,-25664,30,-1,34470,2020-11-02 14:52:34,2020-11-02 14:53:04,3,D7:F2:3B:06:4D:C8,30,30,-13549.646321049258,-15298.790407351782,26497.21520549654
34212,-22806,-8196,-15626,-27896,-28183,20495,-4832,27918,-7749,30,-1,34495,2020-11-02 14:52:34,2020-11-02 14:53:04,3,D7:F2:3B:06:4D:C8,30,30,7547.093081383549,-26923.186685749173,-7045.802488377809
34213,7673,259,6657,-17403,-15134,-24569,-28129,25100,5700,30,-1,34521,2020-11-02 14:52:34,2020-11-02 14:53:04,3,D7:F2:3B:06:4D:C8,30,30,-1870.6708333787838,-5207.327909068553,8523.026791028034
34214,-20240,-30204,16396,21774,-27164,263,-17890,-22774,17983,30,-1,34547,2020-11-02 14:52:34,2020-11-02 14:53:04,3,D7:F2:3B:06:4D:C8,30,30,-26055.41599444677,-28827.083641875222,8993.474193027807
34215,2814,-771,4625,-6631,11245,-9212,23072,6409,-20421,30,-1,34572,2020-11-02 14:52:34,2020-11-02 14:53:04,3,D7:F2:3B:06:4D:C8,30,30,1092.1879733142962,-3888.959977079362,-3686.0246509786793
34216,-1543,15355,3078,-11745,9194,-2562,-24541,-18680,26680,30,-1,34598,2020-11-02 14:52:34,2020-11-02 14:53:04,3,D7:F2:3B:06:4D:C8,30,30,-9470.865700206923,7953.20403709779,-9730.375451797088
34217,4855,25342,3579,19737,-13848,-20745,-29914,-2807,-20172,30,-1,34623,2020-11-02 14:52:34,2020-11-02 14:53:04,3,D7:F2:3B:06:4D:C8,30,30,-4276.285376839102,-4404.120805771339,25316.28593028614
34218,-16643,-20995,10751,7947,-4378,-7181,20007,15116,-9168,30,-1,34649,2020-11-02 14:52:34,2020-11-02 14:53:04,3,D7:F2:3B:06:4D:C8,30,30,13270.640365059535,14993.185027112682,20795.624108066982
34219,22784,32497,8960,-18942,24292,-15900,-28123,-4849,29228,30,-1,34675,2020-11-02 14:52:34,2020-11-02 14:53:04,3,D7:F2:3B:06:4D:C8,30,30,-20408.407174040258,-29797.027915315957,18737.16384708378
34220,17381,-3860,-8972,-2048,-32282,-32550,28449,30997,-26074,30,-1,34700,2020-11-02 14:52:34,2020-11-02 14:53:04,3,D7:F2:3B:06:4D:C8,30,30,5513.432097854431,144.4035235552708,19159.247352772843
34221,-13598,-12827,6376,23038,-19992,25566,16664,-3047,11292,30,-1,34726,2020-11-02 14:52:34,2020-11-02 14:53:04,3,D7:F2:3B:06:4D:C8,30,30,-6960.1519142986,-11690.734498418564,-14316.910323717599
34222,-11822,1514,-4147,17908,-21513,22752,17929,12316,18445,30,-1,34751,2020-11-02 14:52:34,2020-11-02 14:53:04,3,D7:F2:3B:06:4D:C8,30,30,-8629.616198174237,2152.981442978499,8952.311666737205
34223,-24109,-24089,2540,-26148,257,-28953,28663,29212,-6146,30,-1,34777,2020-11-02 14:52:34,2020-11-02 14:53:04,3,D7:F2:3B:06:4D:C8,30,30,-19736.7409428495,22599.24486252064,-16361.863909673684
34224,20192,-7440,-26368,-13869,6388,25070,-32533,-5351,2809,30,-1,34802,2020-11-02 14:52:34,2020-11-02 14:53:04,3,D7:F2:3B:06:4D:C8,30,30,20192.0,23174.468614471232,-14614.0011097881
34225,-9259,28413,-7173,-6695,11521,-23056,25828,16151,12536,30,-1,34828,2020-11-02 14:52:34,2020-11-02 14:53:04,3,D7:F2:3B:06:4D:C8,30,30,26582.7611138917,-411.1908713802095,15416.462390219782
34226,24262,11008,10504,13283,13323,7162,-13092,7702,-3852,30,-1,34854,2020-11-02 14:52:34,2020-11-02 14:53:04,3,D7:F2:3B:06:4D:C8,30,30,1007.8286223050641,4970.315794666017,-28185.722739879428
34227,-19234,32510,-29423,-6171,-30974,22782,29911,-12011,26099,30,-1,34879,2020-11-02 14:52:34,2020-11-02 14:53:04,3,D7:F2:3B:06:4D:C8,30,30,-43094.95401810543,-20839.792537225534,-1042.9622154121776
34228,481,8447,2045,30693,-24318,-16899,31955,-27627,20211,30,-1,34905,2020-11-02 14:52:34,2020-11-02 14:53:04,3,D7:F2:3B:06:4D:C8,30,30,5330.541659730646,-5160.989322468304,4551.341541484687
34229,-15141,23792,10491,25049,-23046,-27385,9422,13590,1779,30,-1,34930,2020-11-02 14:52:34,2020-11-02 14:53:04,3,D7:F2:3B:06:4D:C8,30,30,29659.44727541443,4027.0003595951403,3077.4472246867804
34230,-30492,-29470,15893,-20515,-6407,-5099,-15162,-15336,12785,30,-1,34956,2020-11-02 14:52:34,2020-11-02 14:53:04,3,D7:F2:3B:06:4D:C8,30,30,-21935.375125627,-16267.169481725176,-36125.4609403237
34231,18419,-2845,14096,-1042,-9482,-6629,-16453,17947,5865,30,-1,34982,2020-11-02 14:52:34,2020-11-02 14:53:04,3,D7:F2:3B:06:4D:C8,30,30,-21884.021855266437,-8168.344083791917,646.9500498512261
34232,15607,-12822,12793,15092,-13840,3865,-967,26908,-7461,30,-1,35007,2020-11-02 14:52:34,2020-11-02 14:53:04,3,D7:F2:3B:06:4D:C8,30,30,-21532.274541493964,9803.371568207962,3449.3537025626483
34233,-7700,-27411,-24827,-12813,-32273,29979,11051,1051,22990,30,1,35033,2020-11-02 14:52:34,2020-11-02 14:53:04,3,D7:F2:3B:06:4D:C8,30,30,9635.151900516066,1852.589589580175,-36479.64651235756
34234,27890,31465,-1781,9220,-30225,2077,-989,13335,-9786,30,1,35058,2020-11-02 14:52:34,2020-11-02 14:53:04,3,D7:F2:3B:06:4D:C8,30,30,19330.957548069713,28129.73394649056,-24619.147718277804
34235,9476,14828,11506,-7678,25318,-16367,28704,-25069,-32575,30,1,35084,2020-11-02 14:52:34,2020-11-02 14:53:04,3,D7:F2:3B:06:4D:C8,30,30,-18722.33624695243,-9566.932972943869,-10.721345552938601
34236,-12037,-6155,3839,-9727,23783,2565,-24548,29969,7612,30,1,35135,2020-11-02 14:52:34,2020-11-02 14:53:04,3,D7:F2:3B:06:4D:C8,30,30,928.0872131727338,3514.273671539475,-13575.708073108735
34237,17391,-18175,32506,-10999,-24596,10498,-6886,5648,-21436,30,1,35137,2020-11-02 14:52:34,2020-11-02 14:53:04,3,D7:F2:3B:06:4D:C8,30,30,-14742.72196305035,-19811.619312886483,32856.80190343327
34238,-16660,-247,9727,-28913,-4362,-2294,-32485,24590,-25790,30,1,35161,2020-11-02 14:52:34,2020-11-02 14:53:04,3,D7:F2:3B:06:4D:C8,30,30,1241.8255045711312,12939.320554657526,-14257.03303636538
34239,6140,28419,-8697,17691,-12798,12040,10271,-17396,-4286,30,1,35186,2020-11-02 14:52:34,2020-11-02 14:53:04,3,D7:F2:3B:06:4D:C8,30,30,-8790.140276166658,22673.12438534094,-18155.986190019277
34240,23806,-15360,-3062,2075,31480,-8709,7203,-30196,-27838,30,1,35212,2020-11-02 14:52:34,2020-11-02 14:53:04,3,D7:F2:3B:06:4D:C8,30,30,9055.09744061777,-1729.4761848505777,-26963.775745747334
34241,5107,22017,14334,-31207,4846,-31503,-19675,25102,1600,30,1,35238,2020-11-02 14:52:34,2020-11-02 14:53:04,3,D7:F2:3B:06:4D:C8,30,30,9752.70256217414,-19773.85060212187,15171.450790834948
34242,-17431,-15608,-8206,-15084,-24079,-22030,18983,5905,6205,30,1,35263,2020-11-02 14:52:34,2020-11-02 14:53:04,3,D7:F2:3B:06:4D:C8,30,30,-16373.16421946969,5242.0487977552075,17866.96053737822
34243,6133,-16118,26614,10770,-15101,-5381,5674,20754,-6340,30,1,35289,2020-11-02 14:52:34,2020-11-02 14:53:04,3,D7:F2:3B:06:4D:C8,30,30,-14814.09171707701,-6759.866863659223,-27213.149313955422
34244,19714,15111,-28675,9232,-31996,-26375,-5843,-27886,-30914,30,1,35314,2020-11-02 14:52:34,2020-11-02 14:53:04,3,D7:F2:3B:06:4D:C8,30,30,5597.936354304318,-37356.67223294743,3518.7910215430566
34245,-27648,28419,-21246,-2038,5113,-19979,27952,-5869,15167,30,1,35365,2020-11-02 14:52:34,2020-11-02 14:53:04,3,D7:F2:3B:06:4D:C8,30,30,35059.722827055695,6668.819467182202,-27382.232619057224
34246,5123,-16898,30217,4875,25068,9717,-27600,-30186,-28099,30,1,35367,2020-11-02 14:52:34,2020-11-02 14:53:04,3,D7:F2:3B:06:4D:C8,30,30,28393.47224255169,-14786.680753471144,-14142.822501409428
34247,-8957,10237,-8718,-2031,16364,-6668,26415,-12775,-29127,30,1,35391,2020-11-02 14:52:34,2020-11-02 14:53:04,3,D7:F2:3B:06:4D:C8,30,30,14329.107633468258,1591.2422108049795,-7291.924619401534
34248,24841,17146,-3357,19470,28415,28918,-12495,-22501,22073,30,1,35417,2020-11-02 14:52:34,2020-11-02 14:53:04,3,D7:F2:3B:06:4D:C8,30,30,23801.00746974975,6897.998498753468,17557.326280960646
34249,-3842,32752,-19476,18438,31745,-18191,-9672,-32228,13631,30,1,35442,2020-11-02 14:52:34,2020-11-02 14:53:04,3,D7:F2:3B:06:4D:C8,30,30,14461.691360152545,-34741.27325577023,-7118.459072832657
34250,-28691,9447,16111,-24575,1781,18925,-19647,30494,13499,30,-1,35468,2020-11-02 14:52:34,2020-11-02 14:53:04,3,D7:F2:3B:06:4D:C8,30,30,2926.8248480324,10615.292426826189,-32415.010010825332
34251,-27160,9182,-14882,-29702,-19209,-14613,-4922,20255,-24883,30,-1,35493,2020-11-02 14:52:34,2020-11-02 14:53:04,3,D7:F2:3B:06:4D:C8,30,30,-23151.510122699765,12757.901040919,18565.887753313822
34252,-10525,-18230,24032,-23570,31995,11494,6354,-15332,1755,30,-1,35519,2020-11-02 14:52:34,2020-11-02 14:53:04,3,D7:F2:3B:06:4D:C8,30,30,6521.769208860778,-30071.941742879557,-8590.1335961214
34253,-14639,23501,-29218,12768,6651,-25632,30932,-25064,-16927,30,-1,35544,2020-11-02 14:52:34,2020-11-02 14:53:04,3,D7:F2:3B:06:4D:C8,30,30,-13689.195234747593,21396.184356809987,31226.560406076802
34254,31937,214,-24850,-21557,-32017,4321,-12078,-20972,-16921,30,-1,35570,2020-11-02 14:52:34,2020-11-02 14:53:04,3,D7:F2:3B:06:4D:C8,30,30,-6874.143622081561,39491.96276201561,-5538.166814620842
34255,-11064,-30486,-8684,-5700,21219,12268,-14385,25875,24304,30,-1,35596,2020-11-02 14:52:34,2020-11-02 14:53:04,3,D7:F2:3B:06:4D:C8,30,30,14398.829853055944,9342.6395714176,-28854.96374458521
34256,32200,-27143,11561,2509,-25610,-3839,25034,-29932,3829,30,-1,35621,2020-11-02 14:52:34,2020-11-02 14:53:04,3,D7:F2:3B:06:4D:C8,30,30,21585.665533551215,26491.242449355977,-27193.975196044783
34257,-7220,-6671,-24055,7907,-32761,26900,-21566,-24811,2290,30,-1,35647,2020-11-02 14:52:34,2020-11-02 14:53:04,3,D7:F2:3B:06:4D:C8,30,30,23454.4681566414,3209.598150941465,-10717.279001620122
34258,-5686,32225,-1778,-14880,-30717,27934,-9404,31765,-7190,30,-1,35672,2020-11-02 14:52:34,2020-11-02 14:53:04,3,D7:F2:3B:06:4D:C8,30,30,27067.622321959654,-12699.39502669783,-13416.84362253783
34259,31966,-21032,-19180,2790,11001,26149,-27079,28692,10978,30,-1,35698,2020-11-02 14:52:34,2020-11-02 14:53:04,3,D7:F2:3B:06:4D:C8,30,30,-17131.89389522498,25628.0839744362,29694.14257664295
34260,31217,-22310,6417,2289,20720,28193,-26576,11794,13274,30,1,35724,2020-11-02 14:52:34,2020-11-02 14:53:04,3,D7:F2:3B:06:4D:C8,30,30,4538.128760593126,-33288.48174992159,-19613.70561972965
34261,22774,23777,13812,-6411,15337,-12776,-26582,-8945,-13869,30,1,35749,2020-11-02 14:52:34,2020-11-02 14:53:04,3,D7:F2:3B:06:4D:C8,30,30,-25617.679836769177,6489.416341731383,24008.209102814388
34262,-28683,31214,3558,25843,-9501,-24046,23845,-15859,-2099,30,1,35775,2020-11-02 14:52:34,2020-11-02 14:53:04,3,D7:F2:3B:06:4D:C8,30,30,35531.24134804398,-17710.128703331175,-15282.993115829617
34263,23289,-27144,1774,-16911,-4124,268,-30176,-26357,2249,30,1,35800,2020-11-02 14:52:34,2020-11-02 14:53:04,3,D7:F2:3B:06:4D:C8,30,30,-34540.71342871872,-9400.858025466221,-940.3814226991155
34264,769,-9220,29187,-14856,14056,27651,17693,-11767,11461,30,1,35826,2020-11-02 14:52:34,2020-11-02 14:53:04,3,D7:F2:3B:06:4D:C8,30,30,-15847.588775088023,22591.33009197182,13265.235191705904
34265,13812,24580,-5626,20741,29161,32254,-9189,-6904,-30271,30,1,35852,2020-11-02 14:52:34,2020-11-02 14:53:04,3,D7:F2:3B:06:4D:C8,30,30,-416.0383066641398,28722.77696427712,-1195.2470823138528
34266,26607,8,16654,26387,25328,-17151,-16100,-1273,-31554,30,1,35877,2020-11-02 14:52:34,2020-11-02 14:53:04,3,D7:F2:3B:06:4D:C8,30,30,-6970.819396061431,29808.774915409937,-6937.783795270715
34267,-2070,776,-21244,7458,-31242,29709,-24288,30982,1469,30,1,35903,2020-11-02 14:52:34,2020-11-02 14:53:04,3,D7:F2:3B:06:4D:C8,30,30,-14465.963911064386,15570.284760531464,2120.550070086625
34268,12021,-1529,-525,-22497,16114,-20462,24101,-3837,12731,30,1,35928,2020-11-02 14:52:34,2020-11-02 14:53:04,3,D7:F2:3B:06:4D:C8,30,30,-5549.988908475166,10680.102446532128,1500.3139162792186
34269,-8960,-3835,-19219,27419,-3085,-14323,-29655,-6143,20805,30,1,35954,2020-11-02 14:52:34,2020-11-02 14:53:04,3,D7:F2:3B:06:4D:C8,30,30,-5259.664070312821,-16767.27588795462,-12472.09602130596
34270,17668,9224,242,-25582,27125,-2814,-3284,22529,29251,30,1,35979,2020-11-02 14:52:34,2020-11-02 14:53:04,3,D7:F2:3B:06:4D:C8,30,30,3893.216415965564,19356.475954830465,-2732.8864865790415
34271,18426,-12799,-252,-6904,-17431,1786,-21714,-5118,29249,30,1,36005,2020-11-02 14:52:34,2020-11-02 14:53:04,3,D7:F2:3B:06:4D:C8,30,30,17343.104914437634,-14084.967201395842,2055.673092301553
34272,-13312,12524,-27376,-24308,24541,-29965,26927,-28666,62,30,1,36031,2020-11-02 14:52:34,2020-11-02 14:53:04,3,D7:F2:3B:06:4D:C8,30,30,4294.150913885047,-28904.45781924572,15152.487653986893
34273,-27135,-18220,11269,28447,-28968,-20251,-27087,27148,-28102,30,1,36056,2020-11-02 14:52:34,2020-11-02 14:53:04,3,D7:F2:3B:06:4D:C8,30,30,-24617.02533574925,23329.603872666627,-6708.102023936256
34274,26338,6867,7375,-8153,28647,-10538,-7880,-15341,-12229,30,1,36082,2020-11-02 14:52:34,2020-11-02 14:53:04,3,D7:F2:3B:06:4D:C8,30,30,12899.135356078443,4356.746179417759,24695.498128073785
34275,23277,29933,11973,-14323,-11279,4324,29763,792,31043,30,1,36107,2020-11-02 14:52:34,2020-11-02 14:53:04,3,D7:F2:3B:06:4D:C8,30,30,25754.498355969452,-16655.562000917387,-25307.192966940514
34276,4609,-29459,-23327,28907,15606,30696,6333,18201,9919,30,1,36133,2020-11-02 14:52:34,2020-11-02 14:53:04,3,D7:F2:3B:06:4D:C8,30,30,-8440.149606386838,-6274.104201204993,36367.89768592941
34277,15846,-12558,-10015,-3603,15101,-22817,-23357,-9704,2762,30,1,36159,2020-11-02 14:52:34,2020-11-02 14:53:04,3,D7:F2:3B:06:4D:C8,30,30,11050.436341728886,15787.83358131414,11735.905268283614
34278,-15155,32013,-15907,-9233,-20729,18662,-5434,-18155,-23600,30,1,36184,2020-11-02 14:52:34,2020-11-02 14:53:04,3,D7:F2:3B:06:4D:C8,30,30,-35501.64990205464,-7871.6637053361255,13609.136921275996
34279,-21284,19473,-15383,22248,25086,-16660,-24890,-17133,24788,30,1,36210,2020-11-02 14:52:34,2020-11-02 14:53:04,3,D7:F2:3B:06:4D:C8,30,30,8123.642478629429,11067.961365572675,-29670.688197101164
34280,17632,-4087,-11547,19416,-26130,15594,-16955,-30957,-17703,30,1,36235,2020-11-02 14:52:34,2020-11-02 14:53:04,3,D7:F2:3B:06:4D:C8,30,30,-14282.915675846996,6851.829801323962,-14490.512419177347
34281,27874,-27407,6631,31674,-18470,-14609,-4414,6166,18657,30,1,36261,2020-11-02 14:52:34,2020-11-02 14:53:04,3,D7:F2:3B:06:4D:C8,30,30,-16565.947835870888,30045.46680329259,-19872.417640323674
34282,-5404,-2589,-32481,31668,-5665,23295,-20804,-32229,-17945,30,1,36312,2020-11-02 14:52:34,2020-11-02 14:53:04,3,D7:F2:3B:06:4D:C8,30,30,-29640.962309781724,-2184.162445058728,14407.091509520378
34283,1519,6120,788,26071,-30991,11526,6975,2590,17637,30,1,36314,2020-11-02 14:52:34,2020-11-02 14:53:04,3,D7:F2:3B:06:4D:C8,30,30,-1876.8593597597132,-2402.754138113328,5575.560644048421
34284,15073,-15119,-30982,-31770,-27683,19211,4132,-7649,-20274,30,1,36338,2020-11-02 14:52:34,2020-11-02 14:53:04,3,D7:F2:3B:06:4D:C8,30,30,-36005.62307790503,10139.355818872154,-4056.1538863972837
34285,25081,-17946,10767,10243,-1564,20510,-1772,25883,5825,30,1,36363,2020-11-02 14:52:34,2020-11-02 14:53:04,3,D7:F2:3B:06:4D:C8,30,30,1840.6537572875022,-30348.090489487262,11943.582518979638
34286,22757,-24087,-24343,-2040,-32284,23066,-25324,-2027,5055,30,1,36389,2020-11-02 14:52:34,2020-11-02 14:53:04,3,D7:F2:3B:06:4D:C8,30,30,22757.0,34167.15703902272,-2317.4550417991595
34287,14577,23026,24050,-1267,2542,23834,-4843,-11760,31678,30,1,36414,2020-11-02 14:52:34,2020-11-02 14:53:04,3,D7:F2:3B:06:4D:C8,30,30,14156.150865028721,33318.939866081084,3246.4971718791876
34288,-32258,-13065,-12543,-10995,27120,24851,-11241,-17140,9406,30,-1,36440,2020-11-02 14:52:34,2020-11-02 14:53:04,3,D7:F2:3B:06:4D:C8,30,30,20002.705323495185,-1447.1973055393078,-31086.92711897169
34289,18435,24835,8967,-15352,-21271,17411,20504,-1271,-6469,30,-1,36466,2020-11-02 14:52:34,2020-11-02 14:53:04,3,D7:F2:3B:06:4D:C8,30,30,-11793.139606897836,-29480.351635291463,-5372.547316849392
34290,-2065,-11506,-23289,20749,21742,31999,-14056,-20216,-32187,30,-1,36491,2020-11-02 14:52:34,2020-11-02 14:53:04,3,D7:F2:3B:06:4D:C8,30,30,15488.40183572745,-5415.729888377637,-20243.74126368858
34291,-16141,-16374,22797,-18411,-25611,16390,-7398,26887,-15805,30,-1,36517,2020-11-02 14:52:34,2020-11-02 14:53:04,3,D7:F2:3B:06:4D:C8,30,30,13226.59906169204,4063.0091582573236,-29272.71767091611
34292,4601,-32510,-23799,30,4087,-250,-24802,6,-20926,30,-1,36542,2020-11-02 14:52:34,2020-11-02 14:53:04,3,D7:F2:3B:06:4D:C8,30,30,985.5708059000162,-39517.48429849627,-9047.584589527645
34293,11776,-26628,-8700,16928,8181,9730,2339,9477,11073,30,-1,36568,2020-11-02 14:52:34,2020-11-02 14:53:04,3,D7:F2:3B:06:4D:C8,30,30,21888.97300318338,-15193.465290487278,-14609.792378150605
34294,4351,-31498,-12032,23585,-25616,-5384,-24281,-10235,16191,30,-1,36594,2020-11-02 14:52:34,2020-11-02 14:53:04,3,D7:F2:3B:06:4D:C8,30,30,-33572.661509874815,2002.22675252115,-4969.075988034248
34295,22007,-23826,32499,14111,16874,7406,-9173,-15352,-8644,30,-1,36619,2020-11-02 14:52:34,2020-11-02 14:53:04,3,D7:F2:3B:06:4D:C8,30,30,-11245.673930149416,44302.29309132462,4360.3865318489
34296,-21504,-13587,-26405,-23523,-11031,-25368,-14801,17933,13115,30,-1,36645,2020-11-02 14:52:34,2020-11-02 14:53:04,3,D7:F2:3B:06:4D:C8,30,30,6460.770964059888,29991.935485547,-20074.731738699447
34297,18939,-17671,-11579,3355,-28932,-25114,-29899,21009,-13252,30,-1,36670,2020-11-02 14:52:34,2020-11-02 14:53:04,3,D7:F2:3B:06:4D:C8,30,30,14528.892108007649,17110.05319784256,17354.55492603802
34298,31727,29187,22492,-31737,6152,16621,-27077,24594,-28607,30,-1,36696,2020-11-02 14:52:34,2020-11-02 14:53:04,3,D7:F2:3B:06:4D:C8,30,30,44530.06868087199,3670.8550594047247,19182.57981632465
34299,16124,17144,-4101,4094,8444,5617,11838,5907,2373,30,-1,36721,2020-11-02 14:52:34,2020-11-02 14:53:04,3,D7:F2:3B:06:4D:C8,30,30,23265.59110440043,-3405.392618352089,-4223.018432083459
34300,-26109,12794,-16141,3074,-12548,-16661,23873,-31212,22716,30,-1,36773,2020-11-02 14:52:34,2020-11-02 14:53:04,3,D7:F2:3B:06:4D:C8,30,30,9412.073430667302,19444.625842924623,25282.75296648675
34301,-8962,-24831,-19483,-5120,17157,6126,-29115,-25068,15297,30,-1,36775,2020-11-02 14:52:34,2020-11-02 14:53:04,3,D7:F2:3B:06:4D:C8,30,30,-3781.553815153633,-19705.901961298543,25958.82456188622
34302,2038,-23040,-21010,-2308,-14070,16623,-12613,-5358,14789,30,-1,36798,2020-11-02 14:52:34,2020-11-02 14:53:04,3,D7:F2:3B:06:4D:C8,30,30,7805.054238341836,5813.332881429335,29693.457749919166
34303,752,11786,-8988,1016,-21244,9199,-23363,-29423,-19512,30,-1,36824,2020-11-02 14:52:34,2020-11-02 14:53:04,3,D7:F2:3B:06:4D:C8,30,30,-14383.375060045046,-1139.4824916395946,3475.564059734901
34304,-28436,-21755,11750,-9493,-9218,24815,-28227,-6384,4556,30,1,36850,2020-11-02 14:52:34,2020-11-02 14:53:04,3,D7:F2:3B:06:4D:C8,30,30,4952.902595478824,5327.58765201972,-36973.42541190559
34305,19693,8962,30187,-24607,5114,12785,-16197,10513,24271,30,1,36875,2020-11-02 14:52:34,2020-11-02 14:53:04,3,D7:F2:3B:06:4D:C8,30,30,22387.760197371026,-10367.026429130248,-27761.477236680414
34306,9201,3070,-22562,-1319,22774,15601,25157,26642,-27694,30,1,36901,2020-11-02 14:52:34,2020-11-02 14:53:04,3,D7:F2:3B:06:4D:C8,30,30,24518.13251085115,805.1481478406267,-1157.6094507098933
34307,1003,8956,29166,-12331,-5127,19446,-4800,-14829,21717,30,1,36926,2020-11-02 14:52:34,2020-11-02 14:53:04,3,D7:F2:3B:06:4D:C8,30,30,25404.511469084613,-12667.858500280845,-11225.313315627796
34308,19420,-10760,1272,-31021,17145,8706,26170,-16620,-23851,30,1,36952,2020-11-02 14:52:34,2020-11-02 14:53:04,3,D7:F2:3B:06:4D:C8,30,30,3576.974217845799,-16374.245546986262,14615.790167208443
34309,19926,32242,-28918,18398,-24579,18448,32306,16404,7379,30,1,36977,2020-11-02 14:52:34,2020-11-02 14:53:04,3,D7:F2:3B:06:4D:C8,30,30,-8061.84840923292,-46951.76614234841,-1838.7551062538173
34310,20440,-20745,26120,-7955,-25609,-5868,9004,19986,-26673,30,1,37003,2020-11-02 14:52:34,2020-11-02 14:53:04,3,D7:F2:3B:06:4D:C8,30,30,38651.79829005717,6021.654520490021,425.6651038027321
34311,16347,-8963,17664,11514,5620,-17128,40,-27633,-4661,30,1,37029,2020-11-02 14:52:34,2020-11-02 14:53:04,3,D7:F2:3B:06:4D:C8,30,30,2683.0470068617797,-8963.0,-23917.411309733543
34312,10214,25861,26615,1276,-14604,6682,-10971,6156,7113,30,1,37054,2020-11-02 14:52:34,2020-11-02 14:53:04,3,D7:F2:3B:06:4D:C8,30,30,-30977.129952032967,19067.385116755344,-12582.829043748428
34313,-26121,-8698,-15618,-17416,-4625,30483,-20957,-9976,30406,30,1,37080,2020-11-02 14:52:34,2020-11-02 14:53:04,3,D7:F2:3B:06:4D:C8,30,30,-1843.2139736166573,28817.535403606744,-12962.869455075774
34314,-2806,-8187,20475,7678,27633,6155,7458,-25082,-5437,30,1,37105,2020-11-02 14:52:34,2020-11-02 14:53:04,3,D7:F2:3B:06:4D:C8,30,30,4992.689738466645,-21652.57339208414,-604.4374871066129
34315,25078,3079,10250,-5885,30963,27908,-15839,-23803,2242,30,1,37131,2020-11-02 14:52:34,2020-11-02 14:53:04,3,D7:F2:3B:06:4D:C8,30,30,-21739.05981939235,8038.982515234586,-14360.94924747782
34316,-2812,-25598,-20468,-16883,-12041,-4343,-12254,17412,-31552,30,-1,37156,2020-11-02 14:52:34,2020-11-02 14:53:04,3,D7:F2:3B:06:4D:C8,30,30,9694.45032895974,4714.307398560894,-31078.882067590625
34317,770,27141,24324,-2288,13555,1788,1829,-6397,-66,30,-1,37182,2020-11-02 14:52:34,2020-11-02 14:53:04,3,D7:F2:3B:06:4D:C8,30,30,-20051.90745894881,27141.0,13790.245946238712
34318,23027,20499,-12047,-10744,20207,2807,-32474,-31227,-20292,30,-1,37208,2020-11-02 14:52:34,2020-11-02 14:53:04,3,D7:F2:3B:06:4D:C8,30,30,-19432.505956263998,-20312.545138374786,-17474.557541215483
34319,-20238,-3570,21521,-30199,25073,22523,-9946,-1530,20410,30,-1,37233,2020-11-02 14:52:34,2020-11-02 14:53:04,3,D7:F2:3B:06:4D:C8,30,30,17752.087451321633,-18874.478968756106,14631.897340352425
34320,13303,14590,21001,-14313,-5130,-25092,3625,-4345,13637,30,-1,37259,2020-11-02 14:52:34,2020-11-02 14:53:04,3,D7:F2:3B:06:4D:C8,30,30,-18802.65082397333,6024.801323839237,21001.0
34321,-1796,28398,23295,-7647,-2056,15102,16941,-14072,2116,30,-1,37284,2020-11-02 14:52:34,2020-11-02 14:53:04,3,D7:F2:3B:06:4D:C8,30,30,-13917.828990104666,-32999.821422170004,-8344.750883465116
34322,-29186,-5906,18163,21533,-13579,24313,1586,778,29763,30,-1,37310,2020-11-02 14:52:34,2020-11-02 14:53:04,3,D7:F2:3B:06:4D:C8,30,30,-13942.371311090217,26311.855012972545,18163.0
34323,25344,26350,11263,2077,-9484,-2311,-715,-245,-17854,30,-1,37336,2020-11-02 14:52:34,2020-11-02 14:53:04,3,D7:F2:3B:06:4D:C8,30,30,-21371.857621464187,-29662.847769691012,11263.0
34324,-31999,4079,-12568,-32476,10234,-26889,-20933,32013,12867,30,-1,37362,2020-11-02 14:52:34,2020-11-02 14:53:04,3,D7:F2:3B:06:4D:C8,30,30,13797.36328573338,-16182.103734444709,-27318.51297360761
34325,12548,15343,-15392,24608,13052,757,-1727,-27634,-12988,30,-1,37387,2020-11-02 14:52:34,2020-11-02 14:53:04,3,D7:F2:3B:06:4D:C8,30,30,22212.12486844557,11665.180558589607,564.5249012088316
34326,21510,-22795,-20518,26643,-19461,-19215,-9286,5903,-20038,30,-1,37412,2020-11-02 14:52:34,2020-11-02 14:53:04,3,D7:F2:3B:06:4D:C8,30,30,-22424.01650325044,26684.05612122645,-13726.073064835015
34327,-1278,4340,-30238,24580,-11018,17903,-30274,-27377,4030,30,-1,37438,2020-11-02 14:52:34,2020-11-02 14:53:04,3,D7:F2:3B:06:4D:C8,30,30,-2506.41522145316,30227.046102174383,3853.4523060098127
34328,-12289,1269,-7969,3838,10482,-27668,25025,-28400,25538,30,-1,37463,2020-11-02 14:52:34,2020-11-02 14:53:04,3,D7:F2:3B:06:4D:C8,30,30,-12544.113794492654,-4028.1641204347247,6523.338557032086
34329,1271,8182,-2861,23547,-7682,4334,-21821,18960,-32314,30,-1,37489,2020-11-02 14:52:34,2020-11-02 14:53:04,3,D7:F2:3B:06:4D:C8,30,30,7864.794029795823,-3391.784626759537,-1840.2983221656339
34330,-17944,4846,-5149,-18447,12294,9201,-27965,29454,-7480,30,-1,37515,2020-11-02 14:52:34,2020-11-02 14:53:04,3,D7:F2:3B:06:4D:C8,30,30,-5780.440460117038,10352.152725401455,-15211.919505342026
34331,21984,-17675,-28174,31467,4856,27887,27330,-16371,-15669,30,-1,37566,2020-11-02 14:52:34,2020-11-02 14:53:04,3,D7:F2:3B:06:4D:C8,30,30,6954.443564372445,38670.629520228234,6759.75474549272
34332,-23851,-12041,-32536,-5397,16367,3057,-23871,-242,-32049,30,-1,37568,2020-11-02 14:52:34,2020-11-02 14:53:04,3,D7:F2:3B:06:4D:C8,30,30,-37924.767202120165,-13654.026702850992,12154.290002415713
34333,-27429,6647,-32547,20963,-18711,3316,31168,25105,20691,30,-1,37591,2020-11-02 14:52:34,2020-11-02 14:53:04,3,D7:F2:3B:06:4D:C8,30,30,-25303.786209529844,33228.0057146711,-10557.36229785602
34334,29656,-5896,22497,16609,-9755,13561,21694,-2540,-3114,30,-1,37617,2020-11-02 14:52:34,2020-11-02 14:53:04,3,D7:F2:3B:06:4D:C8,30,30,29656.0,2662.218938633393,-23103.9047635412
34335,-26144,-28429,1271,30685,-30475,-1544,19387,-31209,-28967,30,-1,37643,2020-11-02 14:52:34,2020-11-02 14:53:04,3,D7:F2:3B:06:4D:C8,30,30,-30353.646906989004,-4024.9132473933078,23575.165127667602
34336,-2085,-28165,-32267,-26911,-5119,-14343,28997,-18409,3292,30,-1,37668,2020-11-02 14:52:34,2020-11-02 14:53:04,3,D7:F2:3B:06:4D:C8,30,30,-455.58800794720946,-38930.95502412725,-17970.723955266672
34337,-25352,-23048,-10796,-17191,18420,31481,28225,-27112,-21027,30,-1,37694,2020-11-02 14:52:34,2020-11-02 14:53:04,3,D7:F2:3B:06:4D:C8,30,30,-33788.09756188428,-11780.811546178717,3172.5016094576386
34338,15325,5107,26631,-16684,16371,-3077,-3525,25882,15071,30,-1,37719,2020-11-02 14:52:34,2020-11-02 14:53:04,3,D7:F2:3B:06:4D:C8,30,30,7911.990548246762,-29560.125336183737,-5809.185026624851
34339,24013,-22542,6432,19956,-3592,7963,-6352,-32486,-26921,30,-1,37745,2020-11-02 14:52:34,2020-11-02 14:53:04,3,D7:F2:3B:06:4D:C8,30,30,-13398.517458083166,25866.059287721895,-16660.230005900175
34340,-8719,-26903,-12539,-20475,-25346,-15579,-469,-15339,-20271,30,-1,37796,2020-11-02 14:52:34,2020-11-02 14:53:04,3,D7:F2:3B:06:4D:C8,30,30,-18676.20285604735,24512.725284039254,-2710.0990810285
34341,-2046,-785,-30213,12799,10734,1821,22056,-24815,-32564,30,-1,37798,2020-11-02 14:52:34,2020-11-02 14:53:04,3,D7:F2:3B:06:4D:C8,30,30,1942.9317892362167,24338.55382867883,-17930.073161894186
34342,-7165,26869,-12543,24063,11497,5395,-15836,-15602,28359,30,-1,37822,2020-11-02 14:52:34,2020-11-02 14:53:04,3,D7:F2:3B:06:4D:C8,30,30,-30461.570618806138,-713.8839339316819,1479.973028254496
34343,-28918,10743,-26366,-5113,4848,-24307,26915,27916,-9533,30,1,37847,2020-11-02 14:52:34,2020-11-02 14:53:04,3,D7:F2:3B:06:4D:C8,30,30,-16209.14477325994,-24683.261296746252,-27835.74979187822
34344,30732,32760,15620,22284,-10513,-14073,-24285,-8438,5313,30,1,37873,2020-11-02 14:52:34,2020-11-02 14:53:04,3,D7:F2:3B:06:4D:C8,30,30,4333.452619803404,-33234.61999620177,33739.280462096176
34345,-4345,8190,17148,3596,-26901,24317,9252,-22262,-5955,30,1,37899,2020-11-02 14:52:34,2020-11-02 14:53:04,3,D7:F2:3B:06:4D:C8,30,30,-7326.261587004106,-7106.451273939583,-16608.228997997063
34346,20715,12798,-22256,-9460,1516,-19202,7716,27659,14778,30,1,37924,2020-11-02 14:52:34,2020-11-02 14:53:04,3,D7:F2:3B:06:4D:C8,30,30,-18077.50737603255,-22118.962345863176,16498.024027494197
34347,23288,-29964,-29179,-18142,-3327,12,25383,30474,25925,30,1,37950,2020-11-02 14:52:34,2020-11-02 14:53:04,3,D7:F2:3B:06:4D:C8,30,30,19960.736811782976,26931.033089739303,34174.182121158345
34348,16387,-17166,32509,25378,22535,29453,6189,8200,-12475,30,1,37975,2020-11-02 14:52:34,2020-11-02 14:53:04,3,D7:F2:3B:06:4D:C8,30,30,-38084.83831711821,4805.429163939206,-12103.443597147352
34349,26625,-17668,29685,534,8954,24582,10033,-9210,9541,30,1,38001,2020-11-02 14:52:34,2020-11-02 14:53:04,3,D7:F2:3B:06:4D:C8,30,30,36291.69686517905,-7378.679267716827,23037.272080481212
34350,-15863,-32003,-21775,-12018,18926,-15873,5683,-7929,6211,30,1,38026,2020-11-02 14:52:34,2020-11-02 14:53:04,3,D7:F2:3B:06:4D:C8,30,30,32198.740295445383,-9085.08855265896,-25113.336942286405
34351,-9461,-3067,-30493,12048,17655,25079,6453,-10487,4162,30,1,38052,2020-11-02 14:52:34,2020-11-02 14:53:04,3,D7:F2:3B:06:4D:C8,30,30,10923.46427612433,24001.867567649602,-18257.281847888687
34352,-15102,-4600,1497,24852,-32248,10232,-14280,19466,-30653,30,1,38078,2020-11-02 14:52:34,2020-11-02 14:53:04,3,D7:F2:3B:06:4D:C8,30,30,1242.5452083943915,15747.606440653853,-1392.977313301738
34353,20480,-22016,-28435,2062,30215,25848,11580,23817,28485,30,1,38103,2020-11-02 14:52:34,2020-11-02 14:53:04,3,D7:F2:3B:06:4D:C8,30,30,31202.186664279718,-17446.614630082964,20850.013580734667
34354,19702,31999,5861,29188,-21765,19188,-29890,-2039,28090,30,1,38129,2020-11-02 14:52:34,2020-11-02 14:53:04,3,D7:F2:3B:06:4D:C8,30,30,-10262.084441246057,-17169.940702862885,32347.16193394574
34355,-28175,25082,5607,-8187,-6,-14096,14400,30731,32444,30,1,38154,2020-11-02 14:52:34,2020-11-02 14:53:04,3,D7:F2:3B:06:4D:C8,30,30,-22734.196099849192,22083.12281166747,-21210.087519348283
34356,-6158,-6660,-21027,-15867,8701,17907,27458,31756,-14914,30,1,38180,2020-11-02 14:52:34,2020-11-02 14:53:04,3,D7:F2:3B:06:4D:C8,30,30,-2288.569757803709,22778.087274808233,-576.612144240496
34357,-21000,17657,28641,3584,17660,20208,15684,6925,16065,30,1,38205,2020-11-02 14:52:34,2020-11-02 14:53:04,3,D7:F2:3B:06:4D:C8,30,30,33635.64428736713,6743.503129291409,19905.906885116892
34358,-8967,30195,2018,28917,-24841,1514,28997,16398,-9276,30,1,38231,2020-11-02 14:52:34,2020-11-02 14:53:04,3,D7:F2:3B:06:4D:C8,30,30,-3092.215971206121,24249.940732363735,19964.869467749195
34359,6131,-26132,23270,-7701,-31500,-8476,6470,-10993,-10039,30,1,38257,2020-11-02 14:52:34,2020-11-02 14:53:04,3,D7:F2:3B:06:4D:C8,30,30,-22286.753906046575,-27663.31506195983,71.30998572685439
34360,24804,-4882,-32279,-15134,4078,32481,-71,5906,6864,30,-1,38282,2020-11-02 14:52:34,2020-11-02 14:53:04,3,D7:F2:3B:06:4D:C8,30,30,-3326.5975392785986,-14216.55103820876,-38312.264438292754
34361,1243,15606,-9244,5335,-19,7397,-4167,3349,17111,30,-1,38308,2020-11-02 14:52:34,2020-11-02 14:53:04,3,D7:F2:3B:06:4D:C8,30,30,-14707.766160869687,-5364.130829610382,-9244.0
34362,16603,10488,-16889,-17191,-8697,-21007,-20668,-23787,-21796,30,-1,38333,2020-11-02 14:52:34,2020-11-02 14:53:04,3,D7:F2:3B:06:4D:C8,30,30,-2475.94205402417,12542.531585328106,-22526.666117651796
34363,-22564,6141,11279,1761,25866,-17668,-22975,10004,6367,30,-1,38359,2020-11-02 14:52:34,2020-11-02 14:53:04,3,D7:F2:3B:06:4D:C8,30,30,2734.54775257476,-18968.932981825008,17514.669512152373
34364,28403,-13317,-16868,27881,-11522,26631,-7364,-19181,-24354,30,-1,38386,2020-11-02 14:52:34,2020-11-02 14:53:04,3,D7:F2:3B:06:4D:C8,30,30,34759.974621914254,-7522.902380998514,1937.1179752000708
34365,32470,8961,2837,-28945,-11016,-4340,-14537,-6893,-5413,30,-1,38410,2020-11-02 14:52:34,2020-11-02 14:53:04,3,D7:F2:3B:06:4D:C8,30,30,25393.549594516076,-1149.415002394484,22282.17839761461
34366,24037,8449,-13304,-24330,-28937,-21994,18738,-9710,10711,30,-1,38436,2020-11-02 14:52:34,2020-11-02 14:53:04,3,D7:F2:3B:06:4D:C8,30,30,5945.4470294125085,-2746.7305496711097,27986.899022720496
34367,7665,-30977,-25857,16126,21494,13080,14382,-21744,-31790,30,-1,38461,2020-11-02 14:52:34,2020-11-02 14:53:04,3,D7:F2:3B:06:4D:C8,30,30,-36363.119846741276,5405.041194065288,18314.48191191844
34368,17671,6652,11259,6655,-27152,-2542,29483,-31986,27342,30,-1,38487,2020-11-02 14:52:34,2020-11-02 14:53:04,3,D7:F2:3B:06:4D:C8,30,30,8318.764231022196,-9772.58483725122,-17848.61824532625
34369,242,8955,3329,-30717,-20758,-243,9257,22541,7882,30,-1,38513,2020-11-02 14:52:34,2020-11-02 14:53:04,3,D7:F2:3B:06:4D:C8,30,30,-1131.9506420358498,2007.481010789124,-9274.779659663927
34370,4087,7159,5111,4105,-7700,18,3112,-21493,-4667,30,-1,38538,2020-11-02 14:52:34,2020-11-02 14:53:04,3,D7:F2:3B:06:4D:C8,30,30,-4767.363694800002,7159.0,-4483.0941771842
34371,23552,-5639,7932,-14582,10478,-13811,-1753,-5367,20418,30,-1,38564,2020-11-02 14:52:34,2020-11-02 14:53:04,3,D7:F2:3B:06:4D:C8,30,30,-22520.5275544841,8906.226118155904,7932.0
34372,-30210,-10243,26364,21264,16112,30472,-8920,-3064,16319,30,-1,38589,2020-11-02 14:52:34,2020-11-02 14:53:04,3,D7:F2:3B:06:4D:C8,30,30,-2568.210384079466,-34398.81352806086,22863.71728929492
34373,24058,764,13308,-25065,2803,-24058,1579,-26360,-24132,30,-1,38615,2020-11-02 14:52:34,2020-11-02 14:53:04,3,D7:F2:3B:06:4D:C8,30,30,3117.3932138689497,-4778.216850009946,-26905.843738571086
34374,-18946,22270,-32531,22559,-5892,-10236,-466,15880,12475,30,-1,38640,2020-11-02 14:52:34,2020-11-02 14:53:04,3,D7:F2:3B:06:4D:C8,30,30,-11221.31668753583,-28995.74032700994,30765.221788354454
34375,9723,23813,-13077,24089,32761,-2562,21555,21512,-21318,30,-1,38666,2020-11-02 14:52:34,2020-11-02 14:53:04,3,D7:F2:3B:06:4D:C8,30,30,4184.772256933843,22545.44367499673,-17515.54388693502
34376,31992,-17405,-12827,27156,-10518,-6665,14390,-25334,5190,30,-1,38692,2020-11-02 14:52:34,2020-11-02 14:53:04,3,D7:F2:3B:06:4D:C8,30,30,-28849.01873404729,18906.59378399603,-17355.945597101618
34377,-14866,6146,3288,6420,-10767,14064,31801,6926,3910,30,-1,38743,2020-11-02 14:52:34,2020-11-02 14:53:04,3,D7:F2:3B:06:4D:C8,30,30,-12206.55999357902,4896.330806949388,9828.939604661049
34378,-21523,26625,11999,15884,28415,25077,8253,-20721,16571,30,1,38745,2020-11-02 14:52:34,2020-11-02 14:53:04,3,D7:F2:3B:06:4D:C8,30,30,-11070.381387579479,13883.394646497982,-31635.488996112028
34379,9975,30452,-10507,-30205,32246,-23569,-15553,-2800,-32323,30,1,38768,2020-11-02 14:52:34,2020-11-02 14:53:04,3,D7:F2:3B:06:4D:C8,30,30,24143.052568890493,3260.4544771309356,-23317.470430094832
34380,15080,-23045,-2832,-30465,-5399,-3863,-20670,23572,18881,30,1,38794,2020-11-02 14:52:34,2020-11-02 14:53:04,3,D7:F2:3B:06:4D:C8,30,30,11132.292922993018,-24228.178062676547,7454.266633272411
34381,31466,23300,4333,31484,7666,22512,14662,22551,-7995,30,1,38820,2020-11-02 14:52:34,2020-11-02 14:53:04,3,D7:F2:3B:06:4D:C8,30,30,-26827.545690058458,16543.320568373878,-23629.96787597993
34382,15603,20235,-21017,9970,4856,7410,19900,-21736,-27702,30,1,38845,2020-11-02 14:52:34,2020-11-02 14:53:04,3,D7:F2:3B:06:4D:C8,30,30,25195.42292926715,-3061.882530495609,-21223.540274534895
34383,-8,24072,6130,4329,-9482,-18956,16829,-28391,1487,30,1,38871,2020-11-02 14:52:34,2020-11-02 14:53:04,3,D7:F2:3B:06:4D:C8,30,30,14639.993932531113,-15591.479875804242,-12633.862471067332
34384,-30471,30978,10487,-5148,-16142,18934,-31043,4891,-23597,30,1,38896,2020-11-02 14:52:34,2020-11-02 14:53:04,3,D7:F2:3B:06:4D:C8,30,30,20877.520574567072,-22231.08665906267,32680.321519467558
34385,-17172,7430,5613,-11795,8964,17909,-12098,23323,-22568,30,1,38922,2020-11-02 14:52:34,2020-11-02 14:53:04,3,D7:F2:3B:06:4D:C8,30,30,-17640.041126532647,-4546.7801247352745,-7052.942120246629
34386,17650,-8950,32489,26095,3339,-9,-16962,29465,12251,30,1,38948,2020-11-02 14:52:34,2020-11-02 14:53:04,3,D7:F2:3B:06:4D:C8,30,30,-34480.49928984882,-4598.494664023321,15398.348500656946
34387,17893,-13821,-26644,12770,21760,15357,6588,30744,27612,30,1,38973,2020-11-02 14:52:34,2020-11-02 14:53:04,3,D7:F2:3B:06:4D:C8,30,30,-8314.246105625458,-32502.23251791288,9775.500961414638
34388,24805,-31232,-28932,29408,5632,-7933,28739,-23528,2780,30,-1,38999,2020-11-02 14:52:34,2020-11-02 14:53:04,3,D7:F2:3B:06:4D:C8,30,30,240.92770378230944,-36602.93449094141,-32984.14184867331
34389,-4385,-13062,-14073,-3613,0,30987,-16580,11544,-23335,30,-1,39024,2020-11-02 14:52:34,2020-11-02 14:53:04,3,D7:F2:3B:06:4D:C8,30,30,-6162.200631474328,18395.959417977545,-3392.54454201866
34390,29150,20214,3090,21994,-18432,-14316,24885,-10218,27861,30,-1,39050,2020-11-02 14:52:34,2020-11-02 14:53:04,3,D7:F2:3B:06:4D:C8,30,30,-28049.564405838482,-15840.050392175166,15172.051153883918
34391,15589,-31495,27673,22770,2037,12822,-20946,-12524,-31536,30,-1,39075,2020-11-02 14:52:34,2020-11-02 14:53:04,3,D7:F2:3B:06:4D:C8,30,30,-29564.1372406485,23743.943144704233,23726.226589096575
34392,13800,-24840,-17142,-2561,-3090,3863,19753,-20206,-17206,30,-1,39101,2020-11-02 14:52:34,2020-11-02 14:53:04,3,D7:F2:3B:06:4D:C8,30,30,19218.06502409708,-24544.064107617538,-11382.822928023457
34393,-3609,-12296,-10495,265,752,10519,-730,-3825,11462,30,-1,39127,2020-11-02 14:52:34,2020-11-02 14:53:04,3,D7:F2:3B:06:4D:C8,30,30,12682.59509334722,1835.2870887697777,-10495.0
34394,8427,28663,15099,-9202,-16653,6169,-7898,-18676,-15678,30,-1,39152,2020-11-02 14:52:34,2020-11-02 14:53:04,3,D7:F2:3B:06:4D:C8,30,30,28169.398405044805,-6194.193206335252,16990.54628375584
34395,22779,5372,-4862,-13297,8182,8214,1320,32521,13504,30,-1,39178,2020-11-02 14:52:34,2020-11-02 14:53:04,3,D7:F2:3B:06:4D:C8,30,30,-9513.89275217418,7879.329867922797,20464.170506829425
34396,-26621,-26626,15870,18,24308,-31220,-14551,32519,-9539,30,-1,39203,2020-11-02 14:52:34,2020-11-02 14:53:04,3,D7:F2:3B:06:4D:C8,30,30,8264.44740345505,34344.81573853974,-20533.1672666756
34397,-31484,21503,11517,-20975,-5393,-28926,-20181,15111,24507,30,-1,39229,2020-11-02 14:52:34,2020-11-02 14:53:04,3,D7:F2:3B:06:4D:C8,30,30,-14864.391789307185,12871.11272206081,34635.91875539007
34398,-17407,18945,2032,-12784,-22804,17914,32301,-18680,32581,30,-1,39255,2020-11-02 14:52:34,2020-11-02 14:53:04,3,D7:F2:3B:06:4D:C8,30,30,12614.181858344951,-16828.224570965493,14957.906666166697
34399,-17667,23294,-20245,17169,754,-32269,29743,13067,-6333,30,-1,39280,2020-11-02 14:52:34,2020-11-02 14:53:04,3,D7:F2:3B:06:4D:C8,30,30,-20598.90633312239,8379.72919336054,27749.92876612824
34400,12277,25337,-7962,788,25339,29936,-21198,-15859,16452,30,-1,39306,2020-11-02 14:52:34,2020-11-02 14:53:04,3,D7:F2:3B:06:4D:C8,30,30,27585.784643650542,2699.4183265215142,9371.19887167986
34401,-2827,-22542,10984,27151,-14590,-8209,2615,24335,-2887,30,-1,39331,2020-11-02 14:52:34,2020-11-02 14:53:04,3,D7:F2:3B:06:4D:C8,30,30,-6464.868092280852,-22542.0,-9319.102185801426
34402,27379,-16919,-30731,7436,-11268,6125,12347,-10480,7613,30,-1,39357,2020-11-02 14:52:34,2020-11-02 14:53:04,3,D7:F2:3B:06:4D:C8,30,30,-20265.531259522228,33187.996441925105,21636.120214587798
34403,-10773,15844,8678,11283,15858,-11547,-12480,28691,25025,30,-1,39382,2020-11-02 14:52:34,2020-11-02 14:53:04,3,D7:F2:3B:06:4D:C8,30,30,-8314.351979491505,-11611.487780849306,-15441.581903299702
34404,8413,25079,25784,11785,-15123,-10269,-21060,16406,-16184,30,-1,39410,2020-11-02 14:52:34,2020-11-02 14:53:04,3,D7:F2:3B:06:4D:C8,30,30,-6812.227954674501,36033.05580479348,4445.436498499316
34405,30949,3842,-30761,30700,16120,-6159,-21312,7191,5071,30,-1,39434,2020-11-02 14:52:34,2020-11-02 14:53:04,3,D7:F2:3B:06:4D:C8,30,30,41891.03459401711,-8144.543739868487,-9881.716142059086
34406,-15886,-5121,-19714,8177,1795,30445,21953,24086,21203,30,-1,39459,2020-11-02 14:52:34,2020-11-02 14:53:04,3,D7:F2:3B:06:4D:C8,30,30,2693.1215823830335,-8315.057721813744,-24307.16651988479
34407,8427,21002,-7691,-4363,21756,-32015,11459,-30187,-17961,30,-1,39485,2020-11-02 14:52:34,2020-11-02 14:53:04,3,D7:F2:3B:06:4D:C8,30,30,-12684.023383381755,-19807.37421892674,-4246.562299227597
34408,-6681,5642,-11795,-21772,-22017,-20748,1988,8725,-20518,30,-1,39511,2020-11-02 14:52:34,2020-11-02 14:53:04,3,D7:F2:3B:06:4D:C8,30,30,14195.65839923736,-3675.4910615782783,-750.9980482131523
34409,31711,7693,9723,7919,25086,-22024,20675,-27884,-18980,30,-1,39536,2020-11-02 14:52:34,2020-11-02 14:53:04,3,D7:F2:3B:06:4D:C8,30,30,25650.315990744493,12735.3439115547,-18416.80765033353
34410,-2582,-26101,-20994,-28437,5112,-8709,-24639,17173,26078,30,-1,39562,2020-11-02 14:52:34,2020-11-02 14:53:04,3,D7:F2:3B:06:4D:C8,30,30,27817.98950525223,-18200.039720288798,4857.465909873848
34411,8946,-7931,-27898,-4372,-11783,2302,29631,16662,-27681,30,-1,39587,2020-11-02 14:52:34,2020-11-02 14:53:04,3,D7:F2:3B:06:4D:C8,30,30,24565.33430381318,15927.162104797928,-8006.243740318452
34412,17138,16891,28158,-26654,25083,15104,25020,279,8672,30,1,39613,2020-11-02 14:52:34,2020-11-02 14:53:04,3,D7:F2:3B:06:4D:C8,30,30,618.3406389308875,19969.6833644358,-31188.4480245238
34413,-23316,-3085,27382,20446,-17163,26885,-28349,20504,25823,30,1,39639,2020-11-02 14:52:34,2020-11-02 14:53:04,3,D7:F2:3B:06:4D:C8,30,30,-27378.47429582563,-3080.91786467165,23320.679564368656
34414,24050,-19987,-22011,-7968,-12293,20746,28987,25,-1829,30,1,39664,2020-11-02 14:52:34,2020-11-02 14:53:04,3,D7:F2:3B:06:4D:C8,30,30,24050.0,-26776.438310463844,12922.331113461076
34415,-26385,16369,6930,-12057,-31491,6930,-31693,1304,-18729,30,1,39690,2020-11-02 14:52:34,2020-11-02 14:53:04,3,D7:F2:3B:06:4D:C8,30,30,25838.41863094803,5705.494510733917,17662.410397221072
34416,733,-23816,25354,23793,-22539,10520,-31700,5654,-17710,30,1,39715,2020-11-02 14:52:34,2020-11-02 14:53:04,3,D7:F2:3B:06:4D:C8,30,30,-5110.018260475469,30653.907938602235,-15645.769475142668
34417,17898,1266,27647,-8955,-4110,28193,-26585,23314,28109,30,1,39741,2020-11-02 14:52:34,2020-11-02 14:53:04,3,D7:F2:3B:06:4D:C8,30,30,-17279.69281901116,13269.488894804479,24731.16757355533
34418,-2067,5366,28156,-15612,-2072,21267,31269,5391,4553,30,1,39766,2020-11-02 14:52:34,2020-11-02 14:53:04,3,D7:F2:3B:06:4D:C8,30,30,-2067.0,28521.603164611,2841.2048360601966
34419,-1805,2297,-22535,-14591,29675,-4595,-30429,-10740,-26172,30,1,39792,2020-11-02 14:52:34,2020-11-02 14:53:04,3,D7:F2:3B:06:4D:C8,30,30,-18514.080522068758,-12620.681926352981,-3782.5479687878833
34420,11771,9217,13063,19731,6390,-20720,-9949,-30966,-11327,30,1,39818,2020-11-02 14:52:34,2020-11-02 14:53:04,3,D7:F2:3B:06:4D:C8,30,30,14882.550714934512,6383.217661159641,-11485.456695650455
34421,32767,-11261,-28410,-19695,-11273,-21489,9510,14600,19136,30,1,39843,2020-11-02 14:52:34,2020-11-02 14:53:04,3,D7:F2:3B:06:4D:C8,30,30,33332.5233920526,-22753.43748473341,-19463.77345086493
34422,18949,4864,1022,-1259,1009,-26113,-22488,30215,15038,30,1,39869,2020-11-02 14:52:34,2020-11-02 14:53:04,3,D7:F2:3B:06:4D:C8,30,30,1332.9168102481613,8312.164663311523,17688.94661609201
34423,20211,-6657,-4619,15895,22250,29426,6955,-19959,-30789,30,1,39894,2020-11-02 14:52:34,2020-11-02 14:53:04,3,D7:F2:3B:06:4D:C8,30,30,-5629.634689582594,-18008.855584048997,10868.471135109834
34424,6383,25079,27110,14880,-1037,-3090,-20690,7693,-2119,30,1,39920,2020-11-02 14:52:34,2020-11-02 14:53:04,3,D7:F2:3B:06:4D:C8,30,30,-22113.32575310112,-21002.25840373957,-21784.32913999845
34425,-7926,-3345,2516,-28638,-31482,496,26677,2319,-6213,30,1,39945,2020-11-02 14:52:34,2020-11-02 14:53:04,3,D7:F2:3B:06:4D:C8,30,30,-840.3544234205501,8879.634238351302,886.9369967121722
34426,24326,23541,4823,11030,1271,-7444,9276,10512,20671,30,1,39997,2020-11-02 14:52:34,2020-11-02 14:53:04,3,D7:F2:3B:06:4D:C8,30,30,-32906.84971748822,-4057.633910510195,-8358.775910318634
34427,27863,-23572,16864,7689,30674,15062,-31934,10774,-15164,30,-1,39999,2020-11-02 14:52:34,2020-11-02 14:53:04,3,D7:F2:3B:06:4D:C8,30,30,-20809.2264847536,9458.218977457444,-33074.1384752603
34428,-825,-3832,-27195,-24582,-4377,-13081,-21054,-25317,-17966,30,-1,40022,2020-11-02 14:52:34,2020-11-02 14:53:04,3,D7:F2:3B:06:4D:C8,30,30,-21116.61700749256,-2965.547516936581,-17327.056532592804
34429,-22791,9723,16106,-19206,1297,-7184,15557,-8423,-27178,30,-1,40048,2020-11-02 14:52:34,2020-11-02 14:53:04,3,D7:F2:3B:06:4D:C8,30,30,23370.938064427064,1536.2435604131406,-18022.454208897394
34430,-7964,-16372,-16139,-32525,-32250,16878,31686,-29418,-29735,30,-1,40073,2020-11-02 14:52:34,2020-11-02 14:53:04,3,D7:F2:3B:06:4D:C8,30,30,21678.088444714216,2352.9716082834766,10791.617441040049
34431,993,-14581,-10247,1264,-30469,23286,-22586,-11755,-25124,30,-1,40099,2020-11-02 14:52:34,2020-11-02 14:53:04,3,D7:F2:3B:06:4D:C8,30,30,-2307.606807543515,-17199.925037666668,-4174.942936187993
34432,27612,-11252,24066,-2582,-27135,-12553,25029,15125,-26402,30,-1,40125,2020-11-02 14:52:34,2020-11-02 14:53:04,3,D7:F2:3B:06:4D:C8,30,30,-7550.834609595252,-30373.609970533784,-22105.002104872758
34433,23276,-15868,-3830,-2072,-29961,-13315,1987,-23275,-7713,30,-1,40150,2020-11-02 14:52:34,2020-11-02 14:53:04,3,D7:F2:3B:06:4D:C8,30,30,-23138.828918491923,6667.8470889666305,-15111.879812879703
34434,-16645,-3330,-31745,3812,17650,-25858,-26944,26903,-23071,30,-1,40176,2020-11-02 14:52:34,2020-11-02 14:53:04,3,D7:F2:3B:06:4D:C8,30,30,-17922.92284702822,-19333.495093988582,-24512.74676714532
34435,-14093,-28936,3367,-29735,10483,31744,23228,16665,2531,30,-1,40201,2020-11-02 14:52:34,2020-11-02 14:53:04,3,D7:F2:3B:06:4D:C8,30,30,23776.115296601503,21461.98581501127,4617.460371131207
34436,4605,-25634,31487,-5168,3317,-29952,-1470,1563,32739,30,-1,40227,2020-11-02 14:52:34,2020-11-02 14:53:04,3,D7:F2:3B:06:4D:C8,30,30,-23274.800492656737,-11687.242746988093,31487.0
34437,13539,27637,-4588,13284,-4614,12047,-25032,-4837,-29218,30,-1,40253,2020-11-02 14:52:34,2020-11-02 14:53:04,3,D7:F2:3B:06:4D:C8,30,30,17833.64211044279,8843.524278454435,23914.66749534746
34438,-31009,15863,-31213,-22272,22783,-6109,12591,1817,13526,30,-1,40278,2020-11-02 14:52:34,2020-11-02 14:53:04,3,D7:F2:3B:06:4D:C8,30,30,-6900.7129229827915,-37260.316430340485,27413.376290881744
34439,26866,-13582,-17159,-13563,-22536,29734,4139,3348,19664,30,1,40304,2020-11-02 14:52:34,2020-11-02 14:53:04,3,D7:F2:3B:06:4D:C8,30,30,-24680.44646419845,17237.40822536364,-17159.0
34440,-269,18939,-9737,-12542,27118,-32483,6696,-4593,25547,30,1,40329,2020-11-02 14:52:34,2020-11-02 14:53:04,3,D7:F2:3B:06:4D:C8,30,30,14120.815456238974,-11840.580600513018,10675.695429038675
34441,-29199,-9731,-24070,6660,32233,11541,-14299,-7156,-24378,30,1,40355,2020-11-02 14:52:34,2020-11-02 14:53:04,3,D7:F2:3B:06:4D:C8,30,30,34187.538317664315,-12294.084809353033,-14377.293364144361
34442,6389,-3324,-6913,-13814,-16660,-1009,1317,-30198,-19774,30,1,40380,2020-11-02 14:52:34,2020-11-02 14:53:04,3,D7:F2:3B:06:4D:C8,30,30,4299.439501134227,3970.4714435218525,-8087.523878930075
34443,-16902,-32758,3838,17426,-30225,-2036,1062,-21752,-32065,30,1,40406,2020-11-02 14:52:34,2020-11-02 14:53:04,3,D7:F2:3B:06:4D:C8,30,30,36005.2823775998,6233.962010458433,-6184.801578180385
34444,22529,22023,-27401,-12778,26355,11272,24104,30727,-2116,30,1,40434,2020-11-02 14:52:34,2020-11-02 14:53:04,3,D7:F2:3B:06:4D:C8,30,30,5198.272561695892,-35132.33863621187,21956.318346317865
34445,-20988,-32512,-28433,17429,-29199,23804,16427,-17401,-4678,30,1,40457,2020-11-02 14:52:34,2020-11-02 14:53:04,3,D7:F2:3B:06:4D:C8,30,30,23280.129620725376,39383.819686755305,14591.507417788285
34446,2555,3327,22265,13327,25575,5869,4909,-16630,27973,30,1,40483,2020-11-02 14:52:34,2020-11-02 14:53:04,3,D7:F2:3B:06:4D:C8,30,30,16446.21849723279,13951.852211203706,-6942.254390182508
34447,-1311,-24328,-22286,3863,-25886,7137,-18130,31760,-1470,30,1,40508,2020-11-02 14:52:34,2020-11-02 14:53:04,3,D7:F2:3B:06:4D:C8,30,30,-24820.749002896664,20939.536957673434,5975.141164310037
34448,-13604,10751,-10534,-31467,-13580,16872,26930,-6891,-6590,30,1,40534,2020-11-02 14:52:34,2020-11-02 14:53:04,3,D7:F2:3B:06:4D:C8,30,30,-16024.275610191415,-2804.9428227081116,-12123.236363692773
34449,31221,-19204,-1811,6666,4606,18415,-28105,3352,15174,30,1,40560,2020-11-02 14:52:34,2020-11-02 14:53:04,3,D7:F2:3B:06:4D:C8,30,30,-25652.797044979958,22595.103708661925,-13349.886522509452
34450,28398,16643,10465,-8194,-13330,-16665,-1732,17435,-8258,30,1,40585,2020-11-02 14:52:34,2020-11-02 14:53:04,3,D7:F2:3B:06:4D:C8,30,30,-387.42337545083626,31406.50214700265,-14367.79746580777
34451,31218,32521,-12579,-26125,18941,-31250,11588,-30435,-17977,30,1,40611,2020-11-02 14:52:34,2020-11-02 14:53:04,3,D7:F2:3B:06:4D:C8,30,30,-42104.73592617683,-3885.24331968109,-20062.55973034817
34452,-10771,13831,7407,26863,-2038,-29968,27581,11036,17616,30,1,40636,2020-11-02 14:52:34,2020-11-02 14:53:04,3,D7:F2:3B:06:4D:C8,30,30,18999.147437944146,761.3683946432138,792.064264374239
34453,-32522,12552,13043,-26385,-22007,-4619,-16706,16410,29652,30,1,40662,2020-11-02 14:52:34,2020-11-02 14:53:04,3,D7:F2:3B:06:4D:C8,30,30,5859.022818572794,3589.24132785028,36580.62650231533
34454,-22532,1536,-9747,29428,14103,15351,12478,31255,11990,30,1,40687,2020-11-02 14:52:34,2020-11-02 14:53:04,3,D7:F2:3B:06:4D:C8,30,30,-2642.0317831689813,-13988.63878098189,-20059.71041944361
34455,13802,8437,-15369,-32268,-20703,-12559,-22595,16146,-32553,30,1,40713,2020-11-02 14:52:34,2020-11-02 14:53:04,3,D7:F2:3B:06:4D:C8,30,30,12077.407862714097,3736.414408367962,-18386.401515429603
34456,24802,-30212,-16145,18407,24304,31976,32189,-12016,23259,30,1,40739,2020-11-02 14:52:34,2020-11-02 14:53:04,3,D7:F2:3B:06:4D:C8,30,30,3041.069880989333,40317.5718309178,12402.034858752944
34457,11238,3837,-15913,-23346,29400,-11548,2237,-22763,-12830,30,1,40764,2020-11-02 14:52:34,2020-11-02 14:53:04,3,D7:F2:3B:06:4D:C8,30,30,7184.313602787854,6477.708433134665,17339.657248979674
34458,21724,-6405,19216,-24372,26873,20729,4678,-25064,19688,30,-1,40790,2020-11-02 14:52:34,2020-11-02 14:53:04,3,D7:F2:3B:06:4D:C8,30,30,564.3431221157643,6389.300843975352,-29001.193226584597
34459,28901,-12042,23573,-7965,13312,11533,-16322,32280,25062,30,-1,40815,2020-11-02 14:52:34,2020-11-02 14:53:04,3,D7:F2:3B:06:4D:C8,30,30,15370.33375657557,-22663.42244417226,28037.225564032946
34460,-15391,6132,16644,16113,-14347,11801,-29643,-4073,24543,30,-1,40841,2020-11-02 14:52:34,2020-11-02 14:53:04,3,D7:F2:3B:06:4D:C8,30,30,-702.1980964573031,20943.360261890833,10601.397067084303
34461,-13088,-4884,-8463,31480,9459,32287,-19667,16405,30935,30,-1,40867,2020-11-02 14:52:34,2020-11-02 14:53:04,3,D7:F2:3B:06:4D:C8,30,30,7375.069354530789,-12096.46009246689,8127.458043399347
34462,-23061,-8461,4096,1786,-15893,-11744,-30937,-30959,-3888,30,-1,40892,2020-11-02 14:52:34,2020-11-02 14:53:04,3,D7:F2:3B:06:4D:C8,30,30,-13207.570527623964,-6327.819580224572,20141.85289684058
34463,-11282,-1801,-14347,-8707,14823,6423,-16349,-9971,-8501,30,-1,40918,2020-11-02 14:52:34,2020-11-02 14:53:04,3,D7:F2:3B:06:4D:C8,30,30,-17099.43379632392,3872.772045348496,-5382.799878307072
34464,31730,-22789,-28936,-18434,10980,32271,3617,-3062,9159,30,-1,40943,2020-11-02 14:52:34,2020-11-02 14:53:04,3,D7:F2:3B:06:4D:C8,30,30,36320.07443798323,14386.925099525519,-28936.0
34465,-24577,-259,-18940,13320,24552,25098,-10977,-27384,5571,30,-1,40969,2020-11-02 14:52:34,2020-11-02 14:53:04,3,D7:F2:3B:06:4D:C8,30,30,8484.931146559258,-16077.398749481406,25146.427239039793
34466,30208,-22785,5644,11024,29421,-9211,-21728,5639,-2881,30,-1,40995,2020-11-02 14:52:34,2020-11-02 14:53:04,3,D7:F2:3B:06:4D:C8,30,30,30208.0,23353.46036053104,-2372.09826716884
34467,7935,21504,8449,-5092,-4114,31229,29731,-12026,12477,30,-1,41020,2020-11-02 14:52:34,2020-11-02 14:53:04,3,D7:F2:3B:06:4D:C8,30,30,-18435.51369093354,6155.380994360253,14799.154089530604
34468,13304,12545,-26897,-480,-20498,1783,31783,6920,-30534,30,1,41046,2020-11-02 14:52:34,2020-11-02 14:53:04,3,D7:F2:3B:06:4D:C8,30,30,18666.833373990197,-15277.201783135966,-21816.93121098916
34469,6397,26366,5335,29474,22007,8692,21292,16394,-18107,30,1,41071,2020-11-02 14:52:34,2020-11-02 14:53:04,3,D7:F2:3B:06:4D:C8,30,30,250.73447394215418,27162.22713979127,-5167.2370789391225
34470,-1279,-7681,-28983,7446,11771,-3858,23857,26636,-3911,30,1,41097,2020-11-02 14:52:34,2020-11-02 14:53:04,3,D7:F2:3B:06:4D:C8,30,30,-17900.567719700157,-16913.770069656282,-17150.566997718415
34471,14578,-21502,19652,-12809,-1045,-22807,-30158,5648,25786,30,1,41122,2020-11-02 14:52:34,2020-11-02 14:53:04,3,D7:F2:3B:06:4D:C8,30,30,-28406.56183852448,5271.874711242706,-15044.26048508348
34472,24555,-10243,27126,29172,24057,9445,24369,23572,-28997,30,1,41174,2020-11-02 14:52:34,2020-11-02 14:53:04,3,D7:F2:3B:06:4D:C8,30,30,-28516.665345306843,-426.65727768171564,25105.8700536583
34473,-28950,-11266,3323,24315,-18948,-6173,14900,3096,4800,30,1,41176,2020-11-02 14:52:34,2020-11-02 14:53:04,3,D7:F2:3B:06:4D:C8,30,30,-28950.0,1666.7149111983658,-11627.000748464285
34474,2275,-26105,22510,-10755,9984,3818,-15559,-14054,-22330,30,1,41199,2020-11-02 14:52:34,2020-11-02 14:53:04,3,D7:F2:3B:06:4D:C8,30,30,18294.412751543106,-29040.715631367348,-3911.271876798261
34475,5095,21261,9718,-25858,24842,6900,6976,-10214,-18995,30,1,41225,2020-11-02 14:52:34,2020-11-02 14:53:04,3,D7:F2:3B:06:4D:C8,30,30,17019.562084796817,-917.3317567920603,16790.52348468408
34476,16877,12551,3326,-2309,-15094,3320,-31933,23833,-10031,30,1,41250,2020-11-02 14:52:34,2020-11-02 14:53:04,3,D7:F2:3B:06:4D:C8,30,30,-10955.40642547917,17748.43172403262,4288.968103159805
34477,-11023,-13052,-29700,-23562,-11776,23546,-30140,-14312,16084,30,1,41276,2020-11-02 14:52:34,2020-11-02 14:53:04,3,D7:F2:3B:06:4D:C8,30,30,-32363.2016423408,11174.14204797206,-1308.8017225434364
34478,-15624,-26618,7414,-25104,-23556,14073,22596,16409,10454,30,1,41302,2020-11-02 14:52:34,2020-11-02 14:53:04,3,D7:F2:3B:06:4D:C8,30,30,-23232.22552451973,10653.504123232095,18824.48520077324
34479,-10250,10756,20987,-14107,19961,28153,-958,6426,23512,30,1,41327,2020-11-02 14:52:34,2020-11-02 14:53:04,3,D7:F2:3B:06:4D:C8,30,30,216.7958033564646,-16204.439325902382,19964.40208753559
34480,-18700,-17411,-25589,14050,15613,-3848,-6080,-3046,-2342,30,1,41353,2020-11-02 14:52:34,2020-11-02 14:53:04,3,D7:F2:3B:06:4D:C8,30,30,-18700.0,-30939.604477719447,825.055611630456
34481,-28436,10493,-7171,-9505,27642,-1028,21054,-27109,9949,30,1,41378,2020-11-02 14:52:34,2020-11-02 14:53:04,3,D7:F2:3B:06:4D:C8,30,30,21440.63663897537,16038.52851331445,15912.167974321612
34482,13802,-519,-5628,-24098,8186,1286,-20938,27676,-23846,30,1,41404,2020-11-02 14:52:34,2020-11-02 14:53:04,3,D7:F2:3B:06:4D:C8,30,30,8901.548388088479,-9877.395765071626,6755.622709614896
34483,-5656,-28685,-10227,17130,-516,-27121,12590,25115,982,30,1,41429,2020-11-02 14:52:34,2020-11-02 14:53:04,3,D7:F2:3B:06:4D:C8,30,30,20215.93541703194,21236.556790501025,9986.776301600956
34484,-17944,29682,3353,4600,25339,17946,-10969,31768,28113,30,-1,41455,2020-11-02 14:52:34,2020-11-02 14:53:04,3,D7:F2:3B:06:4D:C8,30,30,3079.7411573518607,-25285.872812795762,-23777.945653458566
34485,-6167,-5133,-29431,-1276,4340,23836,-12252,-27628,-18739,30,-1,41481,2020-11-02 14:52:34,2020-11-02 14:53:04,3,D7:F2:3B:06:4D:C8,30,30,-20139.059494427005,22003.628000758592,-6389.207813505651
34486,-10265,-4360,10763,5645,2539,-231,-4062,-21488,32457,30,-1,41506,2020-11-02 14:52:34,2020-11-02 14:53:04,3,D7:F2:3B:06:4D:C8,30,30,-1729.104577171689,-9525.131603659593,-12103.88612364513
34487,24311,-28423,-32286,17423,-24853,30227,4131,14093,-27451,30,-1,41532,2020-11-02 14:52:34,2020-11-02 14:53:04,3,D7:F2:3B:06:4D:C8,30,30,47312.86712053922,-11295.90446739347,-8670.212978798107
34488,12281,7942,25594,-24565,31465,8972,-15582,-1782,-31295,30,-1,41557,2020-11-02 14:52:34,2020-11-02 14:53:04,3,D7:F2:3B:06:4D:C8,30,30,-15663.684492635244,17440.579425797117,-17872.502298437128
34489,-29964,19719,-28673,17166,22510,27402,3107,25097,5054,30,-1,41583,2020-11-02 14:52:34,2020-11-02 14:53:04,3,D7:F2:3B:06:4D:C8,30,30,41285.57540352149,19719.0,-3934.9064283844164
34490,-3071,17415,-1282,7188,7155,21509,-5084,14856,-19781,30,-1,41634,2020-11-02 14:52:34,2020-11-02 14:53:04,3,D7:F2:3B:06:4D:C8,30,30,2346.4608252442085,-17256.562537689933,3325.952642235105
34491,8191,17669,-19721,-18153,22773,3837,-19161,27144,-10823,30,-1,41636,2020-11-02 14:52:34,2020-11-02 14:53:04,3,D7:F2:3B:06:4D:C8,30,30,-26917.454679028302,4395.783564324787,-4932.707517993486
34492,-25860,18694,-21775,-10472,17141,21495,-470,-14071,10053,30,-1,41660,2020-11-02 14:52:34,2020-11-02 14:53:04,3,D7:F2:3B:06:4D:C8,30,30,781.9950110176742,35817.03409712775,-14452.834091898103
34493,-7434,28934,-1308,-26859,-29710,17138,10286,12300,6212,30,-1,41685,2020-11-02 14:52:34,2020-11-02 14:53:04,3,D7:F2:3B:06:4D:C8,30,30,-795.0424356983533,29732.884073063546,-3078.163124852693
34494,-24844,1026,-283,-16365,4347,-32271,26929,-15602,11588,30,1,41711,2020-11-02 14:52:34,2020-11-02 14:53:04,3,D7:F2:3B:06:4D:C8,30,30,-3721.704000885447,10258.276544910348,-22344.435160861318
34495,-8966,26105,-18194,-25581,17156,7151,-971,25872,-8775,30,1,41736,2020-11-02 14:52:34,2020-11-02 14:53:04,3,D7:F2:3B:06:4D:C8,30,30,32572.644256528252,-2413.3434674926684,5106.900865061671
34496,9720,4592,-5646,14105,26374,31721,27452,14609,13758,30,1,41762,2020-11-02 14:52:34,2020-11-02 14:53:04,3,D7:F2:3B:06:4D:C8,30,30,8216.474990949297,-472.8647536197259,-8927.940280259994
34497,20971,-22034,-19753,28956,11515,14564,-3516,14354,-5437,30,1,41788,2020-11-02 14:52:34,2020-11-02 14:53:04,3,D7:F2:3B:06:4D:C8,30,30,-26688.367381317814,-22034.0,-10848.727875645665
34498,7915,2315,2754,23313,-1292,-24084,1728,-8174,-24887,30,1,41813,2020-11-02 14:52:34,2020-11-02 14:53:04,3,D7:F2:3B:06:4D:C8,30,30,-3032.53900565382,-30.547094418491497,8148.235395115358
34499,7157,26883,15846,1020,-21248,-30991,2755,25874,12749,30,1,41839,2020-11-02 14:52:34,2020-11-02 14:53:04,3,D7:F2:3B:06:4D:C8,30,30,-17507.30028865063,-26345.645176191247,-4941.201357285952
34500,4853,20487,25587,22526,21766,30193,13252,-25072,-31793,30,1,41864,2020-11-02 14:52:34,2020-11-02 14:53:04,3,D7:F2:3B:06:4D:C8,30,30,31299.4025573787,-6268.148159764405,-8889.37934832335
34501,31220,29701,3315,29690,23294,-19977,-15932,-27633,10193,30,1,41890,2020-11-02 14:52:34,2020-11-02 14:53:04,3,D7:F2:3B:06:4D:C8,30,30,-14769.046493555841,-40298.51452323684,-5072.673741889492
34502,22777,20993,-31491,-7950,-28682,25848,19140,1040,4307,30,1,41916,2020-11-02 14:52:34,2020-11-02 14:53:04,3,D7:F2:3B:06:4D:C8,30,30,22777.0,-16338.902307319871,34138.38603964542
34503,18164,-11262,-9226,-27153,-27916,3320,-21053,-2544,-30763,30,1,41941,2020-11-02 14:52:34,2020-11-02 14:53:04,3,D7:F2:3B:06:4D:C8,30,30,-4290.396459404801,20211.213490227718,10722.964304405934
34504,-28430,-25344,-28158,-16913,-15112,3321,-24894,-9967,-16681,30,-1,41967,2020-11-02 14:52:34,2020-11-02 14:53:04,3,D7:F2:3B:06:4D:C8,30,30,40561.46212500683,-2387.511724793373,-24341.81131398424
34505,-20245,-6405,-1541,-18710,19968,30971,-30528,8210,3801,30,-1,41992,2020-11-02 14:52:34,2020-11-02 14:53:04,3,D7:F2:3B:06:4D:C8,30,30,-16474.485902386492,-339.15399063606765,13480.91316724147
34506,8939,24316,31742,-15638,1293,-26112,18365,8209,4569,30,-1,42018,2020-11-02 14:52:34,2020-11-02 14:53:04,3,D7:F2:3B:06:4D:C8,30,30,-18725.423648307587,-28552.088843172736,-22646.520105371023
34507,-20497,4346,-10229,-19218,-26347,21766,14918,21518,-5417,30,-1,42044,2020-11-02 14:52:34,2020-11-02 14:53:04,3,D7:F2:3B:06:4D:C8,30,30,21450.270035423844,7492.629227366017,-5233.8884845417315
34508,14310,-17924,-1017,-6669,-15346,1549,11587,-23797,24534,30,-1,42069,2020-11-02 14:52:34,2020-11-02 14:53:04,3,D7:F2:3B:06:4D:C8,30,30,20311.850178009463,10691.28083657044,-453.23439816340914
34509,19686,-25347,-2063,6383,5638,-25069,-3521,-19959,-11309,30,-1,42095,2020-11-02 14:52:34,2020-11-02 14:53:04,3,D7:F2:3B:06:4D:C8,30,30,-31701.414002359248,2459.4010536989454,4820.442999153265
34510,-4632,26620,-29960,-22807,21244,-28651,30267,-22008,-31792,30,-1,42120,2020-11-02 14:52:34,2020-11-02 14:53:04,3,D7:F2:3B:06:4D:C8,30,30,22971.18270143266,2994.198246277386,33030.909254202954
34511,25078,31992,12787,-1813,-26374,-8688,10295,-11257,21197,30,-1,42146,2020-11-02 14:52:34,2020-11-02 14:53:04,3,D7:F2:3B:06:4D:C8,30,30,13846.425743498934,-8565.18572437235,39380.39619705188
34512,16112,-23035,-3588,-26388,-18953,5390,22579,7431,-7990,30,-1,42172,2020-11-02 14:52:34,2020-11-02 14:53:04,3,D7:F2:3B:06:4D:C8,30,30,24455.92442337754,5056.1785680214825,-13394.936800385662
34513,-17424,7435,-13824,14580,32754,16910,11312,-32762,2248,30,-1,42197,2020-11-02 14:52:34,2020-11-02 14:53:04,3,D7:F2:3B:06:4D:C8,30,30,-6105.515489447418,15649.642538113982,16364.270409565197
34514,22522,-8434,7171,13317,-20752,-4082,-7634,-20219,-12860,30,-1,42223,2020-11-02 14:52:34,2020-11-02 14:53:04,3,D7:F2:3B:06:4D:C8,30,30,11266.267799261506,21067.346343839923,-7683.372235159364
34515,-10755,-17397,8440,17434,18159,-13046,-16848,28933,-30015,30,-1,42248,2020-11-02 14:52:34,2020-11-02 14:53:04,3,D7:F2:3B:06:4D:C8,30,30,-18514.52982910313,-10011.3988921182,-6822.265857480557
34516,-7674,-9990,23771,-25048,17652,-10232,-22987,-20987,-9282,30,-1,42274,2020-11-02 14:52:34,2020-11-02 14:53:04,3,D7:F2:3B:06:4D:C8,30,30,-3777.3348505636422,-15327.594527988933,21784.108988257496
34517,-30691,-5912,14547,14887,18942,7936,-7109,-21243,-10563,30,-1,42300,2020-11-02 14:52:34,2020-11-02 14:53:04,3,D7:F2:3B:06:4D:C8,30,30,23050.328061424803,-19155.148808137776,-17037.22642916946
34518,-4328,-30232,-4662,28176,15081,13032,-15040,-24569,31679,30,-1,42325,2020-11-02 14:52:34,2020-11-02 14:53:04,3,D7:F2:3B:06:4D:C8,30,30,15119.545163032364,-21704.311098116534,-15961.262037169869
34519,-3857,-8963,-13610,19185,8911,-7716,31810,-32498,-16957,30,-1,42351,2020-11-02 14:52:34,2020-11-02 14:53:04,3,D7:F2:3B:06:4D:C8,30,30,-15612.956398636907,3356.0328840608636,5041.483291191695
34520,32504,17644,15078,-2055,-23077,-13079,5956,-13291,-23096,30,-1,42376,2020-11-02 14:52:34,2020-11-02 14:53:04,3,D7:F2:3B:06:4D:C8,30,30,24895.272653787768,-23998.090612185228,19987.09289673999
34521,-18456,26368,-15910,1032,3329,-19479,13503,25111,-3888,30,-1,42427,2020-11-02 14:52:34,2020-11-02 14:53:04,3,D7:F2:3B:06:4D:C8,30,30,-11092.429027802973,3493.9622747215453,-33967.24460249869
34522,19433,4618,-27403,-13570,-27893,-272,-28222,-1260,-16684,30,-1,42429,2020-11-02 14:52:34,2020-11-02 14:53:04,3,D7:F2:3B:06:4D:C8,30,30,8025.889444988225,-25044.553994294627,21406.71006585757
34523,-22290,-30966,21505,-7431,-15615,24054,23235,-27629,-24874,30,-1,42453,2020-11-02 14:52:34,2020-11-02 14:53:04,3,D7:F2:3B:06:4D:C8,30,30,-41797.992915844094,-7470.340919466504,10738.904774416786
34524,12022,16391,-31232,-26382,-26117,-15624,4035,27667,24792,30,-1,42479,2020-11-02 14:52:34,2020-11-02 14:53:04,3,D7:F2:3B:06:4D:C8,30,30,2091.330618097947,-22654.968697077624,29512.877165404243
34525,-15629,15877,-16128,-31507,-26889,251,1730,8724,21722,30,-1,42504,2020-11-02 14:52:34,2020-11-02 14:53:04,3,D7:F2:3B:06:4D:C8,30,30,19554.74493355526,-18824.956579598766,4437.354432521255
34526,-22032,32259,-9988,8174,-9226,3581,-30784,26389,-4901,30,1,42530,2020-11-02 14:52:34,2020-11-02 14:53:04,3,D7:F2:3B:06:4D:C8,30,30,-6865.618963868652,18728.394096193642,-35041.72912144357
34527,19195,-24576,31240,-18966,19182,-18179,-20802,32279,-31523,30,1,42555,2020-11-02 14:52:34,2020-11-02 14:53:04,3,D7:F2:3B:06:4D:C8,30,30,-18544.4806553641,38623.02607907352,10617.414690876176
34528,17147,-22021,-17166,-1824,30958,9979,11709,4122,12256,30,1,42581,2020-11-02 14:52:34,2020-11-02 14:53:04,3,D7:F2:3B:06:4D:C8,30,30,-29661.666878734177,5282.530248070814,-12880.06203996009
34529,-11020,-22794,-8197,-29220,15859,13318,4420,30492,-13089,30,1,42606,2020-11-02 14:52:34,2020-11-02 14:53:04,3,D7:F2:3B:06:4D:C8,30,30,-22696.708240110067,5180.723270043264,-12892.524441029851
34530,-1809,10744,1537,-28702,14335,-5879,5179,-24292,27611,30,1,42632,2020-11-02 14:52:34,2020-11-02 14:53:04,3,D7:F2:3B:06:4D:C8,30,30,6597.8689776382025,-8797.938372611416,364.40546874467043
34531,-29973,28658,25103,14827,4859,27411,-16080,-32485,-24108,30,1,42658,2020-11-02 14:52:34,2020-11-02 14:53:04,3,D7:F2:3B:06:4D:C8,30,30,20189.40138079207,-40051.71284775136,18386.698231236056
34532,-28183,-8973,-18924,-2825,-1801,17942,24873,1049,-12082,30,1,42683,2020-11-02 14:52:34,2020-11-02 14:53:04,3,D7:F2:3B:06:4D:C8,30,30,4038.714212836194,29145.91098000644,19160.340671621034
34533,15077,25334,31758,-508,-1810,22037,-30684,12822,20425,30,1,42709,2020-11-02 14:52:34,2020-11-02 14:53:04,3,D7:F2:3B:06:4D:C8,30,30,-20483.393091889433,26422.25673050184,-27567.97064911718
34534,-10253,4082,5350,2071,20716,-14571,-21470,5907,-3389,30,1,42734,2020-11-02 14:52:34,2020-11-02 14:53:04,3,D7:F2:3B:06:4D:C8,30,30,-10481.267770563358,-3286.1573280027287,5454.670378433859
34535,29670,19710,8967,-5106,21224,-24557,-29407,9232,16319,30,1,42760,2020-11-02 14:52:34,2020-11-02 14:53:04,3,D7:F2:3B:06:4D:C8,30,30,-11445.428981369765,32236.197031814016,-13380.203487185328
34536,-3335,-15102,20734,-18917,-27400,31247,-15069,29197,-11588,30,1,42786,2020-11-02 14:52:34,2020-11-02 14:53:04,3,D7:F2:3B:06:4D:C8,30,30,25288.3162606474,-5150.63742058531,-1750.2513714158267
34537,28675,519,25603,19994,4344,-5112,10023,-19701,24763,30,1,42811,2020-11-02 14:52:34,2020-11-02 14:53:04,3,D7:F2:3B:06:4D:C8,30,30,3779.4914625161236,36907.104310518334,-10080.659239220751
34538,8448,30984,-5905,17434,17396,-9474,16426,-23029,3142,30,1,42837,2020-11-02 14:52:34,2020-11-02 14:53:04,3,D7:F2:3B:06:4D:C8,30,30,17659.6499577905,-7524.49227817101,-26415.237351272368
34539,19195,-27384,9950,-32234,-23815,16374,-27603,-756,8773,30,1,42862,2020-11-02 14:52:34,2020-11-02 14:53:04,3,D7:F2:3B:06:4D:C8,30,30,1645.7284853623169,21754.533947127107,-27228.033559105246
34540,16630,-17661,-6960,-17136,-24065,-11279,15921,-12530,2374,30,1,42888,2020-11-02 14:52:34,2020-11-02 14:53:04,3,D7:F2:3B:06:4D:C8,30,30,5048.305418585558,13678.279370965825,20599.240443533115
34541,-14354,19198,-32546,8453,-6653,-19218,-22476,16656,9148,30,1,42914,2020-11-02 14:52:34,2020-11-02 14:53:04,3,D7:F2:3B:06:4D:C8,30,30,37583.7625146154,14856.271825474472,771.1152265409837
34542,-9237,11512,2046,24071,-5631,3051,-8649,-4079,-23105,30,1,42939,2020-11-02 14:52:34,2020-11-02 14:53:04,3,D7:F2:3B:06:4D:C8,30,30,27.476027597618213,-12181.567221290801,-8581.555459302292
34543,16620,21756,748,19476,-11007,30444,-29635,23315,5572,30,1,42965,2020-11-02 14:52:34,2020-11-02 14:53:04,3,D7:F2:3B:06:4D:C8,30,30,-26812.818285606103,5454.079149489923,-1197.1784387325447
34544,9472,4105,-14388,27402,20226,-18958,8771,-28653,-6713,30,1,42990,2020-11-02 14:52:34,2020-11-02 14:53:04,3,D7:F2:3B:06:4D:C8,30,30,11267.763820658154,8964.479928454693,-10308.24675171293
34545,-21244,3586,17127,10492,-14843,9456,-20155,-10734,6603,30,-1,43016,2020-11-02 14:52:34,2020-11-02 14:53:04,3,D7:F2:3B:06:4D:C8,30,30,2690.745415878331,2093.3345423749633,-27310.78359550728
34546,-23305,12288,-12036,-5130,-27904,15597,-3654,13074,16335,30,-1,43041,2020-11-02 14:52:34,2020-11-02 14:53:04,3,D7:F2:3B:06:4D:C8,30,30,-10654.927071957625,-6246.598561272867,26199.919856853918
34547,29423,26623,-24581,-20745,17406,-12306,31420,15378,14803,30,-1,43067,2020-11-02 14:52:34,2020-11-02 14:53:04,3,D7:F2:3B:06:4D:C8,30,30,31960.652947362527,-31340.76510352319,-13228.59497089656
34548,-22551,-23804,-21005,-4358,18691,-18446,-9539,-14831,29654,30,-1,43093,2020-11-02 14:52:34,2020-11-02 14:53:04,3,D7:F2:3B:06:4D:C8,30,30,-28859.3144608665,-10091.429470722793,-24118.272369434955
34549,-5652,10756,2037,32503,23041,-31498,16574,7697,-31272,30,-1,43118,2020-11-02 14:52:34,2020-11-02 14:53:04,3,D7:F2:3B:06:4D:C8,30,30,7334.310060469884,2484.411947242179,9582.358906516212
34550,499,23046,20983,-14865,25590,-28681,-25411,-26095,-30758,30,-1,43144,2020-11-02 14:52:34,2020-11-02 14:53:04,3,D7:F2:3B:06:4D:C8,30,30,30380.149658152215,-6386.451078805148,-2813.033125702952
34551,-19973,-11519,3309,4070,-26641,23798,3516,-30701,-4388,30,-1,43169,2020-11-02 14:52:34,2020-11-02 14:53:04,3,D7:F2:3B:06:4D:C8,30,30,-2492.504405396692,-11519.0,20091.232709544678
34552,-11278,-20740,10223,-11820,-9497,23030,-30651,-26346,-10785,30,-1,43195,2020-11-02 14:52:34,2020-11-02 14:53:04,3,D7:F2:3B:06:4D:C8,30,30,-16163.032015879871,-3859.9023099737597,19639.454249319184
34553,-26893,30966,2312,26575,-2834,-24833,4926,-487,-13345,30,-1,43221,2020-11-02 14:52:34,2020-11-02 14:53:04,3,D7:F2:3B:06:4D:C8,30,30,39348.74099434636,11567.332759104247,2312.0
34554,-30231,14587,-6640,-26144,20473,24324,21814,-4838,-23587,30,-1,43246,2020-11-02 14:52:34,2020-11-02 14:53:04,3,D7:F2:3B:06:4D:C8,30,30,29980.148858842185,-14052.103437567645,8632.06773499624
34555,-7196,-1036,-6637,23787,-32266,31248,-15316,31770,-27433,30,-1,43272,2020-11-02 14:52:34,2020-11-02 14:53:04,3,D7:F2:3B:06:4D:C8,30,30,7896.91539644942,-569.9227624942102,-5849.7347175843015
34556,-28962,6387,-5361,-8196,756,24855,-3291,-745,-13615,30,-1,43297,2020-11-02 14:52:34,2020-11-02 14:53:04,3,D7:F2:3B:06:4D:C8,30,30,17860.12734521397,23677.142230698795,-5361.0
34557,5865,12517,27883,-6129,-14092,3868,-14557,16148,-22323,30,-1,43323,2020-11-02 14:52:34,2020-11-02 14:53:04,3,D7:F2:3B:06:4D:C8,30,30,25950.27355527949,-16649.54779197231,4232.146468282001
34558,-18200,28670,13054,-21753,-26637,7448,6179,-15088,-26678,30,1,43348,2020-11-02 14:52:34,2020-11-02 14:53:04,3,D7:F2:3B:06:4D:C8,30,30,10170.199553192235,-18668.792723885465,-29523.87229482017
34559,-12812,-1535,-21233,-32501,-19725,26898,10787,-27379,30408,30,1,43374,2020-11-02 14:52:34,2020-11-02 14:53:04,3,D7:F2:3B:06:4D:C8,30,30,15973.176422944287,6065.393463251467,18039.193305063374
34560,-9487,30475,-16891,-13041,6636,18439,-24029,-6133,19653,30,1,43400,2020-11-02 14:52:34,2020-11-02 14:53:04,3,D7:F2:3B:06:4D:C8,30,30,34492.21800793061,2292.0338508447167,10443.569922204217
34561,31213,25614,-8709,-26861,-21778,6658,-23516,-31989,-8255,30,1,43425,2020-11-02 14:52:34,2020-11-02 14:53:04,3,D7:F2:3B:06:4D:C8,30,30,9234.456430251688,-33170.24881264739,-22817.415588642976
34562,-23056,27912,-25864,-23528,-3594,8449,4391,-27893,-19009,30,1,43451,2020-11-02 14:52:34,2020-11-02 14:53:04,3,D7:F2:3B:06:4D:C8,30,30,8397.40496501658,-26997.13203426603,34354.67694183605
34563,4088,-13319,27638,-1250,-25604,31229,4907,-6389,-5954,30,1,43476,2020-11-02 14:52:34,2020-11-02 14:53:04,3,D7:F2:3B:06:4D:C8,30,30,-22579.73732186283,10514.842781955515,18372.808515478326
34564,11257,32494,-8721,-4580,6650,-2059,-11217,11277,-11074,30,1,43502,2020-11-02 14:52:34,2020-11-02 14:53:04,3,D7:F2:3B:06:4D:C8,30,30,-2689.1792966860485,23099.995842925488,-26791.685888855533
34565,24323,26609,-11278,15639,16634,12785,12852,29711,-29505,30,1,43528,2020-11-02 14:52:34,2020-11-02 14:53:04,3,D7:F2:3B:06:4D:C8,30,30,-5116.339882482418,-20180.262290986677,31518.575064141158
34566,26899,25334,23017,-7400,-776,-19987,25913,-20975,-25919,30,1,43553,2020-11-02 14:52:34,2020-11-02 14:53:04,3,D7:F2:3B:06:4D:C8,30,30,13599.29773583878,-17061.12879940279,37671.302488528294
34567,-19455,24315,19160,-12016,4343,4330,-26817,6420,21701,30,1,43579,2020-11-02 14:52:34,2020-11-02 14:53:04,3,D7:F2:3B:06:4D:C8,30,30,9799.007973776426,29304.105300577023,19546.628999972334
34568,20983,-14082,6886,-2046,-6143,21234,8772,-2540,31177,30,1,43604,2020-11-02 14:52:34,2020-11-02 14:53:04,3,D7:F2:3B:06:4D:C8,30,30,-6900.28853827751,-23923.005740107463,-8129.072729856788
34569,-1288,-22281,1281,16900,-14066,28658,26810,21779,-19764,30,1,43630,2020-11-02 14:52:34,2020-11-02 14:53:04,3,D7:F2:3B:06:4D:C8,30,30,-1309.1071227615764,-15876.927122823066,-15682.866118082498
34570,10482,-5127,29435,-30709,-19455,24047,21950,-17647,5840,30,1,43655,2020-11-02 14:52:34,2020-11-02 14:53:04,3,D7:F2:3B:06:4D:C8,30,30,-4105.409401275197,-4687.669794473283,31044.307747893236
34571,6641,-31229,20707,11268,13043,9715,11714,20242,-16173,30,1,43681,2020-11-02 14:52:34,2020-11-02 14:53:04,3,D7:F2:3B:06:4D:C8,30,30,-394.24791666617966,13155.173034632866,35706.01016648419
34572,-8716,30726,-13344,1276,11002,6391,1220,-2030,-22570,30,1,43707,2020-11-02 14:52:34,2020-11-02 14:53:04,3,D7:F2:3B:06:4D:C8,30,30,12964.827968016962,-29188.507460295485,-13344.0
34573,-22281,-25083,7910,1529,30466,-25863,2756,24338,-1321,30,1,43732,2020-11-02 14:52:34,2020-11-02 14:53:04,3,D7:F2:3B:06:4D:C8,30,30,8577.525778576426,-25083.0,-22032.637438987116
34574,1274,-26110,5098,2036,-6146,5370,12739,-13807,-1832,30,1,43758,2020-11-02 14:52:34,2020-11-02 14:53:04,3,D7:F2:3B:06:4D:C8,30,30,22987.235961153307,6229.995620288562,11921.363908439576
34575,-17925,22528,-5911,28910,1016,-17929,7106,-1775,-16166,30,1,43784,2020-11-02 14:52:34,2020-11-02 14:53:04,3,D7:F2:3B:06:4D:C8,30,30,23050.123277465922,9163.958755662852,15762.931415765719
34576,23030,-16126,-16153,8680,-25104,9462,-5184,11027,-24355,30,-1,43809,2020-11-02 14:52:34,2020-11-02 14:53:04,3,D7:F2:3B:06:4D:C8,30,30,12955.311156002925,9671.00112029603,-28106.579926813916
34577,-6168,26623,17638,-16415,2541,-5386,25535,26645,10209,30,-1,43835,2020-11-02 14:52:34,2020-11-02 14:53:04,3,D7:F2:3B:06:4D:C8,30,30,18542.12483137621,21375.419299241257,16037.719710709684
34578,21073,-560,-31738,20186,11001,19710,24251,6679,-7198,30,-1,43860,2020-11-02 14:52:34,2020-11-02 14:53:04,3,D7:F2:3B:06:4D:C8,30,30,-4127.317792929524,-37350.088610380335,-6294.577160771356
34579,22216,31707,230,16082,17112,-22559,2752,15897,751,30,-1,43886,2020-11-02 14:52:34,2020-11-02 14:53:04,3,D7:F2:3B:06:4D:C8,30,30,-9035.97971256141,31707.0,-20296.665406765187
34580,-5399,1996,24851,3531,-24611,-233,-2235,10018,-18447,30,-1,43911,2020-11-02 14:52:34,2020-11-02 14:53:04,3,D7:F2:3B:06:4D:C8,30,30,-17532.549706603342,-4515.3812491066055,17970.154450106973
34581,19184,-13081,-5022,-2804,-32229,-18400,-15057,5662,22237,30,-1,43937,2020-11-02 14:52:34,2020-11-02 14:53:04,3,D7:F2:3B:06:4D:C8,30,30,-19115.795954744415,1838.8989755994621,13984.409053446492
34582,6892,-26905,-5101,-23779,-6662,-14574,29487,-24550,-14376,30,-1,43962,2020-11-02 14:52:34,2020-11-02 14:53:04,3,D7:F2:3B:06:4D:C8,30,30,-17182.518866637147,-7450.774809676746,-21133.99844168502
34583,6373,11250,9716,-13293,26865,31746,9262,-13542,17363,30,-1,43988,2020-11-02 14:52:34,2020-11-02 14:53:04,3,D7:F2:3B:06:4D:C8,30,30,16168.959788709075,-186.2969557432707,-329.11668962513613
34584,10724,245,-11532,24845,7677,12544,-16339,-27109,19152,30,-1,44014,2020-11-02 14:52:34,2020-11-02 14:53:04,3,D7:F2:3B:06:4D:C8,30,30,5005.058451300611,9981.550411799066,-11107.171839661896
34585,-10232,-16152,10765,17939,32008,15365,-16080,-18918,-1584,30,-1,44039,2020-11-02 14:52:34,2020-11-02 14:53:04,3,D7:F2:3B:06:4D:C8,30,30,8689.169945471516,16510.19050368791,-11548.94316336556
34586,-10269,14077,28416,-21733,-16637,29703,-3531,-15847,23762,30,-1,44065,2020-11-02 14:52:34,2020-11-02 14:53:04,3,D7:F2:3B:06:4D:C8,30,30,24749.453560644328,7119.243672959059,-21162.80378339652
34587,-27672,14846,-25354,-15842,-2561,-8180,-5321,29208,-32049,30,1,44090,2020-11-02 14:52:34,2020-11-02 14:53:04,3,D7:F2:3B:06:4D:C8,30,30,-9566.240482602614,19998.082489223925,-33727.323578713
34588,-15881,-20992,-4382,22807,27900,-1533,-26567,3608,-19508,30,1,44116,2020-11-02 14:52:34,2020-11-02 14:53:04,3,D7:F2:3B:06:4D:C8,30,30,18126.416442012032,-14625.964781487535,-13022.53163487968
34589,-1030,-20213,17104,-30203,-4101,-22534,11580,28184,14541,30,1,44142,2020-11-02 14:52:34,2020-11-02 14:53:04,3,D7:F2:3B:06:4D:C8,30,30,-1817.0133731623282,21130.16847366398,15886.7091518768
34590,25041,-17890,12490,10225,-22806,-8959,-198,19226,-3636,30,1,44167,2020-11-02 14:52:34,2020-11-02 14:53:04,3,D7:F2:3B:06:4D:C8,30,30,-23027.81320670401,-17890.0,-15898.792404366699
34591,-23056,18959,11759,19689,-8972,-29938,-4817,-16102,-24636,30,1,44193,2020-11-02 14:52:34,2020-11-02 14:53:04,3,D7:F2:3B:06:4D:C8,30,30,-13630.683198650791,-13223.207060583729,-25858.232123850765
34592,8179,-6396,15874,-27407,25855,-12785,-14295,-4584,-4160,30,1,44218,2020-11-02 14:52:34,2020-11-02 14:53:04,3,D7:F2:3B:06:4D:C8,30,30,8179.0,17095.862519986393,-790.0485413722781
34593,19191,7424,19969,20728,-24827,26898,-4569,14614,-27712,30,1,44244,2020-11-02 14:52:34,2020-11-02 14:53:04,3,D7:F2:3B:06:4D:C8,30,30,-12267.028909608769,2845.156029136031,-25760.363097221543
34594,26104,8194,-11267,10235,-3071,11539,6951,17171,-21568,30,1,44270,2020-11-02 14:52:34,2020-11-02 14:53:04,3,D7:F2:3B:06:4D:C8,30,30,11990.250385744523,-12339.514179134556,-24072.308292103826
34595,23285,-16387,25331,-32005,5375,-12783,2598,-32240,4544,30,1,44295,2020-11-02 14:52:34,2020-11-02 14:53:04,3,D7:F2:3B:06:4D:C8,30,30,30895.584790003184,-16387.0,-15143.104915562195
34596,-27654,8444,-1296,7673,-16386,-19699,-3804,14862,-25409,30,1,44321,2020-11-02 14:52:34,2020-11-02 14:53:04,3,D7:F2:3B:06:4D:C8,30,30,-13142.366539541476,2298.1571967178293,25685.0373416025
34597,-9718,-12538,760,29943,-7940,-8443,-31965,-13812,10943,30,1,44346,2020-11-02 14:52:34,2020-11-02 14:53:04,3,D7:F2:3B:06:4D:C8,30,30,11591.960017574133,10122.035427875155,-3922.936368054291
34598,30229,22539,-12297,760,9211,-14088,-4575,-9204,29118,30,1,44372,2020-11-02 14:52:34,2020-11-02 14:53:04,3,D7:F2:3B:06:4D:C8,30,30,29181.405468391073,-19190.989675053388,18792.72894449739
34599,-13825,30219,-3857,-8206,-31499,-29722,20511,23311,-26436,30,1,44397,2020-11-02 14:52:34,2020-11-02 14:53:04,3,D7:F2:3B:06:4D:C8,30,30,20320.731483627664,21408.459661706107,-15746.134823613245
34600,21457,4100,-32545,-14370,28407,7653,27161,11283,-16571,30,1,44423,2020-11-02 14:52:34,2020-11-02 14:53:04,3,D7:F2:3B:06:4D:C8,30,30,-36020.15120186278,-13079.409161318668,-8238.181679579337
34601,12478,12267,-31997,10435,30709,-13072,8206,6421,18497,30,1,44449,2020-11-02 14:52:34,2020-11-02 14:53:04,3,D7:F2:3B:06:4D:C8,30,30,-5606.542932502494,-33092.4125340944,-14263.474016498158
34602,-15663,-11274,5205,-4658,8947,32013,-1789,1555,3904,30,1,44474,2020-11-02 14:52:34,2020-11-02 14:53:04,3,D7:F2:3B:06:4D:C8,30,30,-15663.0,-11274.0,5205.0
34603,-28700,-26910,29756,-19967,14077,-25066,11268,22801,14916,30,1,44500,2020-11-02 14:52:34,2020-11-02 14:53:04,3,D7:F2:3B:06:4D:C8,30,30,24550.240553946416,41463.42972198888,10551.176258268708
34604,9202,21972,3851,6662,-25606,-32492,-9209,2320,32699,30,1,44527,2020-11-02 14:52:34,2020-11-02 14:53:04,3,D7:F2:3B:06:4D:C8,30,30,17101.548986217073,-4537.310562183535,-16408.096298300894
34605,31732,16093,-11506,20990,-22298,16402,-15608,24332,10941,30,1,44551,2020-11-02 14:52:34,2020-11-02 14:53:04,3,D7:F2:3B:06:4D:C8,30,30,7258.221342686838,-20454.927644010942,30450.06842387784
34606,7924,-8739,1555,24843,28651,-23539,-18679,14600,-3139,30,1,44577,2020-11-02 14:52:34,2020-11-02 14:53:04,3,D7:F2:3B:06:4D:C8,30,30,-3575.965840929017,8870.986040324386,-7077.852568179044
34607,-19215,-28201,-29937,-16870,-23061,30731,-16372,-18172,8382,30,-1,44602,2020-11-02 14:52:34,2020-11-02 14:53:04,3,D7:F2:3B:06:4D:C8,30,30,20403.80423133524,3115.5319765848544,-40431.60679953523
34608,18670,-31023,-25341,3108,-26647,28678,23569,29441,4797,30,-1,44628,2020-11-02 14:52:34,2020-11-02 14:53:04,3,D7:F2:3B:06:4D:C8,30,30,-33101.528652363515,1099.8540164536244,29261.593121688515
34609,-7957,-20274,-21000,-5338,7656,29187,23,-7938,-21830,30,-1,44653,2020-11-02 14:52:34,2020-11-02 14:53:04,3,D7:F2:3B:06:4D:C8,30,30,-16098.954890999967,18184.092725797884,-18041.933049347368
34610,14838,-1069,23537,-11482,-5650,-7932,5917,8957,-20924,30,-1,44679,2020-11-02 14:52:34,2020-11-02 14:53:04,3,D7:F2:3B:06:4D:C8,30,30,-20657.885156456192,17644.623443714423,-6100.68999312294
34611,20232,-26153,28385,-22491,30713,2310,20003,-4869,7491,30,-1,44705,2020-11-02 14:52:34,2020-11-02 14:53:04,3,D7:F2:3B:06:4D:C8,30,30,-7484.686268044452,28849.471565399377,-31791.648586793348
34612,-3563,-17180,-3138,-24560,-6920,2045,-3033,-24581,22594,30,-1,44730,2020-11-02 14:52:34,2020-11-02 14:53:04,3,D7:F2:3B:06:4D:C8,30,30,2469.8962630052,17001.591706255862,4747.620973052162
34613,21001,15597,1529,-30461,-5149,-29722,6441,-16642,-18881,30,-1,44756,2020-11-02 14:52:34,2020-11-02 14:53:04,3,D7:F2:3B:06:4D:C8,30,30,22217.952273758703,-4045.5744247160255,13290.68001778179
34614,-771,-19718,-6949,3092,25843,12268,16683,15107,-15043,30,-1,44781,2020-11-02 14:52:34,2020-11-02 14:53:04,3,D7:F2:3B:06:4D:C8,30,30,18763.673056069696,6097.531598914073,6958.968878014084
34615,17940,30454,10717,-14306,29700,-20750,-19153,9477,-15810,30,-1,44807,2020-11-02 14:52:34,2020-11-02 14:53:04,3,D7:F2:3B:06:4D:C8,30,30,-24852.921054011495,14509.665029963246,-23150.501955710024
34616,28436,-13588,-28266,21790,-19462,-27671,-8139,-8186,-10432,30,-1,44858,2020-11-02 14:52:34,2020-11-02 14:53:04,3,D7:F2:3B:06:4D:C8,30,30,-16145.877873687445,-32463.97182327998,21854.238882771788
34617,25500,-25321,128,-28449,-21533,-16915,22070,-8949,6722,30,-1,44860,2020-11-02 14:52:34,2020-11-02 14:53:04,3,D7:F2:3B:06:4D:C8,30,30,-11952.121665456101,27747.74953611229,19458.381442846556
34618,-13651,-19981,-16385,20218,3856,-11536,12082,9486,-7359,30,-1,44883,2020-11-02 14:52:34,2020-11-02 14:53:04,3,D7:F2:3B:06:4D:C8,30,30,10388.395759563733,26785.624477317957,5354.431986941617
34619,-5672,-3596,13309,8189,-9724,17375,-14539,-4082,-22086,30,-1,44909,2020-11-02 14:52:34,2020-11-02 14:53:04,3,D7:F2:3B:06:4D:C8,30,30,7534.230137111948,-12661.78572384823,-2268.6647007407673
34620,28108,-29707,14309,19198,-10253,20954,10039,7700,-19267,30,-1,44935,2020-11-02 14:52:34,2020-11-02 14:53:04,3,D7:F2:3B:06:4D:C8,30,30,-4615.321404834696,27717.437073936224,-32981.13831241215
34621,18649,-7684,-3868,-3350,26865,12002,18234,27672,31171,30,-1,44960,2020-11-02 14:52:34,2020-11-02 14:53:04,3,D7:F2:3B:06:4D:C8,30,30,3771.0105685146978,15993.816565590676,12319.40712690297
34622,2532,1783,-6385,-14118,18409,5353,3641,24349,-20793,30,-1,44986,2020-11-02 14:52:34,2020-11-02 14:53:04,3,D7:F2:3B:06:4D:C8,30,30,-2893.7458878105112,-2213.517224156748,6089.738437333837
34623,28408,23538,-21739,29919,-13585,7921,5686,28449,-7479,30,-1,45012,2020-11-02 14:52:34,2020-11-02 14:53:04,3,D7:F2:3B:06:4D:C8,30,30,18662.951776859463,14498.675100630771,35708.80396066168
34624,30964,-23308,8966,31969,-15110,9966,4824,-16351,1021,30,-1,45037,2020-11-02 14:52:34,2020-11-02 14:53:04,3,D7:F2:3B:06:4D:C8,30,30,-21038.331375764777,-23308.0,24424.31298774873
34625,25329,-15366,-18168,-29219,5105,18936,-17180,-24033,-4082,30,1,45063,2020-11-02 14:52:34,2020-11-02 14:53:04,3,D7:F2:3B:06:4D:C8,30,30,-260.0473756825186,-10125.603360185596,-33243.84082735626
34626,30416,-27652,31239,-23590,-11795,28412,30694,-6883,-8171,30,1,45088,2020-11-02 14:52:34,2020-11-02 14:53:04,3,D7:F2:3B:06:4D:C8,30,30,11401.519096503907,23168.43927071165,44708.72470839895
34627,21208,3064,1579,-1806,20999,2319,-24342,-28130,18462,30,1,45114,2020-11-02 14:52:34,2020-11-02 14:53:04,3,D7:F2:3B:06:4D:C8,30,30,13210.950063235414,1346.9049710921213,-16891.336431009462
34628,16611,25326,31263,27649,16388,-17636,-29185,31009,-20941,30,1,45139,2020-11-02 14:52:34,2020-11-02 14:53:04,3,D7:F2:3B:06:4D:C8,30,30,23592.30651394341,26388.24805729222,25333.183846862914
34629,-24850,-4626,-12005,-23285,-20228,12571,-23015,29470,12992,30,1,45165,2020-11-02 14:52:34,2020-11-02 14:53:04,3,D7:F2:3B:06:4D:C8,30,30,-6343.120303012554,-15238.33853773227,-22596.465750886207
34630,13048,-4882,-241,9744,-14858,-8425,-29924,30234,-6720,30,1,45191,2020-11-02 14:52:34,2020-11-02 14:53:04,3,D7:F2:3B:06:4D:C8,30,30,3489.87300357397,-7570.511670938126,11164.696523377392
34631,-30734,18166,-24563,30736,-29711,-2799,-19684,5911,23742,30,1,45216,2020-11-02 14:52:34,2020-11-02 14:53:04,3,D7:F2:3B:06:4D:C8,30,30,-17344.60155660797,12734.916164342721,37615.28928680032
34632,22257,16630,-24826,-6893,21234,6929,25373,2068,-12357,30,1,45242,2020-11-02 14:52:34,2020-11-02 14:53:04,3,D7:F2:3B:06:4D:C8,30,30,-36230.55256286003,-7895.95346120697,3641.7310345891838
34633,32758,-26637,29446,8215,12789,22286,14367,26385,-9287,30,1,45267,2020-11-02 14:52:34,2020-11-02 14:53:04,3,D7:F2:3B:06:4D:C8,30,30,-9857.2602680954,-13688.02272279347,48632.86648910711
34634,-19206,-26894,-11517,6936,-16906,12297,-19679,-28657,-14780,30,1,45293,2020-11-02 14:52:34,2020-11-02 14:53:04,3,D7:F2:3B:06:4D:C8,30,30,18934.804457242506,-18700.635008785495,22727.92096594353
34635,-26117,31731,-8191,32281,18423,-511,22052,-6642,-958,30,1,45319,2020-11-02 14:52:34,2020-11-02 14:53:04,3,D7:F2:3B:06:4D:C8,30,30,-24702.592785029356,-30257.53792361036,-15175.962555907168
34636,-31490,7166,-26889,-4326,5111,19706,28199,-30193,25921,30,1,45344,2020-11-02 14:52:34,2020-11-02 14:53:04,3,D7:F2:3B:06:4D:C8,30,30,-20724.030689664498,14303.932672538442,33643.75185786108
34637,31997,-28933,-19992,20502,-23565,31983,27434,-17391,6976,30,-1,45370,2020-11-02 14:52:34,2020-11-02 14:53:04,3,D7:F2:3B:06:4D:C8,30,30,-22963.31344146141,-28763.687311712005,-30098.88851807082
34638,15846,-7936,10206,-499,-28944,-28183,-2517,-28139,-26050,30,-1,45395,2020-11-02 14:52:34,2020-11-02 14:53:04,3,D7:F2:3B:06:4D:C8,30,30,7727.492702378958,3194.1170597019245,-18663.37913518345
34639,-29210,-21764,-25118,-31222,-26116,-7704,-15826,12057,-27073,30,-1,45421,2020-11-02 14:52:34,2020-11-02 14:53:04,3,D7:F2:3B:06:4D:C8,30,30,-15489.630193793113,39020.19844507442,13975.163318063387
34640,13538,10491,32226,-10494,6651,-26138,29749,29980,-26555,30,-1,45447,2020-11-02 14:52:34,2020-11-02 14:53:04,3,D7:F2:3B:06:4D:C8,30,30,-28725.120506642103,-18571.206691351174,12721.2945452105
34641,-31521,7674,-2587,-20746,-28426,-32539,14914,25119,-19770,30,-1,45472,2020-11-02 14:52:34,2020-11-02 14:53:04,3,D7:F2:3B:06:4D:C8,30,30,-14481.336721350277,-1214.6031192145188,-29119.957280629143
34642,-2334,3583,10735,20462,-3849,20204,4043,-27105,-17698,30,-1,45498,2020-11-02 14:52:34,2020-11-02 14:53:04,3,D7:F2:3B:06:4D:C8,30,30,-9047.674812467734,-4908.934117325832,-5250.48724592217
34643,4347,-10492,6384,-30740,-6152,22258,10195,11038,-4887,30,-1,45523,2020-11-02 14:52:34,2020-11-02 14:53:04,3,D7:F2:3B:06:4D:C8,30,30,-2177.9347944899287,-11040.802560182134,-6564.38937434593
34644,-8710,-9475,9960,29930,-10503,-15119,14550,-27876,23280,30,-1,45550,2020-11-02 14:52:34,2020-11-02 14:53:04,3,D7:F2:3B:06:4D:C8,30,30,-1279.029781785067,6342.352364724665,14932.513997950187
34645,-4895,9208,-18188,20707,-5384,-29198,12502,-16614,-32524,30,-1,45574,2020-11-02 14:52:34,2020-11-02 14:53:04,3,D7:F2:3B:06:4D:C8,30,30,-15718.557651699177,-8342.61698598433,-11085.094504575727
34646,1240,26110,-19451,11740,32491,30714,16087,6170,13307,30,-1,45600,2020-11-02 14:52:34,2020-11-02 14:53:04,3,D7:F2:3B:06:4D:C8,30,30,-17629.529040826605,22130.013344432933,16157.763340693906
34647,25310,-14584,32278,-4383,-8467,12805,-39,-6118,-21757,30,-1,45626,2020-11-02 14:52:34,2020-11-02 14:53:04,3,D7:F2:3B:06:4D:C8,30,30,11292.894207236128,16341.187814147226,38737.50845429968
34648,23018,-25088,-5358,5106,-16644,31502,24282,-7140,15367,30,-1,45651,2020-11-02 14:52:34,2020-11-02 14:53:04,3,D7:F2:3B:06:4D:C8,30,30,-8524.489992992438,-11035.447518575287,31519.774752116205
34649,-32024,32756,2308,4848,-29962,-19181,-21285,-28129,-18422,30,-1,45677,2020-11-02 14:52:34,2020-11-02 14:53:04,3,D7:F2:3B:06:4D:C8,30,30,-20077.86177543272,29564.972790173448,28750.8404475925
34650,-5131,8425,-32485,-19979,30458,24089,-32515,23330,-13522,30,-1,45702,2020-11-02 14:52:34,2020-11-02 14:53:04,3,D7:F2:3B:06:4D:C8,30,30,28744.88723813259,-17789.05022168246,-3140.726170410536
34651,18938,-7196,25633,-16380,1020,16159,-27366,-19170,-31553,30,-1,45728,2020-11-02 14:52:34,2020-11-02 14:53:04,3,D7:F2:3B:06:4D:C8,30,30,9662.343407572116,-19142.640440332027,24651.153844116754
34652,-6401,-11038,4892,-31727,19197,-13796,-19426,15642,-10047,30,-1,45754,2020-11-02 14:52:34,2020-11-02 14:53:04,3,D7:F2:3B:06:4D:C8,30,30,9601.273171375144,6549.487995043884,7187.605268196629
34653,-5118,5095,-21994,25,29690,-26605,-30943,-15594,18625,30,-1,45805,2020-11-02 14:52:34,2020-11-02 14:53:04,3,D7:F2:3B:06:4D:C8,30,30,-6506.882618439196,-21836.112979189755,-4090.676417160688
34654,-5887,28655,-3598,24591,-7182,26121,-4574,-13804,-1346,30,-1,45807,2020-11-02 14:52:34,2020-11-02 14:53:04,3,D7:F2:3B:06:4D:C8,30,30,5721.508568471831,28655.0,-3855.73763382617
34655,19436,14327,30212,-17138,-16141,10244,-17631,1812,8635,30,1,45830,2020-11-02 14:52:34,2020-11-02 14:53:04,3,D7:F2:3B:06:4D:C8,30,30,18848.795985172692,10994.974554571521,-31931.479662766375
34656,-9998,-12554,21498,-10985,-4599,6156,26405,-21998,-24901,30,1,45856,2020-11-02 14:52:34,2020-11-02 14:53:04,3,D7:F2:3B:06:4D:C8,30,30,-25412.716573725724,-8021.457836573742,3094.6687253332584
34657,3315,-29694,-32265,18965,-14079,6915,-20183,26129,-9284,30,1,45882,2020-11-02 14:52:34,2020-11-02 14:53:04,3,D7:F2:3B:06:4D:C8,30,30,4959.7594535324315,38256.557926429276,-21108.99447593032
34658,31466,5383,-5382,10778,-24328,-18180,29484,-6383,-4165,30,1,45907,2020-11-02 14:52:34,2020-11-02 14:53:04,3,D7:F2:3B:06:4D:C8,30,30,22629.38089774108,-3633.976901888464,22863.88202080942
34659,-6418,7933,3293,-30176,-24321,15862,-29135,787,16060,30,1,45933,2020-11-02 14:52:34,2020-11-02 14:53:04,3,D7:F2:3B:06:4D:C8,30,30,3495.9682725398316,-5458.240303219116,8541.245847633081
34660,11241,19709,1486,-6380,14072,-27916,-2762,-21740,-12611,30,1,45958,2020-11-02 14:52:34,2020-11-02 14:53:04,3,D7:F2:3B:06:4D:C8,30,30,22639.703203197747,2107.9671638101727,115.20116065270554
34661,-6686,-8444,-18482,4098,-30225,19703,-15048,6679,11198,30,1,45984,2020-11-02 14:52:34,2020-11-02 14:53:04,3,D7:F2:3B:06:4D:C8,30,30,16220.39893357248,661.3036922874235,13930.161228870533
34662,-4875,-7172,18141,13569,19972,5363,30778,-25832,-1601,30,1,46035,2020-11-02 14:52:34,2020-11-02 14:53:04,3,D7:F2:3B:06:4D:C8,30,30,12285.79168698638,15361.420072521734,-4169.554650019907
34663,1530,14076,-28435,22016,14611,25326,-1472,8471,3783,30,1,46037,2020-11-02 14:52:34,2020-11-02 14:53:04,3,D7:F2:3B:06:4D:C8,30,30,-23100.564925034283,14076.0,-16650.946674116636
34664,-5621,23287,-19725,25854,-29692,3307,-25019,-21995,-19764,30,1,46061,2020-11-02 14:52:34,2020-11-02 14:53:04,3,D7:F2:3B:06:4D:C8,30,30,-1287.0423865296139,112.97292406321685,-31004.618914182844
34665,24305,19200,32741,-17418,-26375,744,-27971,-10219,21203,30,1,46086,2020-11-02 14:52:34,2020-11-02 14:53:04,3,D7:F2:3B:06:4D:C8,30,30,-13456.175174818394,39623.8998813498,16739.89288667548
34666,27620,-7175,1776,31472,7679,-25875,2240,-29163,-13352,30,1,46112,2020-11-02 14:52:34,2020-11-02 14:53:04,3,D7:F2:3B:06:4D:C8,30,30,-10493.333949864827,-5686.8426036120145,-25981.704424813197
34667,18401,27136,-30983,-25367,-32009,-12304,-13376,26901,22237,30,1,46137,2020-11-02 14:52:34,2020-11-02 14:53:04,3,D7:F2:3B:06:4D:C8,30,30,8649.848337035693,38631.258515769885,21626.640405620972
34668,-10262,28680,-24071,32231,-27918,6389,-26688,-17642,-28447,30,-1,46163,2020-11-02 14:52:34,2020-11-02 14:53:04,3,D7:F2:3B:06:4D:C8,30,30,-2786.381038184043,4036.2151793081193,-38512.45425490786
34669,-8716,24580,5111,18658,-17939,19702,10688,29976,-13595,30,-1,46189,2020-11-02 14:52:34,2020-11-02 14:53:04,3,D7:F2:3B:06:4D:C8,30,30,18549.99781478426,18953.869435040386,-1707.5688890762258
34670,21228,-29959,762,-3374,-31778,1784,29632,4380,-31764,30,-1,46214,2020-11-02 14:52:34,2020-11-02 14:53:04,3,D7:F2:3B:06:4D:C8,30,30,13470.058851002552,18152.68851559867,28944.562929955944
34671,20469,-24333,-12772,23258,31727,-18686,-21569,2080,-24846,30,-1,46240,2020-11-02 14:52:34,2020-11-02 14:53:04,3,D7:F2:3B:06:4D:C8,30,30,-30246.36619447229,923.1677842104857,16078.05732270164
34672,-2834,8181,-16619,-12814,11511,16914,-10444,28961,32734,30,-1,46265,2020-11-02 14:52:34,2020-11-02 14:53:04,3,D7:F2:3B:06:4D:C8,30,30,-5084.371744308235,-16529.047174652347,-7217.426235424742
34673,2025,-2837,-14825,-15613,-10,-21989,13858,15390,3276,30,-1,46291,2020-11-02 14:52:34,2020-11-02 14:53:04,3,D7:F2:3B:06:4D:C8,30,30,2421.407676267022,14660.942927974975,-3335.1696100761865
34674,-23562,18921,-3310,-24047,-8970,-5859,32032,-22247,19656,30,-1,46316,2020-11-02 14:52:34,2020-11-02 14:53:04,3,D7:F2:3B:06:4D:C8,30,30,-26068.2660546088,1500.6387006163632,15566.68793919705
34675,2041,-19473,31485,-7153,-27409,-24558,-28896,3606,14021,30,-1,46342,2020-11-02 14:52:34,2020-11-02 14:53:04,3,D7:F2:3B:06:4D:C8,30,30,31626.64248328986,16718.761949100866,-9742.028491205618
34676,12785,3321,13825,-22264,-25624,-3572,21022,29203,26560,30,-1,46368,2020-11-02 14:52:34,2020-11-02 14:53:04,3,D7:F2:3B:06:4D:C8,30,30,-14620.180653047119,-8912.869064252094,8510.403851508145
34677,-1042,29177,24339,-32750,14575,27147,31773,3345,-26948,30,-1,46393,2020-11-02 14:52:34,2020-11-02 14:53:04,3,D7:F2:3B:06:4D:C8,30,30,-23245.72092024865,-21453.96889222737,-21074.479629856927
34678,8436,-8967,3078,-18403,21758,32527,-3040,-7666,-25157,30,-1,46419,2020-11-02 14:52:34,2020-11-02 14:53:04,3,D7:F2:3B:06:4D:C8,30,30,5499.914874160107,7350.5661891206155,8761.699725301549
34679,28414,-8189,-27653,-15846,30462,20232,-31707,5645,-18757,30,-1,46444,2020-11-02 14:52:34,2020-11-02 14:53:04,3,D7:F2:3B:06:4D:C8,30,30,-24715.35780700247,-27961.8834672849,-15696.741299831036
34680,28409,22279,-16401,-491,14323,-17414,9000,13325,6842,30,1,46470,2020-11-02 14:52:34,2020-11-02 14:53:04,3,D7:F2:3B:06:4D:C8,30,30,-23273.087693479127,11576.35754166972,-29946.105895075187
34681,22511,-27383,-10775,-32486,2556,19186,15659,15119,-17083,30,1,46496,2020-11-02 14:52:34,2020-11-02 14:53:04,3,D7:F2:3B:06:4D:C8,30,30,30894.359098171844,16578.60165277881,-11973.42800336171
34682,-783,1025,-16435,14371,-7928,-17423,-3535,-16368,30139,30,1,46521,2020-11-02 14:52:34,2020-11-02 14:53:04,3,D7:F2:3B:06:4D:C8,30,30,5314.460420113077,-14352.160112334303,6127.393373447777
34683,-23311,-15103,-32315,19213,-9212,7662,-32456,19729,17855,30,1,46547,2020-11-02 14:52:34,2020-11-02 14:53:04,3,D7:F2:3B:06:4D:C8,30,30,-23311.187945740843,-23650.495330319507,26702.156133707293
34684,9713,-1796,-1819,32254,-6916,29930,-32197,-2030,-3390,30,1,46574,2020-11-02 14:52:34,2020-11-02 14:53:04,3,D7:F2:3B:06:4D:C8,30,30,9713.0,1234.8259705202945,-2238.209512652605
34685,-15123,11519,12263,-6659,-12033,1514,21055,-31980,5576,30,1,46598,2020-11-02 14:52:34,2020-11-02 14:53:04,3,D7:F2:3B:06:4D:C8,30,30,-14372.640232140744,-13134.278227178682,11519.184311769177
34686,7162,26115,-2570,32759,-1281,-530,12866,9493,-6964,30,1,46623,2020-11-02 14:52:34,2020-11-02 14:53:04,3,D7:F2:3B:06:4D:C8,30,30,6194.845513558075,-25436.802425690963,7381.418591267684
34687,-777,24837,-12043,-4616,-25854,18415,-27068,10773,18129,30,1,46649,2020-11-02 14:52:34,2020-11-02 14:53:04,3,D7:F2:3B:06:4D:C8,30,30,-20795.78011057099,10156.718209218223,15062.893208521225
34688,29933,23301,-1291,-7179,4094,20978,-14919,14869,10709,30,1,46675,2020-11-02 14:52:34,2020-11-02 14:53:04,3,D7:F2:3B:06:4D:C8,30,30,-7728.440222421312,-32155.699564322786,-18624.44544832065
34689,19430,-18684,-6663,28649,-30478,-8460,-4679,24598,30680,30,1,46700,2020-11-02 14:52:34,2020-11-02 14:53:04,3,D7:F2:3B:06:4D:C8,30,30,-20088.746888202146,2043.2298288689526,19059.89992964729
34690,13813,-23809,6146,30943,-32028,-28170,-27580,-2279,20187,30,1,46726,2020-11-02 14:52:34,2020-11-02 14:53:04,3,D7:F2:3B:06:4D:C8,30,30,-15214.56808807555,-8852.807361528688,-22036.004304614224
34691,-29969,5630,-30724,9683,-16937,4091,-22722,21791,22747,30,-1,46751,2020-11-02 14:52:34,2020-11-02 14:53:04,3,D7:F2:3B:06:4D:C8,30,30,-32112.17924809268,14587.080131811284,-25096.355794546784
34692,4104,-17683,26381,7122,-32543,-8193,-29175,32,-5063,30,-1,46777,2020-11-02 14:52:34,2020-11-02 14:53:04,3,D7:F2:3B:06:4D:C8,30,30,4104.0,-30313.379715434487,-9473.365834162905
34693,-17169,-11534,-12976,13785,-1568,5645,-22272,28955,-16329,30,-1,46803,2020-11-02 14:52:34,2020-11-02 14:53:04,3,D7:F2:3B:06:4D:C8,30,30,16520.34105127555,13059.10053791121,-12358.095229049943
34694,17139,31224,-10179,5884,-11542,11536,16898,-15849,15676,30,-1,46828,2020-11-02 14:52:34,2020-11-02 14:53:04,3,D7:F2:3B:06:4D:C8,30,30,18713.50584092399,-31907.27701193519,2006.467250003335
34695,17141,28130,-29666,13345,16896,23065,5642,-18411,-14271,30,-1,46854,2020-11-02 14:52:34,2020-11-02 14:53:04,3,D7:F2:3B:06:4D:C8,30,30,30898.139641139092,-82.66584674069463,31788.055462302997
34696,-10495,18660,9482,-5854,-1547,13839,-6383,21267,-9404,30,-1,46879,2020-11-02 14:52:34,2020-11-02 14:53:04,3,D7:F2:3B:06:4D:C8,30,30,20004.823342537606,2271.673641153019,11953.8901995105
34697,-521,20724,-22539,30741,492,19461,-10220,-9968,12867,30,-1,46905,2020-11-02 14:52:34,2020-11-02 14:53:04,3,D7:F2:3B:06:4D:C8,30,30,-3189.7850780337485,25637.952680071037,-16440.27954538461
34698,-29200,-28170,24073,20244,-5652,7939,-19947,-21234,9536,30,-1,46931,2020-11-02 14:52:34,2020-11-02 14:53:04,3,D7:F2:3B:06:4D:C8,30,30,-9192.680762043241,43586.51849830516,15537.318127787135
34699,-2060,13051,12792,-15588,28412,-5883,3353,21773,-450,30,-1,46982,2020-11-02 14:52:34,2020-11-02 14:53:04,3,D7:F2:3B:06:4D:C8,30,30,3844.591686098739,13051.0,-12373.27679990957
34700,11009,-30969,31229,-6376,-19972,-24832,3613,-15092,-5314,30,-1,46984,2020-11-02 14:52:34,2020-11-02 14:53:04,3,D7:F2:3B:06:4D:C8,30,30,-32977.8098658867,-30969.0,-2985.39418660678
34701,15617,-9204,30197,-20970,-21257,-5900,-7905,25869,-29635,30,-1,47007,2020-11-02 14:52:34,2020-11-02 14:53:04,3,D7:F2:3B:06:4D:C8,30,30,-27658.302258843847,-21452.49116305239,-3907.9474225726635
34702,-7699,-10479,-20256,-16366,-5383,14063,14114,-16369,-8645,30,-1,47033,2020-11-02 14:52:34,2020-11-02 14:53:04,3,D7:F2:3B:06:4D:C8,30,30,21439.359049416023,8770.891320520956,-6543.311622858372
34703,-5384,19204,-25635,-10740,1798,-14352,1573,10514,24892,30,-1,47058,2020-11-02 14:52:34,2020-11-02 14:53:04,3,D7:F2:3B:06:4D:C8,30,30,30534.893911276973,5974.025877982314,-9320.169828724047
34704,-10510,5892,18382,17676,26639,-1812,1066,-31468,17216,30,-1,47084,2020-11-02 14:52:34,2020-11-02 14:53:04,3,D7:F2:3B:06:4D:C8,30,30,-15330.569078439581,-3766.2406340369203,15292.57241989461
34705,-30487,14079,-6707,20734,13843,16618,5169,-2283,6331,30,-1,47110,2020-11-02 14:52:34,2020-11-02 14:53:04,3,D7:F2:3B:06:4D:C8,30,30,-28319.26639411235,-18047.009749520803,-6707.0
34706,11997,19450,-17421,-12051,2824,10473,-28107,19479,-30270,30,-1,47135,2020-11-02 14:52:34,2020-11-02 14:53:04,3,D7:F2:3B:06:4D:C8,30,30,-2775.5132656710393,-7722.6338666256315,-27538.685558213027
34707,-23839,32005,10756,6127,20998,-5908,-24520,-18408,5065,30,-1,47161,2020-11-02 14:52:34,2020-11-02 14:53:04,3,D7:F2:3B:06:4D:C8,30,30,21174.45497937141,-29060.031725271976,-20382.995227707812
34708,-11280,-8694,-19963,13814,23046,16114,-14533,12313,-16178,30,-1,47186,2020-11-02 14:52:34,2020-11-02 14:53:04,3,D7:F2:3B:06:4D:C8,30,30,-21304.481835439576,-11625.191286276697,3509.898329140267
34709,29679,2308,31229,-14092,-6653,2806,20798,6937,11731,30,1,47212,2020-11-02 14:52:34,2020-11-02 14:53:04,3,D7:F2:3B:06:4D:C8,30,30,10123.923772936241,-6040.460245022403,-41502.2813043823
34710,-26639,17144,31996,28646,18420,28660,12094,17946,17110,30,1,47238,2020-11-02 14:52:34,2020-11-02 14:53:04,3,D7:F2:3B:06:4D:C8,30,30,21833.964499517926,39348.452660432056,1508.0916628402865
34711,12789,-29961,255,12758,12257,-13581,25912,31518,-2859,30,1,47289,2020-11-02 14:52:34,2020-11-02 14:53:04,3,D7:F2:3B:06:4D:C8,30,30,-17955.59723390054,19776.8011609982,18648.31710402533
34712,-31505,10237,26125,-31275,-15642,13562,22546,-6624,6723,30,1,47291,2020-11-02 14:52:34,2020-11-02 14:53:04,3,D7:F2:3B:06:4D:C8,30,30,13535.112549557547,-4501.015237744312,-39704.135919327135
34713,20489,11257,-11013,25059,-18954,-16901,30466,6431,15416,30,1,47314,2020-11-02 14:52:34,2020-11-02 14:53:04,3,D7:F2:3B:06:4D:C8,30,30,6966.296503887561,2482.3265225011023,-24761.141069337085
34714,-1297,1532,-4326,22505,-22538,15883,24064,3357,29242,30,1,47340,2020-11-02 14:52:34,2020-11-02 14:53:04,3,D7:F2:3B:06:4D:C8,30,30,-4467.608032653181,30.981113367862463,1668.2408810442391
34715,-25109,-5138,31262,-11517,-519,12056,16136,-26597,26435,30,1,47366,2020-11-02 14:52:34,2020-11-02 14:53:04,3,D7:F2:3B:06:4D:C8,30,30,-21876.171172977207,14889.38692141457,30559.987907638475
34716,-17157,14051,18465,23577,20993,13340,-17134,6169,21951,30,1,47391,2020-11-02 14:52:34,2020-11-02 14:53:04,3,D7:F2:3B:06:4D:C8,30,30,24677.71219082698,-14571.238447580785,3382.1599800205913
34717,13055,15851,5648,7193,-11,6163,-19944,-12011,-21567,30,1,47417,2020-11-02 14:52:34,2020-11-02 14:53:04,3,D7:F2:3B:06:4D:C8,30,30,-3770.6811038756587,14508.399568323499,15128.629679476773
34718,-8971,9719,771,22,31216,23563,-21478,7955,-17729,30,1,47442,2020-11-02 14:52:34,2020-11-02 14:53:04,3,D7:F2:3B:06:4D:C8,30,30,5234.499530563723,10355.25642809552,6395.382863669271
34719,-27913,-18694,-29695,23570,5873,30473,-6373,-6384,17597,30,1,47468,2020-11-02 14:52:34,2020-11-02 14:53:04,3,D7:F2:3B:06:4D:C8,30,30,19620.70775735182,32645.719915951493,-23657.536394769475
34720,4850,-26629,13308,20250,27386,-1273,20254,19983,-19525,30,1,47493,2020-11-02 14:52:34,2020-11-02 14:53:04,3,D7:F2:3B:06:4D:C8,30,30,10574.293762544323,-23224.661583464916,16078.818699050777
34721,15104,-7168,-30719,18718,-22525,-5371,-16350,11022,-4933,30,1,47519,2020-11-02 14:52:34,2020-11-02 14:53:04,3,D7:F2:3B:06:4D:C8,30,30,24402.343427241147,-24949.7671302882,-2280.9551515475514
34722,-27138,2052,-5646,-1507,512,-27137,-13529,-10739,28348,30,1,47545,2020-11-02 14:52:34,2020-11-02 14:53:04,3,D7:F2:3B:06:4D:C8,30,30,5318.632299360193,15318.715668033672,-22574.50253596172
34723,10999,30472,-23587,-17638,-14340,-14604,4140,-4850,21180,30,1,47570,2020-11-02 14:52:34,2020-11-02 14:53:04,3,D7:F2:3B:06:4D:C8,30,30,-15189.136355708573,-28614.872387758296,-23587.0
34724,1509,-18930,-13380,-30699,-5371,-3340,12593,23312,8638,30,1,47598,2020-11-02 14:52:34,2020-11-02 14:53:04,3,D7:F2:3B:06:4D:C8,30,30,-12637.77324927174,17415.694108138574,8753.665919587005
34725,-15378,-25326,31933,31230,25094,31228,9268,12048,19392,30,1,47621,2020-11-02 14:52:34,2020-11-02 14:53:04,3,D7:F2:3B:06:4D:C8,30,30,3040.2332224046168,40530.965191377385,15671.741817958266
34726,5104,-28914,-25628,-4622,-255,-12814,-3021,-23280,2754,30,1,47647,2020-11-02 14:52:34,2020-11-02 14:53:04,3,D7:F2:3B:06:4D:C8,30,30,-22731.53139063946,-28914.0,12888.858779440981
34727,11246,20488,-2831,25069,14335,18924,-13773,-29422,9157,30,1,47672,2020-11-02 14:52:34,2020-11-02 14:53:04,3,D7:F2:3B:06:4D:C8,30,30,2022.3096504857704,-17394.933183265526,-15734.414009656668
34728,-22289,-25340,-2815,-2069,14336,7150,-8654,-14572,-6457,30,-1,47698,2020-11-02 14:52:34,2020-11-02 14:53:04,3,D7:F2:3B:06:4D:C8,30,30,-18231.0487056921,-1330.926662098921,-28507.838278459432
34729,-24335,19974,-10486,5359,28417,26098,14898,-25834,-29238,30,-1,47724,2020-11-02 14:52:34,2020-11-02 14:53:04,3,D7:F2:3B:06:4D:C8,30,30,8175.301697112091,31947.406524271588,3692.7977922064765
34730,19956,22533,-17908,-4110,-252,8693,-30158,-20713,-30259,30,-1,47749,2020-11-02 14:52:34,2020-11-02 14:53:04,3,D7:F2:3B:06:4D:C8,30,30,-28861.980123343368,-14497.09418508907,-13546.027186905725
34731,25335,-17665,3590,28652,-9477,4344,28465,-13288,11983,30,-1,47775,2020-11-02 14:52:34,2020-11-02 14:53:04,3,D7:F2:3B:06:4D:C8,30,30,-4411.461215746373,-24636.028171585767,18450.140266968112
34732,-10501,14837,28672,29667,31729,-21515,-7381,-12518,21709,30,-1,47800,2020-11-02 14:52:34,2020-11-02 14:53:04,3,D7:F2:3B:06:4D:C8,30,30,-6155.690468125789,-31590.573067468198,-10799.737132429564
34733,-9989,-19723,14091,25306,-22548,12533,20767,-740,-27963,30,-1,47826,2020-11-02 14:52:34,2020-11-02 14:53:04,3,D7:F2:3B:06:4D:C8,30,30,-6742.874894160013,-19022.71365396525,-16733.29418856164
34734,-13039,-5385,14100,20966,-4615,-11272,20753,11805,14268,30,-1,47852,2020-11-02 14:52:34,2020-11-02 14:53:04,3,D7:F2:3B:06:4D:C8,30,30,273.30011151545295,-8626.350733522342,17981.52179520143
34735,29413,-8181,-9,-26397,8430,31225,4358,-6884,13633,30,-1,47877,2020-11-02 14:52:34,2020-11-02 14:53:04,3,D7:F2:3B:06:4D:C8,30,30,822.4418794608806,17861.85803301305,24745.323355401848
34736,-15921,-32254,7205,-6908,9980,-7155,17670,5147,22595,30,-1,47903,2020-11-02 14:52:34,2020-11-02 14:53:04,3,D7:F2:3B:06:4D:C8,30,30,11399.02334126367,-32851.84352886997,-11684.580677969167
34737,-13076,28133,-18662,27167,19716,21797,-3822,-15080,-23104,30,-1,47928,2020-11-02 14:52:34,2020-11-02 14:53:04,3,D7:F2:3B:06:4D:C8,30,30,-35939.83022067744,-1428.3728598383132,-4123.840889529843
34738,-27650,25828,-28412,28706,19708,30237,4636,27412,11973,30,-1,47954,2020-11-02 14:52:34,2020-11-02 14:53:04,3,D7:F2:3B:06:4D:C8,30,30,-39954.56081580247,25237.67674626941,-2354.266439287272
34739,-30725,9973,-16389,24346,-1036,-15599,1312,-2032,25540,30,-1,47979,2020-11-02 14:52:34,2020-11-02 14:53:04,3,D7:F2:3B:06:4D:C8,30,30,27630.791536740442,16733.96883746329,-16389.0
34740,-12050,7684,18939,-32752,-8464,-3825,-25055,30478,2242,30,-1,48005,2020-11-02 14:52:34,2020-11-02 14:53:04,3,D7:F2:3B:06:4D:C8,30,30,2876.332226496992,-19355.680041352847,-13417.02053585631
34741,17904,-2046,-6915,20495,-23821,6418,-26846,-14837,-25921,30,-1,48031,2020-11-02 14:52:34,2020-11-02 14:53:04,3,D7:F2:3B:06:4D:C8,30,30,1663.5647837019803,-11978.444878584753,15043.46926414028
34742,-11783,12292,-13052,20757,27386,-7410,-14812,19977,8382,30,-1,48056,2020-11-02 14:52:34,2020-11-02 14:53:04,3,D7:F2:3B:06:4D:C8,30,30,20155.648945591565,-42.63013840018721,7350.8540492499005
34743,-21504,-23807,-17405,-17640,7671,-3833,-7129,-14585,-9028,30,-1,48082,2020-11-02 14:52:34,2020-11-02 14:53:04,3,D7:F2:3B:06:4D:C8,30,30,-23534.720255750388,-14260.526323720725,-23976.730833331734
34744,1535,-3327,-17166,-8164,-1039,13818,18987,20232,-13382,30,-1,48107,2020-11-02 14:52:34,2020-11-02 14:53:04,3,D7:F2:3B:06:4D:C8,30,30,4859.651935714541,-3117.414287936621,-16575.953101438074
34745,-26889,-30214,-9004,-13276,-1542,7156,20016,25098,14266,30,-1,48133,2020-11-02 14:52:34,2020-11-02 14:53:04,3,D7:F2:3B:06:4D:C8,30,30,-34203.58366071025,-194.7563379998519,-23389.16560575866
34746,-27645,-27917,26040,-13278,21258,31219,21047,8715,23484,30,-1,48159,2020-11-02 14:52:34,2020-11-02 14:53:04,3,D7:F2:3B:06:4D:C8,30,30,44244.53612854153,14566.836612780255,7205.193117935718
34747,27129,22521,30920,17162,3331,-9494,-29380,10507,-5697,30,-1,48184,2020-11-02 14:52:34,2020-11-02 14:53:04,3,D7:F2:3B:06:4D:C8,30,30,40210.615736763095,-23261.582493766924,-6421.031377906271
34748,-30486,-14590,9964,-3591,-26891,-538,5694,-19699,24771,30,-1,48235,2020-11-02 14:52:34,2020-11-02 14:53:04,3,D7:F2:3B:06:4D:C8,30,30,-29850.207306349785,-12240.173573993892,-14166.46980183995
34749,26350,19200,2536,-14333,13826,13542,-704,12559,1480,30,-1,48237,2020-11-02 14:52:34,2020-11-02 14:53:04,3,D7:F2:3B:06:4D:C8,30,30,-8659.490868587274,19200.0,-25015.335574340264
34750,757,1800,32490,-12028,25348,20975,10820,14095,-2101,30,-1,48261,2020-11-02 14:52:34,2020-11-02 14:53:04,3,D7:F2:3B:06:4D:C8,30,30,17024.432846092364,-26366.848145845906,-8623.871179626574
34751,-23816,10505,-18964,-4612,10749,2799,16198,3087,10447,30,-1,48287,2020-11-02 14:52:34,2020-11-02 14:53:04,3,D7:F2:3B:06:4D:C8,30,30,-23699.501528193716,-13085.542906634162,17443.978077083793
34752,-29198,11270,-17167,-20748,-8969,-16146,-22342,8208,-20782,30,-1,48312,2020-11-02 14:52:34,2020-11-02 14:53:04,3,D7:F2:3B:06:4D:C8,30,30,868.5359159862292,13840.903297315814,32892.50726650363
34753,6126,-21240,14584,-21522,3318,-17680,-26182,30225,2774,30,-1,48338,2020-11-02 14:52:34,2020-11-02 14:53:04,3,D7:F2:3B:06:4D:C8,30,30,26293.102833284705,2846.1829155722935,-1389.4308940786086
34754,14062,28422,21509,-25620,-20234,-27404,-17223,-1518,-3624,30,1,48363,2020-11-02 14:52:34,2020-11-02 14:53:04,3,D7:F2:3B:06:4D:C8,30,30,14062.0,-25102.216485018176,-25304.661478456528
34755,13040,18179,-28163,30702,-264,-25863,2885,14612,-10790,30,1,48389,2020-11-02 14:52:34,2020-11-02 14:53:04,3,D7:F2:3B:06:4D:C8,30,30,-1471.2340768193008,35937.290247735444,-137.29508812971835
34756,1020,30717,-25877,28389,19446,-775,-16318,30741,5084,30,1,48414,2020-11-02 14:52:34,2020-11-02 14:53:04,3,D7:F2:3B:06:4D:C8,30,30,16746.640629736434,-36312.67189218674,-3890.1806730346334
34757,16625,-4364,-30730,11218,2541,16896,16700,2840,26075,30,1,48440,2020-11-02 14:52:34,2020-11-02 14:53:04,3,D7:F2:3B:06:4D:C8,30,30,11654.689769335751,-32033.474745622636,8820.018316426413
34758,23791,-26633,-11489,9181,15608,-26366,30259,24601,-27688,30,1,48466,2020-11-02 14:52:34,2020-11-02 14:53:04,3,D7:F2:3B:06:4D:C8,30,30,35241.3996521636,-12390.426463818232,3441.8851812917133
34759,-17425,16897,30498,-18192,13563,-2546,-10452,-12776,22997,30,1,48491,2020-11-02 14:52:34,2020-11-02 14:53:04,3,D7:F2:3B:06:4D:C8,30,30,22934.504689225694,-26674.74939391463,-16784.91815385871
34760,17123,9211,-21469,-18686,-778,1045,24872,-25578,17617,30,1,48517,2020-11-02 14:52:34,2020-11-02 14:53:04,3,D7:F2:3B:06:4D:C8,30,30,8931.684896706107,21220.428226546446,-17574.86960941511
34761,31981,-14861,-30718,29196,15604,15638,-14810,-19437,21453,30,1,48542,2020-11-02 14:52:34,2020-11-02 14:53:04,3,D7:F2:3B:06:4D:C8,30,30,38086.894261745474,16538.122713387853,-21519.94862009536
34762,8169,7671,17669,12555,-31245,-29933,-11739,8721,-14903,30,1,48568,2020-11-02 14:52:34,2020-11-02 14:53:04,3,D7:F2:3B:06:4D:C8,30,30,14886.99508767469,1592.2083667798277,-14615.49221806457
34763,-26892,-21771,31998,11534,7675,-31721,-28890,6670,-18233,30,1,48594,2020-11-02 14:52:34,2020-11-02 14:53:04,3,D7:F2:3B:06:4D:C8,30,30,19012.909891003776,39942.09098880678,16253.20688105737
34764,1797,-5124,-14074,10766,-20485,27920,2088,12555,27078,30,1,48619,2020-11-02 14:52:34,2020-11-02 14:53:04,3,D7:F2:3B:06:4D:C8,30,30,4975.921937358085,13600.362422117154,4222.843101558732
34765,23549,-7420,18183,-9201,16367,-5114,2857,3594,708,30,1,48645,2020-11-02 14:52:34,2020-11-02 14:53:04,3,D7:F2:3B:06:4D:C8,30,30,23549.0,-7420.0,18183.0
34766,26862,-16890,-1557,-6883,-5645,-27389,25643,15370,6081,30,-1,48670,2020-11-02 14:52:34,2020-11-02 14:53:04,3,D7:F2:3B:06:4D:C8,30,30,-7558.187287549463,6481.008748146598,-30168.422622549773
34767,-4362,-5381,21972,-5591,19205,27910,13105,-29687,-19520,30,-1,48696,2020-11-02 14:52:34,2020-11-02 14:53:04,3,D7:F2:3B:06:4D:C8,30,30,12046.759071854787,19636.346476184375,201.2012224758314
34768,27402,-24583,23218,33,-28662,-3836,-32457,-9465,10433,30,-1,48721,2020-11-02 14:52:34,2020-11-02 14:53:04,3,D7:F2:3B:06:4D:C8,30,30,40325.13365989552,8689.318124207432,13879.78252163491
34769,2587,-16131,7356,30217,-10237,-6407,-3014,-24058,2242,30,-1,48747,2020-11-02 14:52:34,2020-11-02 14:53:04,3,D7:F2:3B:06:4D:C8,30,30,3876.0631083109556,-16131.0,-6766.05053043434
34770,8707,27393,12762,511,25084,-9492,-4293,-15865,2756,30,-1,48773,2020-11-02 14:52:34,2020-11-02 14:53:04,3,D7:F2:3B:06:4D:C8,30,30,-15227.84426696532,27393.0,2606.386767356579
34771,12790,7934,-5402,-2555,30721,-12312,-16067,8969,27335,30,-1,48798,2020-11-02 14:52:34,2020-11-02 14:53:04,3,D7:F2:3B:06:4D:C8,30,30,-8001.5592234253345,3301.6978141445247,-13445.739159231458
34772,-9749,22528,-31777,20226,765,27625,8256,22282,715,30,-1,48824,2020-11-02 14:52:34,2020-11-02 14:53:04,3,D7:F2:3B:06:4D:C8,30,30,9903.68490847863,38911.35383083798,-393.8048817665622
34773,-5147,-19962,-11799,-10244,-32005,29420,25153,-3573,14286,30,-1,48849,2020-11-02 14:52:34,2020-11-02 14:53:04,3,D7:F2:3B:06:4D:C8,30,30,-1603.0530686587654,-6394.063473418514,22819.632493906618
34774,21482,-11254,-29202,-30983,23547,16622,20802,6669,16593,30,-1,48875,2020-11-02 14:52:34,2020-11-02 14:53:04,3,D7:F2:3B:06:4D:C8,30,30,-28275.50219450132,25107.674594505,-3314.5582066392053
34775,2546,16648,7922,15083,22766,-2067,-19391,-32497,6868,30,-1,48901,2020-11-02 14:52:34,2020-11-02 14:53:04,3,D7:F2:3B:06:4D:C8,30,30,8037.487748110038,-15917.255128037978,-5332.530720767555
34776,5889,-30723,-8453,9441,32488,3052,30783,25619,-6954,30,-1,48926,2020-11-02 14:52:34,2020-11-02 14:53:04,3,D7:F2:3B:06:4D:C8,30,30,-27300.168569011847,11385.403035786876,-13232.900393195461
34777,14857,-24332,-25360,15828,-10277,7660,30011,-18664,-4904,30,-1,48952,2020-11-02 14:52:34,2020-11-02 14:53:04,3,D7:F2:3B:06:4D:C8,30,30,-16985.836329074922,-31220.387902148414,-13880.74264732487
34778,13837,-10772,22776,10695,-3625,-17938,-5591,18463,11215,30,-1,48977,2020-11-02 14:52:34,2020-11-02 14:53:04,3,D7:F2:3B:06:4D:C8,30,30,3399.592448878533,-14642.435370297026,-24500.74665409613
