id,accelerationx,accelerationy,accelerationz,angularvelocityx,angularvelocityy,angularvelocityz,pitch,roll,yaw,mdlcircle_id,hallsensor,timestamp,starttime,endtime,train_mode,blemac,training_id,training_handle_id,accelerationWorldx,accelerationWorldy,accelerationWorldz
42431,-21493,-22019,22278,-25601,-4353,-18433,18947,32490,7692,37,1,11881,2020-11-02 15:00:46,2020-11-02 15:01:15,2,D7:F2:3B:06:4D:C8,37,37,-5954.686723290615,25252.6724273271,-27747.773519790375
42432,26641,15617,-22521,-23809,17664,-4865,15619,-31766,6412,37,1,11907,2020-11-02 15:00:46,2020-11-02 15:01:15,2,D7:F2:3B:06:4D:C8,37,37,4533.039905849917,32932.940621719325,-18860.063155203945
42433,30993,21503,-24057,-20481,19456,-2305,12291,-31254,5644,37,1,11932,2020-11-02 15:00:46,2020-11-02 15:01:15,2,D7:F2:3B:06:4D:C8,37,37,37141.05184847057,12926.562770872224,-21333.788916175235
42434,-25079,-5633,20487,-19713,-3585,-5889,10499,-30998,4620,37,1,11958,2020-11-02 15:00:46,2020-11-02 15:01:15,2,D7:F2:3B:06:4D:C8,37,37,-1044.7718032579087,-20282.738954714605,25844.207307905963
42435,-32243,7676,20488,-16641,5376,-2561,7683,-30230,4364,37,1,11983,2020-11-02 15:00:46,2020-11-02 15:01:15,2,D7:F2:3B:06:4D:C8,37,37,7662.715056632059,-13092.697036900345,35890.86584718744
42436,-6385,24317,27144,-14337,7680,-6401,5635,-29974,3852,37,1,12009,2020-11-02 15:00:46,2020-11-02 15:01:15,2,D7:F2:3B:06:4D:C8,37,37,24217.85745727353,24317.0,13822.457855937952
42437,-3315,20220,-26360,-15873,8192,-11265,4611,-29718,1804,37,1,12035,2020-11-02 15:00:46,2020-11-02 15:01:15,2,D7:F2:3B:06:4D:C8,37,37,-26217.584024930922,20220.0,-4298.50123830234
42438,-26872,-17412,6152,-19457,3584,-13313,4611,-29462,-1525,37,1,12060,2020-11-02 15:00:46,2020-11-02 15:01:15,2,D7:F2:3B:06:4D:C8,37,37,-1723.2681100401878,-17412.0,27513.302873717625
42439,-12022,16643,18438,-18433,3840,-9473,3843,-28694,-3829,37,1,12086,2020-11-02 15:00:46,2020-11-02 15:01:15,2,D7:F2:3B:06:4D:C8,37,37,14270.458982600041,16643.0,16758.351005571218
42440,15635,15875,-4860,-26881,-21505,3584,-254,-29974,-3317,37,1,12111,2020-11-02 15:00:46,2020-11-02 15:01:15,2,D7:F2:3B:06:4D:C8,37,37,-225.31370514531045,15875.0,-16371.37925570945
42441,-26359,32764,25096,6399,-7939,19712,-6910,21482,-3829,37,1,12137,2020-11-02 15:00:46,2020-11-02 15:01:15,2,D7:F2:3B:06:4D:C8,37,37,24118.04629790351,38820.020584202706,17590.100557252692
42442,-31227,-764,-15865,-11522,-17671,-4096,-18430,-24855,-3061,37,1,12188,2020-11-02 15:00:46,2020-11-02 15:01:15,2,D7:F2:3B:06:4D:C8,37,37,32379.439310350957,-1482.514660467053,13295.920811617354
42443,15878,-5377,-1531,22272,24058,-16638,25858,-28952,17420,37,1,12190,2020-11-02 15:00:46,2020-11-02 15:01:15,2,D7:F2:3B:06:4D:C8,37,37,-9604.53474092443,-1010.6996895962359,-13787.616637687086
42444,4598,-6916,14609,-255,-22520,-19190,-16640,6633,24846,37,1,12214,2020-11-02 15:00:46,2020-11-02 15:01:15,2,D7:F2:3B:06:4D:C8,37,37,10492.515590202373,-12577.550498346185,-3756.045933014109
42445,-7676,9984,-19953,14084,-15874,-1516,20733,5098,9747,37,1,12239,2020-11-02 15:00:46,2020-11-02 15:01:15,2,D7:F2:3B:06:4D:C8,37,37,1800.4236427138817,-10278.159558493031,21162.2624451384
42446,-12022,20212,18191,27397,11245,-14825,-13833,7401,-27366,37,1,12265,2020-11-02 15:00:46,2020-11-02 15:01:15,2,D7:F2:3B:06:4D:C8,37,37,12365.48610174649,-26754.793912754205,-3904.0575243667768
42447,-6637,18168,-4597,-17143,-6919,-8943,-25358,-13336,-6367,37,1,12290,2020-11-02 15:00:46,2020-11-02 15:01:15,2,D7:F2:3B:06:4D:C8,37,37,-13804.365184126998,5958.8798682665,-13007.292361549758
42448,-19170,-22286,-10229,-19183,13574,26889,-30990,15850,-25820,37,1,12316,2020-11-02 15:00:46,2020-11-02 15:01:15,2,D7:F2:3B:06:4D:C8,37,37,6572.777510105658,-12945.02859198426,27532.017135607035
42449,-231,3825,15108,-2029,-25844,-4353,-9227,-11029,10276,37,1,12342,2020-11-02 15:00:46,2020-11-02 15:01:15,2,D7:F2:3B:06:4D:C8,37,37,-14751.941347660995,4379.528495582983,2477.015670428147
42450,-26348,24052,13571,2576,-8438,-14341,-13319,25325,-31454,37,1,12367,2020-11-02 15:00:46,2020-11-02 15:01:15,2,D7:F2:3B:06:4D:C8,37,37,8557.570112922776,37146.20390104442,-1953.299389351937
42451,29973,27129,10753,-10743,-27132,-15620,29692,15342,26657,37,1,12393,2020-11-02 15:00:46,2020-11-02 15:01:15,2,D7:F2:3B:06:4D:C8,37,37,35429.64825405392,13472.87997705884,-17697.793894092592
42452,-1261,25339,1280,-13565,-14849,7166,-17411,22766,-8416,37,1,12418,2020-11-02 15:00:46,2020-11-02 15:01:15,2,D7:F2:3B:06:4D:C8,37,37,-20651.420923545917,-13931.487385990327,4972.515968051018
42453,15889,-6660,19457,-4865,-27140,16638,7934,-7699,-27872,37,1,12444,2020-11-02 15:00:46,2020-11-02 15:01:15,2,D7:F2:3B:06:4D:C8,37,37,12202.361169068936,16425.06189061286,16022.187546934274
42454,-495,31995,-3327,14590,10235,12541,14078,6637,11296,37,1,12469,2020-11-02 15:00:46,2020-11-02 15:01:15,2,D7:F2:3B:06:4D:C8,37,37,22370.268076520715,15795.871903187104,16883.58717816515
42455,18191,10491,-26622,-260,3835,-6917,23550,16364,28703,37,1,12495,2020-11-02 15:00:46,2020-11-02 15:01:15,2,D7:F2:3B:06:4D:C8,37,37,-25602.597553507054,-8651.202359141937,-20478.479979098338
42456,14861,17148,11011,18172,-30724,1275,-24578,-30229,26398,37,1,12521,2020-11-02 15:00:46,2020-11-02 15:01:15,2,D7:F2:3B:06:4D:C8,37,37,-21167.856469146005,5388.175418252771,-12610.898626337863
42457,-8182,-5124,8707,32507,-14083,-29190,511,4331,7453,37,1,12546,2020-11-02 15:00:46,2020-11-02 15:01:15,2,D7:F2:3B:06:4D:C8,37,37,-109.05614045745824,-9653.424612966557,8707.0
42458,-29944,9213,5891,24314,6910,-20229,13311,-18710,-7397,37,1,12572,2020-11-02 15:00:46,2020-11-02 15:01:15,2,D7:F2:3B:06:4D:C8,37,37,7831.422622123043,-29206.88414880624,-10092.230874881447
42459,-4089,23037,24835,-29704,509,510,-14850,20458,9755,37,1,12597,2020-11-02 15:00:46,2020-11-02 15:01:15,2,D7:F2:3B:06:4D:C8,37,37,-11133.467093870431,6713.162913576434,31546.471580281148
42460,9992,-14084,31236,-22794,1019,30976,29949,-22551,9243,37,-1,12623,2020-11-02 15:00:46,2020-11-02 15:01:15,2,D7:F2:3B:06:4D:C8,37,37,-28892.80738349465,3045.334662815905,-20732.062953110308
42461,-28664,30972,20742,-22795,31994,32514,16635,-7704,-5605,37,-1,12649,2020-11-02 15:00:46,2020-11-02 15:01:15,2,D7:F2:3B:06:4D:C8,37,37,-31922.03062657906,-31749.547048756387,-13567.257161068097
42462,23305,9468,777,-19211,-4358,-5373,27128,17896,23581,37,-1,12674,2020-11-02 15:00:46,2020-11-02 15:01:15,2,D7:F2:3B:06:4D:C8,37,37,11549.924293199252,21941.121019806873,4307.69488422227
42463,24842,-25349,-18164,-25098,506,-26107,3829,-10265,31263,37,-1,12700,2020-11-02 15:00:46,2020-11-02 15:01:15,2,D7:F2:3B:06:4D:C8,37,37,-16164.775014954663,-34718.0743446979,11089.771120808873
42464,-1781,-27397,8977,8441,-12552,-7161,8433,-25369,-30174,37,-1,12725,2020-11-02 15:00:46,2020-11-02 15:01:15,2,D7:F2:3B:06:4D:C8,37,37,17860.60192978807,-18435.95241777052,13246.458249485104
42465,-20978,-14853,3859,-10499,10745,18953,21741,-13081,9510,37,-1,12751,2020-11-02 15:00:46,2020-11-02 15:01:15,2,D7:F2:3B:06:4D:C8,37,37,-4291.5219965709975,19523.487287685966,-16613.135076815328
42466,-4080,-29957,27154,-8957,-12804,15880,10731,28648,-6104,37,-1,12779,2020-11-02 15:00:46,2020-11-02 15:01:15,2,D7:F2:3B:06:4D:C8,37,37,-28013.155919193046,-28618.943934765768,-6901.239635436036
42467,-6640,-2567,13,28680,-27138,17926,-6934,10473,31530,37,-1,12802,2020-11-02 15:00:46,2020-11-02 15:01:15,2,D7:F2:3B:06:4D:C8,37,37,-1819.8966402490178,1301.2878990157574,6758.245632017639
42468,13330,3832,-22265,8202,-21505,27652,-30997,-16919,31787,37,-1,12828,2020-11-02 15:00:46,2020-11-02 15:01:15,2,D7:F2:3B:06:4D:C8,37,37,20623.504915458998,9381.098765970863,13220.037062926052
42469,-11503,1270,19203,-25079,-29697,5635,31980,8938,10284,37,-1,12853,2020-11-02 15:00:46,2020-11-02 15:01:15,2,D7:F2:3B:06:4D:C8,37,37,-17233.346494077607,7908.744289220562,11964.5580939199
42470,7187,30708,2561,28935,5630,-8958,1005,22250,1837,37,-1,12879,2020-11-02 15:00:46,2020-11-02 15:01:15,2,D7:F2:3B:06:4D:C8,37,37,-6753.667732426081,30708.0,-3549.6002817200065
42471,-28652,21235,11777,14854,-11010,27393,23277,26090,-13267,37,-1,12904,2020-11-02 15:00:46,2020-11-02 15:01:15,2,D7:F2:3B:06:4D:C8,37,37,-19796.121350297042,-31319.000310795956,-6147.670861121021
42472,-5099,-23053,3329,-25850,28929,7934,24046,23786,-18643,37,-1,12930,2020-11-02 15:00:46,2020-11-02 15:01:15,2,D7:F2:3B:06:4D:C8,37,37,10623.586293609316,-16251.276015239706,-13840.458559553974
42473,-2541,24564,17151,-9210,-8445,-29958,28912,15594,27948,37,-1,12956,2020-11-02 15:00:46,2020-11-02 15:01:15,2,D7:F2:3B:06:4D:C8,37,37,28137.36373849114,-3243.298032937748,10088.278233543402
42474,15123,-22795,-10755,7686,-32764,14072,9971,6890,20266,37,-1,12981,2020-11-02 15:00:46,2020-11-02 15:01:15,2,D7:F2:3B:06:4D:C8,37,37,13191.521359481303,1418.7814805734724,-26228.95351196327
42475,-30959,17655,-2308,16899,-26877,-19977,-8459,-791,-10713,37,-1,13007,2020-11-02 15:00:46,2020-11-02 15:01:15,2,D7:F2:3B:06:4D:C8,37,37,-10334.629501443433,30155.734788490932,-16103.18795872708
42476,-3314,-6664,-7172,4352,-22014,-12810,9208,-15127,22565,37,-1,13032,2020-11-02 15:00:46,2020-11-02 15:01:15,2,D7:F2:3B:06:4D:C8,37,37,-10245.083267139842,-998.6632291650449,932.7468059901732
42477,1804,32762,4862,-11780,13827,-23050,5626,-18455,-22750,37,-1,13058,2020-11-02 15:00:46,2020-11-02 15:01:15,2,D7:F2:3B:06:4D:C8,37,37,7070.706378737588,-32085.275361095402,-4558.763023931365
42478,-29174,11516,-25600,-23558,-8190,-1802,-27909,-12311,1056,37,1,13084,2020-11-02 15:00:46,2020-11-02 15:01:15,2,D7:F2:3B:06:4D:C8,37,37,-10999.691626259897,11846.783942017606,-37118.20343656656
42479,28425,2813,23810,-31751,24322,-23561,-21252,-3095,-28131,37,1,13109,2020-11-02 15:00:46,2020-11-02 15:01:15,2,D7:F2:3B:06:4D:C8,37,37,-19015.146718414726,21136.12302667443,-23968.69192672901
42480,-4858,5628,-13821,7672,21505,32505,18941,5098,32539,37,1,13135,2020-11-02 15:00:46,2020-11-02 15:01:15,2,D7:F2:3B:06:4D:C8,37,37,-4850.543231741415,3631.2401283444365,14476.909700875687
42481,-24826,-21509,6662,11766,-13827,29437,-13060,-6167,26394,37,1,13160,2020-11-02 15:00:46,2020-11-02 15:01:15,2,D7:F2:3B:06:4D:C8,37,37,29358.766820049495,11030.69928877397,-11821.001861373783
42482,-23290,3068,19207,20213,25082,32513,-774,16617,-23014,37,1,13186,2020-11-02 15:00:46,2020-11-02 15:01:15,2,D7:F2:3B:06:4D:C8,37,37,-20072.82770753058,18547.057922676282,13184.604781209162
42483,-18171,8700,2057,16373,-32519,-13564,760,-31000,12060,37,1,13211,2020-11-02 15:00:46,2020-11-02 15:01:15,2,D7:F2:3B:06:4D:C8,37,37,-6586.742362428026,-6513.787636046127,18008.106110401743
42484,-7676,4860,-11252,-25610,16889,-7416,-5389,8168,7199,37,1,13237,2020-11-02 15:00:46,2020-11-02 15:01:15,2,D7:F2:3B:06:4D:C8,37,37,-11446.08475081973,-8831.25642005203,379.6497337571054
42485,-4856,23034,-28399,-22534,-5894,-29685,-29969,27880,-8158,37,1,13263,2020-11-02 15:00:46,2020-11-02 15:01:15,2,D7:F2:3B:06:4D:C8,37,37,24390.614910951423,24509.1874735803,-12847.051282320332
42486,13328,8438,-23270,-21501,-30972,778,-19731,-19223,-220,37,1,13288,2020-11-02 15:00:46,2020-11-02 15:01:15,2,D7:F2:3B:06:4D:C8,37,37,-16277.577755613134,-11637.419273867668,-19746.879830853828
42487,8984,-8460,21526,-1524,8968,-13307,21743,29163,-9180,37,1,13314,2020-11-02 15:00:46,2020-11-02 15:01:15,2,D7:F2:3B:06:4D:C8,37,37,17528.10251864148,-17419.51192547546,2231.3131501903636
42488,-1513,24056,-22263,15372,-27902,9471,-17935,12012,27684,37,1,13339,2020-11-02 15:00:46,2020-11-02 15:01:15,2,D7:F2:3B:06:4D:C8,37,37,-31894.715276912,4312.769281263196,-6383.465558088992
42489,-27888,5372,-32759,-29945,26367,-27652,-22285,-2837,-16093,37,1,13365,2020-11-02 15:00:46,2020-11-02 15:01:15,2,D7:F2:3B:06:4D:C8,37,37,2566.004458515228,29495.4814242146,31673.067512836384
42490,-24306,-2820,1801,27142,27390,12799,-5900,-24853,30499,37,1,13390,2020-11-02 15:00:46,2020-11-02 15:01:15,2,D7:F2:3B:06:4D:C8,37,37,5217.157939006583,-17665.458803368343,16207.728567136
42491,530,-773,-9211,-23546,-23810,10241,-21515,29163,-15581,37,1,13416,2020-11-02 15:00:46,2020-11-02 15:01:15,2,D7:F2:3B:06:4D:C8,37,37,3133.759412077936,8132.013190678573,3125.838033846708
42492,19220,23545,6148,10503,-15362,19968,28406,17643,6948,37,1,13442,2020-11-02 15:00:46,2020-11-02 15:01:15,2,D7:F2:3B:06:4D:C8,37,37,-2910.684703142557,-24405.733406063595,18906.650165247236
42493,-31468,-6922,-5887,18951,10751,-25346,-29705,2795,6180,37,1,13467,2020-11-02 15:00:46,2020-11-02 15:01:15,2,D7:F2:3B:06:4D:C8,37,37,-20100.25780083176,-24490.190076335417,-8307.593115040258
42494,-12524,-22026,-23809,518,3839,9212,-2568,-18198,-28893,37,1,13493,2020-11-02 15:00:46,2020-11-02 15:01:15,2,D7:F2:3B:06:4D:C8,37,37,25591.38280517975,8863.35339332583,21803.344370618226
42495,-29167,-24841,30717,-6398,7678,-15367,-27142,14058,22562,37,1,13518,2020-11-02 15:00:46,2020-11-02 15:01:15,2,D7:F2:3B:06:4D:C8,37,37,23970.51542105737,3663.4840622894335,42700.31070114364
42496,14862,19193,28413,32255,-30467,-9736,2556,-27159,-19168,37,-1,13544,2020-11-02 15:00:46,2020-11-02 15:01:15,2,D7:F2:3B:06:4D:C8,37,37,-8962.087258747582,-20664.53018223662,-29819.574884864236
42497,32523,-5126,13565,-7940,20990,24056,25085,3817,-18146,37,-1,13570,2020-11-02 15:00:46,2020-11-02 15:01:15,2,D7:F2:3B:06:4D:C8,37,37,-30275.950834857096,-18069.980870222735,-4987.306126066456
42498,-3319,1532,8702,27386,11263,18168,-30210,-18712,-30436,37,-1,13595,2020-11-02 15:00:46,2020-11-02 15:01:15,2,D7:F2:3B:06:4D:C8,37,37,8359.51328137171,374.2185082369165,-4366.473085530575
42499,-14074,27132,-15104,-4617,3327,31225,18943,-31256,26650,37,-1,13621,2020-11-02 15:00:46,2020-11-02 15:01:15,2,D7:F2:3B:06:4D:C8,37,37,-27877.73234658104,5555.110302783205,18823.562487911277
42500,20742,-16644,4869,11254,-4099,27644,7679,16872,-2280,37,-1,13646,2020-11-02 15:00:46,2020-11-02 15:01:15,2,D7:F2:3B:06:4D:C8,37,37,-18974.713257667823,-13089.913803898966,-14127.097168058988
42501,5127,29949,19463,-30986,11261,-27393,-1027,-9497,-29928,37,-1,13672,2020-11-02 15:00:46,2020-11-02 15:01:15,2,D7:F2:3B:06:4D:C8,37,37,-32578.733556508247,-4553.086422179291,14830.12551822169
42502,-20729,-19459,-16889,-14601,-21762,11265,24572,-27673,-9704,37,-1,13697,2020-11-02 15:00:46,2020-11-02 15:01:15,2,D7:F2:3B:06:4D:C8,37,37,17804.03957123189,-27843.613978773756,-1154.027099787313
42503,-30713,-9476,-9976,-15624,-24576,9730,-19206,-23065,27673,37,-1,13723,2020-11-02 15:00:46,2020-11-02 15:01:15,2,D7:F2:3B:06:4D:C8,37,37,-12634.917198038725,-26827.298547941115,15914.095670767523
42504,26632,28667,-15607,-27400,26880,12036,-17416,-5401,26394,37,-1,13749,2020-11-02 15:00:46,2020-11-02 15:01:15,2,D7:F2:3B:06:4D:C8,37,37,-40552.80588224541,-165.05908440365738,11405.325623390938
42505,-25846,-5383,1035,12535,-22530,-32762,-3339,12520,9500,37,-1,13774,2020-11-02 15:00:46,2020-11-02 15:01:15,2,D7:F2:3B:06:4D:C8,37,37,10849.475484863562,6934.115920304077,23070.989317910276
42506,27914,24568,-4593,-29962,25084,-23288,23282,31464,-24290,37,-1,13800,2020-11-02 15:00:46,2020-11-02 15:01:15,2,D7:F2:3B:06:4D:C8,37,37,-164.04645276429983,30075.809624136065,22344.852499268363
42507,-16884,-2828,4890,-18438,1020,11021,24046,11497,-3039,37,-1,13825,2020-11-02 15:00:46,2020-11-02 15:01:15,2,D7:F2:3B:06:4D:C8,37,37,6065.932498778064,5549.268361858063,15792.062042948959
42508,32027,12535,-29928,-14845,-22275,23564,-3861,-32534,-4060,37,1,13851,2020-11-02 15:00:46,2020-11-02 15:01:15,2,D7:F2:3B:06:4D:C8,37,37,-19613.83687828766,12535.0,-39200.90963117977
42509,-5606,-1800,4618,15105,4875,28420,22764,-13077,15141,37,1,13877,2020-11-02 15:00:46,2020-11-02 15:01:15,2,D7:F2:3B:06:4D:C8,37,37,-3824.6998832236645,5641.026818834167,-3089.2794034309304
42510,1558,-19204,27920,-1274,-30973,-3590,22510,-31508,17443,37,1,13902,2020-11-02 15:00:46,2020-11-02 15:01:15,2,D7:F2:3B:06:4D:C8,37,37,26248.277857060417,-18965.701787543236,-10103.338321789039
42511,9741,28409,7688,24330,-27647,-4359,-12048,-2069,-4063,37,1,13928,2020-11-02 15:00:46,2020-11-02 15:01:15,2,D7:F2:3B:06:4D:C8,37,37,9741.0,-4831.636862031927,-29031.567478065223
42512,22287,6649,15105,3339,14337,11775,11763,-4373,5153,37,1,13953,2020-11-02 15:00:46,2020-11-02 15:01:15,2,D7:F2:3B:06:4D:C8,37,37,22287.0,-16501.897948403872,-239.97937508062842
42513,-13292,7927,-27139,23048,-18435,1537,22516,-13589,27169,37,1,13979,2020-11-02 15:00:46,2020-11-02 15:01:15,2,D7:F2:3B:06:4D:C8,37,37,9977.426415524418,17698.87360722675,-23732.693676829185
42514,-25834,25845,-32260,-5884,8445,-17410,-1804,22251,-13791,37,1,14005,2020-11-02 15:00:46,2020-11-02 15:01:15,2,D7:F2:3B:06:4D:C8,37,37,14752.164227147543,-29871.415415016996,35582.85222854898
42515,-1006,5366,-20741,15617,-12804,32252,30965,-23574,-24031,37,1,14030,2020-11-02 15:00:46,2020-11-02 15:01:15,2,D7:F2:3B:06:4D:C8,37,37,18926.143645553067,6186.191109368075,7970.395176292494
42516,-5872,11512,-26372,31999,-19971,-8198,-2059,-6935,-1248,37,1,14056,2020-11-02 15:00:46,2020-11-02 15:01:15,2,D7:F2:3B:06:4D:C8,37,37,19018.61767129613,11512.0,-19189.97003314655
42517,14608,-30727,17406,12032,-7936,18424,14583,21737,27679,37,1,14081,2020-11-02 15:00:46,2020-11-02 15:01:15,2,D7:F2:3B:06:4D:C8,37,37,10397.37029415384,16689.58833192099,32769.85445920158
42518,19213,20986,26620,-11264,-3324,-28170,-26119,20969,-17636,37,1,14107,2020-11-02 15:00:46,2020-11-02 15:01:15,2,D7:F2:3B:06:4D:C8,37,37,14263.60536447042,36238.98936581243,-1208.7914423854163
42519,-19959,-7429,16890,7934,9732,5111,-6405,-21015,-7143,37,-1,14158,2020-11-02 15:00:46,2020-11-02 15:01:15,2,D7:F2:3B:06:4D:C8,37,37,18085.2917971534,-9290.556678103345,-18039.722814466004
42520,264,4860,3835,9977,1281,23288,4605,-16919,-26089,37,-1,14160,2020-11-02 15:00:46,2020-11-02 15:01:15,2,D7:F2:3B:06:4D:C8,37,37,-1326.8919980482206,-5898.940495707108,-1355.8685974763112
42521,-8699,-19972,-19970,20725,14336,24057,17149,-24087,-22507,37,-1,14184,2020-11-02 15:00:46,2020-11-02 15:01:15,2,D7:F2:3B:06:4D:C8,37,37,5486.227903330773,-25955.487335034537,13021.838026698711
42522,-17663,17918,-511,20724,-17920,251,-10500,-28439,3860,37,-1,14209,2020-11-02 15:00:46,2020-11-02 15:01:15,2,D7:F2:3B:06:4D:C8,37,37,-74.3140114115916,9251.145043308494,23403.166598034903
42523,-11269,-7685,-24570,-18188,-10239,15359,-13061,-16919,13843,37,-1,14235,2020-11-02 15:00:46,2020-11-02 15:01:15,2,D7:F2:3B:06:4D:C8,37,37,21968.75229537784,-2001.1700711830567,-17409.87440880985
42524,29438,31480,-12275,-11274,-1281,-28665,18425,5866,22292,37,-1,14260,2020-11-02 15:00:46,2020-11-02 15:01:15,2,D7:F2:3B:06:4D:C8,37,37,-25416.84467069665,33353.32452742693,-15805.113696326915
42525,23048,28662,-9197,-6405,20227,15116,11766,-278,-4842,37,-1,14286,2020-11-02 15:00:46,2020-11-02 15:01:15,2,D7:F2:3B:06:4D:C8,37,37,23048.0,-3564.7921945984,29889.585303401756
42526,23311,-25868,26137,-6654,30475,23817,4085,-1044,23832,37,-1,14311,2020-11-02 15:00:46,2020-11-02 15:01:15,2,D7:F2:3B:06:4D:C8,37,37,-34814.053394577146,-733.3697836231986,26137.0
42527,-10482,-6157,7705,-21242,-24052,-25851,-7179,18415,26904,37,-1,14337,2020-11-02 15:00:46,2020-11-02 15:01:15,2,D7:F2:3B:06:4D:C8,37,37,-5255.68979881512,-10914.834272529471,-7771.236422979721
42528,15629,32504,12306,-1276,-24316,14340,-18954,-17424,-27624,37,-1,14363,2020-11-02 15:00:46,2020-11-02 15:01:15,2,D7:F2:3B:06:4D:C8,37,37,31605.32942708418,9979.598831319192,18807.55305645631
42529,12291,12285,26636,1535,-8198,31751,19446,-4112,-23527,37,-1,14388,2020-11-02 15:00:46,2020-11-02 15:01:15,2,D7:F2:3B:06:4D:C8,37,37,4015.0660765702564,19708.474034863277,-24635.780840433996
42530,-27373,6910,24085,-1536,-24838,-3835,-2828,-30992,-25573,37,-1,14414,2020-11-02 15:00:46,2020-11-02 15:01:15,2,D7:F2:3B:06:4D:C8,37,37,-15250.519615630394,7085.866291683762,33080.63790723589
42531,-24820,24827,-3316,11269,-10239,12291,14325,-17168,14108,37,-1,14439,2020-11-02 15:00:46,2020-11-02 15:01:15,2,D7:F2:3B:06:4D:C8,37,37,11419.17241026824,-7369.939108467419,-32537.58878592652
42532,1816,-24328,-25077,5125,-12033,22786,-21003,2545,-18660,37,-1,14465,2020-11-02 15:00:46,2020-11-02 15:01:15,2,D7:F2:3B:06:4D:C8,37,37,1101.5788854309396,-20596.33407728454,28259.20939332982
42533,-28140,22263,10504,-8699,-18946,-1794,29686,-10000,-11748,37,1,14491,2020-11-02 15:00:46,2020-11-02 15:01:15,2,D7:F2:3B:06:4D:C8,37,37,14796.091397695433,-7049.588566787095,-33603.776058503725
42534,12818,-22281,-20221,-8699,-24322,29181,32247,30192,-26596,37,1,14516,2020-11-02 15:00:46,2020-11-02 15:01:15,2,D7:F2:3B:06:4D:C8,37,37,26877.987277132524,8214.50236902286,16725.091233222603
42535,7697,-12296,28160,7684,32765,-11269,-32264,-6161,8476,37,1,14542,2020-11-02 15:00:46,2020-11-02 15:01:15,2,D7:F2:3B:06:4D:C8,37,37,29633.465641733557,-10282.236869640772,4422.029400263737
42536,23566,13561,-24320,22274,20990,3066,32761,18159,18203,37,1,14567,2020-11-02 15:00:46,2020-11-02 15:01:15,2,D7:F2:3B:06:4D:C8,37,37,28625.451758325205,15590.695417278352,16377.826627408536
42537,-7925,6905,-30207,-30720,-7169,-14855,31226,-7954,6170,37,1,14618,2020-11-02 15:00:46,2020-11-02 15:01:15,2,D7:F2:3B:06:4D:C8,37,37,27318.63542426175,-7439.722311763428,-14875.825673895235
42538,-21243,22521,-17408,11774,-14336,29178,12283,-18706,-8936,37,1,14620,2020-11-02 15:00:46,2020-11-02 15:01:15,2,D7:F2:3B:06:4D:C8,37,37,14682.387310722668,-10915.73392400225,-30442.950083037555
42539,15369,-25606,14086,21756,-15617,17403,19451,-30738,-3305,37,1,14644,2020-11-02 15:00:46,2020-11-02 15:01:15,2,D7:F2:3B:06:4D:C8,37,37,-12477.718795178815,23361.931434419716,-19718.40476108332
42540,-25081,-27653,20231,17660,-10751,19962,-30725,-30994,-13802,37,1,14670,2020-11-02 15:00:46,2020-11-02 15:01:15,2,D7:F2:3B:06:4D:C8,37,37,-13520.632574735055,35924.41343566217,18156.74379074145
42541,-9470,-26884,8966,12795,4865,-20741,-21509,-24082,-23275,37,1,14695,2020-11-02 15:00:46,2020-11-02 15:01:15,2,D7:F2:3B:06:4D:C8,37,37,-22631.734369375914,-16450.075979896763,10488.999556184202
42542,-19711,26109,17925,28153,-6146,254,12027,32494,4629,37,1,14721,2020-11-02 15:00:46,2020-11-02 15:01:15,2,D7:F2:3B:06:4D:C8,37,37,-21203.90890060713,-27164.334131259686,-14282.93476635785
42543,29439,-32514,24584,32760,4605,6657,250,12526,9749,37,-1,14747,2020-11-02 15:00:46,2020-11-02 15:01:15,2,D7:F2:3B:06:4D:C8,37,37,32818.38132189032,-9065.82166329546,-36999.36077799619
42544,-3587,28924,-25331,-19719,-10243,-3580,22520,1774,-235,37,-1,14772,2020-11-02 15:00:46,2020-11-02 15:01:15,2,D7:F2:3B:06:4D:C8,37,37,-3587.0,-25059.832047506785,29159.255044509482
42545,1026,-21000,28434,-18692,-31746,30473,28150,19438,-19689,37,-1,14798,2020-11-02 15:00:46,2020-11-02 15:01:15,2,D7:F2:3B:06:4D:C8,37,37,6355.61593451308,-34695.75146858958,2521.112477226483
42546,25093,-30986,-10734,1536,12801,-1269,-17164,7407,-10471,37,-1,14826,2020-11-02 15:00:46,2020-11-02 15:01:15,2,D7:F2:3B:06:4D:C8,37,37,24803.588998348394,-32828.23887824825,-3478.261915623998
42547,-24560,12021,-32744,6662,-20468,-26614,22260,5105,10011,37,-1,14849,2020-11-02 15:00:46,2020-11-02 15:01:15,2,D7:F2:3B:06:4D:C8,37,37,-7144.028402966689,-24599.855912340616,34112.71792557265
42548,-5358,14837,24592,23562,27154,29698,2550,-12557,-24294,37,-1,14874,2020-11-02 15:00:46,2020-11-02 15:01:15,2,D7:F2:3B:06:4D:C8,37,37,1930.2966803923082,-24933.8520627989,-15105.898617299328
42549,-12785,-9481,-15342,-246,25612,22270,12536,-9483,-30951,37,-1,14900,2020-11-02 15:00:46,2020-11-02 15:01:15,2,D7:F2:3B:06:4D:C8,37,37,-18586.46894400127,257.04176560802944,-11966.605689351074
42550,13837,-23557,32015,-17403,-6908,1537,-19719,503,1817,37,-1,14926,2020-11-02 15:00:46,2020-11-02 15:01:15,2,D7:F2:3B:06:4D:C8,37,37,13837.0,27839.210300453342,-28370.24574879697
42551,3087,255,4631,7168,-28933,-11518,-12295,-7690,29721,37,-1,14951,2020-11-02 15:00:46,2020-11-02 15:01:15,2,D7:F2:3B:06:4D:C8,37,37,4924.704056799074,-2177.164800017097,1431.0829418706828
42552,-23025,-17411,29205,25092,8957,14850,-4103,23542,2330,37,-1,14977,2020-11-02 15:00:46,2020-11-02 15:01:15,2,D7:F2:3B:06:4D:C8,37,37,-7052.272505083378,-17411.0,-36515.03940178684
42553,8467,-32006,19469,4361,-15106,-4097,-2822,4854,19738,37,-1,15002,2020-11-02 15:00:46,2020-11-02 15:01:15,2,D7:F2:3B:06:4D:C8,37,37,-3865.579490751862,32880.562954436755,19469.0
42554,-14322,28665,-3832,-12535,30719,24060,-26884,-9483,-4327,37,-1,15028,2020-11-02 15:00:46,2020-11-02 15:01:15,2,D7:F2:3B:06:4D:C8,37,37,-28100.550201018348,-15836.627230035456,1022.9610828116038
42555,25355,-17415,-26619,13319,17405,-16901,8190,30453,18201,37,-1,15053,2020-11-02 15:00:46,2020-11-02 15:01:15,2,D7:F2:3B:06:4D:C8,37,37,-36518.57281465268,-7915.464233191828,16076.961048468436
42556,14859,5882,6659,-6652,-17156,-6150,21759,-6668,-31208,37,-1,15079,2020-11-02 15:00:46,2020-11-02 15:01:15,2,D7:F2:3B:06:4D:C8,37,37,10137.826401163296,10429.849240886562,9390.03762890514
42557,26377,9211,26877,16128,-3592,-19207,10496,2804,-30697,37,-1,15105,2020-11-02 15:00:46,2020-11-02 15:01:15,2,D7:F2:3B:06:4D:C8,37,37,24397.093692994295,20289.88899142117,22272.494315883527
42558,29444,-27396,31740,24569,15096,19961,11264,-13582,21782,37,-1,15130,2020-11-02 15:00:46,2020-11-02 15:01:15,2,D7:F2:3B:06:4D:C8,37,37,12673.818504676987,40123.416890773035,29230.177788028184
42559,-21501,-12547,-2814,14838,-23302,-32519,31487,-13839,8981,37,-1,15156,2020-11-02 15:00:46,2020-11-02 15:01:15,2,D7:F2:3B:06:4D:C8,37,37,4581.00029601246,-4447.035471295377,-24225.54680094909
42560,18175,26109,-27132,3319,-19460,31226,-17666,8689,276,37,-1,15181,2020-11-02 15:00:46,2020-11-02 15:01:15,2,D7:F2:3B:06:4D:C8,37,37,29321.904181958642,-29676.582152421346,-2771.7028871477396
42561,-24837,-12549,32260,27126,-6149,10496,-27395,-23824,-26861,37,-1,15207,2020-11-02 15:00:46,2020-11-02 15:01:15,2,D7:F2:3B:06:4D:C8,37,37,16786.67638666662,5366.343388199653,38787.516349068486
42562,-18430,30713,22281,11510,32508,23555,-24069,5616,15636,37,-1,15232,2020-11-02 15:00:46,2020-11-02 15:01:15,2,D7:F2:3B:06:4D:C8,37,37,41256.91714168606,-1386.8558390207863,8679.841521930259
42563,12290,-1288,-1525,759,26366,-29437,-22023,-3601,2325,37,-1,15258,2020-11-02 15:00:46,2020-11-02 15:01:15,2,D7:F2:3B:06:4D:C8,37,37,12290.0,1059.9023233300761,1691.501127696788
42564,-24831,23032,23821,3832,-9731,14597,-20233,-3857,3862,37,-1,15284,2020-11-02 15:00:46,2020-11-02 15:01:15,2,D7:F2:3B:06:4D:C8,37,37,-24831.0,-19439.887469707362,-26832.887287154073
42565,-1022,-20489,11023,-30216,28413,6664,-29963,8688,-30441,37,-1,15309,2020-11-02 15:00:46,2020-11-02 15:01:15,2,D7:F2:3B:06:4D:C8,37,37,11609.274166697554,-18507.0913817042,-8066.130169523604
42566,7,11511,-4848,-23047,-29956,9226,13811,30704,-31975,37,-1,15335,2020-11-02 15:00:46,2020-11-02 15:01:15,2,D7:F2:3B:06:4D:C8,37,37,-3029.024321651039,-11586.307337555048,3548.0653796913757
42567,-22261,-21514,1810,-3589,10236,-13303,12017,-2576,-31205,37,-1,15360,2020-11-02 15:00:46,2020-11-02 15:01:15,2,D7:F2:3B:06:4D:C8,37,37,-13321.61193011079,-19273.849806862385,-20315.850614878043
42568,20236,-7180,29970,-7938,24575,20744,-7953,-27663,6429,37,-1,15386,2020-11-02 15:00:46,2020-11-02 15:01:15,2,D7:F2:3B:06:4D:C8,37,37,-16011.448393348252,14559.15609719353,-29848.173982418055
42569,-4334,-30221,28433,-32255,32767,-11514,23023,22514,10782,37,-1,15412,2020-11-02 15:00:46,2020-11-02 15:01:15,2,D7:F2:3B:06:4D:C8,37,37,-32084.077078575127,26418.745809928212,-3631.770070702518
42570,-25068,21491,-6385,19459,-26369,-9470,25327,-19470,-10466,37,-1,15437,2020-11-02 15:00:46,2020-11-02 15:01:15,2,D7:F2:3B:06:4D:C8,37,37,-1556.012207685706,-32519.387152189243,8432.331543266211
42571,13843,5109,-2291,-25852,-4609,-20992,-6673,-13838,3359,37,-1,15463,2020-11-02 15:00:46,2020-11-02 15:01:15,2,D7:F2:3B:06:4D:C8,37,37,-726.024603086068,832.5944544854349,14891.570963134609
42572,-28910,4598,29451,-9723,22528,18687,-16400,-16654,287,37,-1,15488,2020-11-02 15:00:46,2020-11-02 15:01:15,2,D7:F2:3B:06:4D:C8,37,37,26976.82687360023,24866.27536299939,-19447.628811844646
42573,-7919,-18954,14088,17414,-3073,-8451,-10511,-27662,-16354,37,-1,15514,2020-11-02 15:00:46,2020-11-02 15:01:15,2,D7:F2:3B:06:4D:C8,37,37,-8107.009438816205,-21591.98475487657,-9407.391418673014
42574,6670,14582,-30205,21509,16127,-14084,-4366,13042,25118,37,-1,15539,2020-11-02 15:00:46,2020-11-02 15:01:15,2,D7:F2:3B:06:4D:C8,37,37,30802.549142858596,13355.054305627415,6504.701360979139
42575,8718,17654,4867,-2302,-20483,-7428,-21517,-20239,5406,37,-1,15565,2020-11-02 15:00:46,2020-11-02 15:01:15,2,D7:F2:3B:06:4D:C8,37,37,-7599.220090758379,-16790.49645575689,8466.759225431506
42576,-18164,13046,-5887,14593,-29443,20476,6644,2545,-13027,37,-1,15591,2020-11-02 15:00:46,2020-11-02 15:01:15,2,D7:F2:3B:06:4D:C8,37,37,18472.754936585,11521.666246657027,7797.07079315808
42577,-31219,-8203,21507,28672,30974,-29958,32756,24560,16925,37,1,15616,2020-11-02 15:00:46,2020-11-02 15:01:15,2,D7:F2:3B:06:4D:C8,37,37,-20730.368754364797,1329.740968975164,-32755.912737450697
42578,25868,-3339,-11517,22016,-2304,-6920,15861,-8465,9756,37,1,15642,2020-11-02 15:00:46,2020-11-02 15:01:15,2,D7:F2:3B:06:4D:C8,37,37,-3228.526331696373,16926.045698578575,22716.276735749918
42579,16139,1015,18946,-7681,-10238,-23561,19958,-24849,-30182,37,1,15667,2020-11-02 15:00:46,2020-11-02 15:01:15,2,D7:F2:3B:06:4D:C8,37,37,-3460.794881504391,-24667.166216849513,-47.661498831865174
42580,24073,18680,-12800,-21251,4866,16887,18423,27631,-17128,37,1,15693,2020-11-02 15:00:46,2020-11-02 15:01:15,2,D7:F2:3B:06:4D:C8,37,37,-3803.932317790146,31786.419367496266,8212.513118122251
42581,4103,-5895,19457,-14598,13057,26615,-11529,8175,-1514,37,1,15719,2020-11-02 15:00:46,2020-11-02 15:01:15,2,D7:F2:3B:06:4D:C8,37,37,-85.96018604006986,20145.385635192695,-4931.179519728303
42582,-12541,-29445,16900,32504,-27392,-31752,-7177,-13586,23573,37,1,15744,2020-11-02 15:00:46,2020-11-02 15:01:15,2,D7:F2:3B:06:4D:C8,37,37,15464.530651945628,20488.13254154997,-25514.29839668172
42583,-14337,27388,2057,19960,-4864,-20485,-30729,-25874,10772,37,1,15770,2020-11-02 15:00:46,2020-11-02 15:01:15,2,D7:F2:3B:06:4D:C8,37,37,11163.39458178426,28114.085707280006,-6697.773380393189
42584,10239,-22019,266,4602,-8192,3840,-14602,-22034,-14317,37,1,15795,2020-11-02 15:00:46,2020-11-02 15:01:15,2,D7:F2:3B:06:4D:C8,37,37,13939.551454010054,7858.254999369467,-18266.936569274305
42585,-7683,-9732,1290,28411,25602,2051,-7435,5359,-1773,37,1,15821,2020-11-02 15:00:46,2020-11-02 15:01:15,2,D7:F2:3B:06:4D:C8,37,37,-7683.0,-4172.72447030655,8886.185598720349
42586,-14595,4600,-3316,32763,-22271,-5882,-18188,-11281,-19180,37,1,15847,2020-11-02 15:00:46,2020-11-02 15:01:15,2,D7:F2:3B:06:4D:C8,37,37,9292.075479996778,6397.237574493106,-10858.294787375053
42587,-4606,-26379,-1522,-5126,15613,1803,-10766,-30224,30230,37,1,15872,2020-11-02 15:00:46,2020-11-02 15:01:15,2,D7:F2:3B:06:4D:C8,37,37,-9451.750401101106,-22808.258552809883,10480.034214803882
42588,32515,-6668,-2545,31483,-20485,24588,-23568,12273,-13288,37,1,15898,2020-11-02 15:00:46,2020-11-02 15:01:15,2,D7:F2:3B:06:4D:C8,37,37,12625.490637055533,12485.420236086544,-28158.04932345179
42589,-9725,-17166,17686,-8451,-19971,-6130,-18962,16114,12059,37,1,15923,2020-11-02 15:00:46,2020-11-02 15:01:15,2,D7:F2:3B:06:4D:C8,37,37,-13697.65296364916,-16904.655876185614,15121.13388589548
42590,24594,-527,-19943,-16634,9992,9483,-28946,11508,23580,37,1,15949,2020-11-02 15:00:46,2020-11-02 15:01:15,2,D7:F2:3B:06:4D:C8,37,37,24712.360772337837,-416.06852990241623,-19798.78597379756
42591,-9197,24562,7698,17675,13576,-5119,19952,-17163,-485,37,1,15975,2020-11-02 15:00:46,2020-11-02 15:01:15,2,D7:F2:3B:06:4D:C8,37,37,7605.22649073534,-25402.537523544997,-6633.812960093594
42592,17930,3062,29198,23048,13571,29952,3314,25590,28699,37,1,16000,2020-11-02 15:00:46,2020-11-02 15:01:15,2,D7:F2:3B:06:4D:C8,37,37,-6656.363637835802,33296.4672675069,-5515.617701104589
42593,-30196,31223,29455,-3835,-10498,23556,-5902,-25610,-10725,37,1,16026,2020-11-02 15:00:46,2020-11-02 15:01:15,2,D7:F2:3B:06:4D:C8,37,37,41480.3026650102,12494.700738199943,29623.26981077501
42594,-19437,-10506,30478,-28410,9983,19972,-28941,-10762,-27876,37,1,16051,2020-11-02 15:00:46,2020-11-02 15:01:15,2,D7:F2:3B:06:4D:C8,37,37,30452.257781351254,14013.606183244883,-17127.764791678244
42595,-25836,-24844,-3574,-24057,31230,-29440,31732,-16138,285,37,-1,16077,2020-11-02 15:00:46,2020-11-02 15:01:15,2,D7:F2:3B:06:4D:C8,37,37,-9989.2373296838,-10474.49869329445,-32984.795325959276
42596,1297,15860,-21752,-13049,-19715,23805,-22027,20470,-3556,37,-1,16102,2020-11-02 15:00:46,2020-11-02 15:01:15,2,D7:F2:3B:06:4D:C8,37,37,1439.0530634581426,-18770.923411401294,-19286.079787345545
42597,18447,-26636,26117,18951,3837,15867,-3594,-25611,-28644,37,-1,16128,2020-11-02 15:00:46,2020-11-02 15:01:15,2,D7:F2:3B:06:4D:C8,37,37,15120.137039656798,23243.617889082183,-31031.946077040302
42598,-22771,15349,-25087,-9212,1788,21241,9208,-17164,-9445,37,-1,16154,2020-11-02 15:00:46,2020-11-02 15:01:15,2,D7:F2:3B:06:4D:C8,37,37,30175.640852266988,7423.911428684893,-20439.76636984967
42599,24587,19957,-2307,4351,22775,18680,-16392,22003,3099,37,-1,16179,2020-11-02 15:00:46,2020-11-02 15:01:15,2,D7:F2:3B:06:4D:C8,37,37,-26766.346585527557,-10402.791580658168,13545.083417713038
42600,17160,14069,-11008,-18184,13303,27128,23544,-28687,19482,37,-1,16205,2020-11-02 15:00:46,2020-11-02 15:01:15,2,D7:F2:3B:06:4D:C8,37,37,931.6970390072465,17571.358304593785,-17434.38364150244
42601,-21753,3830,-3579,28918,-27399,-13576,28663,5872,-31975,37,-1,16230,2020-11-02 15:00:46,2020-11-02 15:01:15,2,D7:F2:3B:06:4D:C8,37,37,-2203.692113411027,-15718.477465889759,15771.631406535149
42602,-7673,15351,18183,23287,-13573,8440,-21002,-4370,-30952,37,-1,16256,2020-11-02 15:00:46,2020-11-02 15:01:15,2,D7:F2:3B:06:4D:C8,37,37,9936.006265401616,-10940.873569715075,-20167.36680941292
42603,-26874,-25353,-8954,-1288,-4354,5879,32502,4846,6423,37,-1,16281,2020-11-02 15:00:46,2020-11-02 15:01:15,2,D7:F2:3B:06:4D:C8,37,37,-1243.44303510804,-31138.524481503388,21771.69592689682
42604,11013,29176,-19196,3578,-12288,17399,-11018,-27411,18453,37,-1,16307,2020-11-02 15:00:46,2020-11-02 15:01:15,2,D7:F2:3B:06:4D:C8,37,37,33346.30342992087,-4360.4508875140655,14492.138441832027
42605,-24061,-3848,28418,-27656,26880,-13064,1783,13549,-24301,37,-1,16333,2020-11-02 15:00:46,2020-11-02 15:01:15,2,D7:F2:3B:06:4D:C8,37,37,-20523.120066196574,29649.10519894076,10052.544585856034
42606,29953,-2055,14598,-26891,-2561,15355,-32266,-6676,26642,37,-1,16358,2020-11-02 15:00:46,2020-11-02 15:01:15,2,D7:F2:3B:06:4D:C8,37,37,-20419.802697006067,-1334.7568220395333,26377.20455320015
42607,32513,7931,8717,-21771,-17153,12287,13557,-17684,-3567,37,-1,16384,2020-11-02 15:00:46,2020-11-02 15:01:15,2,D7:F2:3B:06:4D:C8,37,37,-32693.412275601895,-11226.806230294855,1040.016656085832
42608,-18173,-1285,9744,-20231,-21759,-28158,-7437,237,5906,37,-1,16409,2020-11-02 15:00:46,2020-11-02 15:01:15,2,D7:F2:3B:06:4D:C8,37,37,-16134.15759546388,-11237.080800937641,6345.995883857301
42609,-24574,-517,15376,21501,-23805,4357,1523,-14611,30738,37,1,16435,2020-11-02 15:00:46,2020-11-02 15:01:15,2,D7:F2:3B:06:4D:C8,37,37,-1560.905392373144,3454.0736178817133,-28743.748725563164
42610,-258,-22790,-6899,-3843,-26878,29961,8946,-5394,21779,37,1,16460,2020-11-02 15:00:46,2020-11-02 15:01:15,2,D7:F2:3B:06:4D:C8,37,37,1173.8526512680542,6406.641618716214,-22904.669351956258
42611,21766,-31496,-5105,-1028,23293,21773,24048,3568,24085,37,1,16486,2020-11-02 15:00:46,2020-11-02 15:01:15,2,D7:F2:3B:06:4D:C8,37,37,-1570.6822201888476,-27403.891655948137,27173.102076727246
42612,18955,-10763,-17902,-8962,-2567,2317,26094,-5904,-1769,37,1,16512,2020-11-02 15:00:46,2020-11-02 15:01:15,2,D7:F2:3B:06:4D:C8,37,37,-6459.238838448683,-6513.111979647476,26673.45879274843
42613,1808,24052,-11245,-22013,15614,-16375,28141,-15119,26,37,1,16537,2020-11-02 15:00:46,2020-11-02 15:01:15,2,D7:F2:3B:06:4D:C8,37,37,9115.65782214515,-24231.68042874925,6160.197973160823
42614,18703,26611,-7663,-24568,14594,-13051,4590,-21518,-16614,37,1,16563,2020-11-02 15:00:46,2020-11-02 15:01:15,2,D7:F2:3B:06:4D:C8,37,37,31452.595485863127,4778.996180255951,10225.68001219291
42615,-29169,-8974,18447,-17910,5122,-13308,28655,29939,6171,37,1,16588,2020-11-02 15:00:46,2020-11-02 15:01:15,2,D7:F2:3B:06:4D:C8,37,37,-24383.160823372957,-9946.340502423409,-24045.51569152514
42616,-10223,-27662,-6901,5899,13056,-1789,-7696,-269,-29157,37,1,16614,2020-11-02 15:00:46,2020-11-02 15:01:15,2,D7:F2:3B:06:4D:C8,37,37,17000.51743407972,-15689.877007902474,19548.14416896
42617,-28398,-12558,26120,-27895,7165,514,7410,-13,10780,37,1,16640,2020-11-02 15:00:46,2020-11-02 15:01:15,2,D7:F2:3B:06:4D:C8,37,37,8860.851346300704,-39437.531434238546,3545.5036020582465
42618,-19952,21235,8198,-17401,-13573,-6913,6387,-31245,-20964,37,1,16665,2020-11-02 15:00:46,2020-11-02 15:01:15,2,D7:F2:3B:06:4D:C8,37,37,-14919.540217444459,-6747.915757270885,25457.56637294368
42619,-25329,9972,26372,-24826,-30213,2046,-781,-12814,-3556,37,-1,16691,2020-11-02 15:00:46,2020-11-02 15:01:15,2,D7:F2:3B:06:4D:C8,37,37,-13439.408517344307,9972.0,-34006.21889748893
42620,6158,-8716,-14335,7173,-26884,15868,-8460,-15,-8932,37,-1,16716,2020-11-02 15:00:46,2020-11-02 15:01:15,2,D7:F2:3B:06:4D:C8,37,37,-10785.769037521959,-14243.599717547655,-410.97245103415753
42621,29453,-13323,12802,4868,-3586,8442,-7947,22257,14876,37,-1,16742,2020-11-02 15:00:46,2020-11-02 15:01:15,2,D7:F2:3B:06:4D:C8,37,37,7819.637079692677,-25674.68706564188,-22102.86094656655
42622,-12021,-23050,27393,-31229,17921,24568,10487,-5904,795,37,-1,16768,2020-11-02 15:00:46,2020-11-02 15:01:15,2,D7:F2:3B:06:4D:C8,37,37,-2628.0739341530443,-35504.38283710333,-12598.230699309639
42623,11274,-13577,4096,-11519,6659,10999,-28936,-15376,22553,37,-1,16793,2020-11-02 15:00:46,2020-11-02 15:01:15,2,D7:F2:3B:06:4D:C8,37,37,-4931.569125716631,8560.649121004204,15185.85307400702
42624,-18681,23801,-29697,25087,-23549,-24330,-15111,-12816,29975,37,-1,16819,2020-11-02 15:00:46,2020-11-02 15:01:15,2,D7:F2:3B:06:4D:C8,37,37,-30792.26738706624,-26019.202593648926,-13123.129830725218
42625,-28923,22522,-11009,-13060,27139,-7434,-26374,-3088,-29419,37,-1,16844,2020-11-02 15:00:46,2020-11-02 15:01:15,2,D7:F2:3B:06:4D:C8,37,37,-2077.1009371191303,-29547.489574922365,24240.66842141266
42626,22530,-14598,-23553,30713,24834,18936,-10758,3057,-8685,37,-1,16870,2020-11-02 15:00:46,2020-11-02 15:01:15,2,D7:F2:3B:06:4D:C8,37,37,-11141.204187788882,-33928.22667477696,-441.9467738866224
42627,4094,1275,-22269,15094,-11519,-1542,17658,7921,-24558,37,-1,16896,2020-11-02 15:00:46,2020-11-02 15:01:15,2,D7:F2:3B:06:4D:C8,37,37,-15093.75118355672,14599.128987666281,8563.815155079084
42628,-13573,6649,9228,-31244,6144,7936,-11016,13809,13074,37,-1,16921,2020-11-02 15:00:46,2020-11-02 15:01:15,2,D7:F2:3B:06:4D:C8,37,37,-12447.49348918144,-93.93434227870887,12595.340256464942
42629,10240,-27913,-7919,-6923,-3076,-23803,-20490,15857,-238,37,-1,16947,2020-11-02 15:00:46,2020-11-02 15:01:15,2,D7:F2:3B:06:4D:C8,37,37,6449.119264063998,26516.131213782144,-14212.92989398621
42630,18179,15095,-28398,4088,-26373,11016,24308,20209,-26092,37,-1,16972,2020-11-02 15:00:46,2020-11-02 15:01:15,2,D7:F2:3B:06:4D:C8,37,37,34837.36198008355,7639.369654706545,-9632.222565294967
42631,3847,11256,12051,-31750,9467,14600,16114,28401,30486,37,-1,16998,2020-11-02 15:00:46,2020-11-02 15:01:15,2,D7:F2:3B:06:4D:C8,37,37,-16833.493637020543,1762.4964436451792,-500.6438439919166
42632,-30713,25593,19,-12291,28926,-6651,-5904,-18703,-10217,37,-1,17023,2020-11-02 15:00:46,2020-11-02 15:01:15,2,D7:F2:3B:06:4D:C8,37,37,29718.779989981267,-20661.666776947914,16975.86583669464
42633,6919,-26630,-8173,-32768,3841,-22780,32240,16626,-32744,37,-1,17049,2020-11-02 15:00:46,2020-11-02 15:01:15,2,D7:F2:3B:06:4D:C8,37,37,19930.89182471118,13117.729755260192,-15953.435590480896
42634,16904,3834,23316,23810,27649,-27899,-32016,-3598,281,37,-1,17074,2020-11-02 15:00:46,2020-11-02 15:01:15,2,D7:F2:3B:06:4D:C8,37,37,16904.0,-21270.717568979726,10290.383185319057
42635,11532,-20233,-21485,-22525,-28417,-2042,-26640,-24589,-10727,37,-1,17100,2020-11-02 15:00:46,2020-11-02 15:01:15,2,D7:F2:3B:06:4D:C8,37,37,20219.296669980973,23081.74771080091,-7898.069560736556
42636,13585,17909,-30448,12549,-26371,-13306,-17424,7412,-2278,37,-1,17126,2020-11-02 15:00:46,2020-11-02 15:01:15,2,D7:F2:3B:06:4D:C8,37,37,30578.047084618927,-22026.597627024214,3489.590730730326
42637,-25580,4083,16140,-19962,27133,1540,8945,15860,796,37,-1,17151,2020-11-02 15:00:46,2020-11-02 15:01:15,2,D7:F2:3B:06:4D:C8,37,37,21698.642230558373,-11375.287379939835,18201.06181996013
42638,-20204,29170,-25592,5384,7679,-23553,4594,6900,26652,37,-1,17177,2020-11-02 15:00:46,2020-11-02 15:01:15,2,D7:F2:3B:06:4D:C8,37,37,43287.44423296404,5492.359592321427,3173.6631652813085
42639,11282,5363,-3324,12296,-7681,1020,31475,-13837,3612,37,-1,17202,2020-11-02 15:00:46,2020-11-02 15:01:15,2,D7:F2:3B:06:4D:C8,37,37,838.6554384059333,-1666.1839883409898,12791.198418155676
42640,-23538,-12556,23042,30470,-29185,5370,-4364,18419,19995,37,1,17228,2020-11-02 15:00:46,2020-11-02 15:01:15,2,D7:F2:3B:06:4D:C8,37,37,-24516.487237138288,16177.664913119484,-19489.724356954306
42641,-31221,9718,-3583,-21246,-3,-20230,1270,-21518,31514,37,1,17254,2020-11-02 15:00:46,2020-11-02 15:01:15,2,D7:F2:3B:06:4D:C8,37,37,18229.84352953249,-27367.19901915105,-858.7646563177182
42642,7179,25336,1281,-27392,25340,-20486,-32522,-12303,-5607,37,1,17279,2020-11-02 15:00:46,2020-11-02 15:01:15,2,D7:F2:3B:06:4D:C8,37,37,-25409.589395844403,5958.483135052819,-3733.7840676561486
42643,-15606,-27399,-14335,14336,-23554,2297,2295,3313,2841,37,1,17305,2020-11-02 15:00:46,2020-11-02 15:01:15,2,D7:F2:3B:06:4D:C8,37,37,-15606.0,-27399.0,-14335.0
42644,1800,32249,-13056,-17153,-6142,4343,-265,-18192,31767,37,1,17330,2020-11-02 15:00:46,2020-11-02 15:01:15,2,D7:F2:3B:06:4D:C8,37,37,30941.50378193076,9089.829596830627,13179.358050123175
42645,12036,11514,28161,-12547,-29181,6647,-2312,-14352,-27371,37,1,17356,2020-11-02 15:00:46,2020-11-02 15:01:15,2,D7:F2:3B:06:4D:C8,37,37,11297.781532554702,-30695.91535028196,-774.8072347301713
42646,26112,-29447,4355,-16391,-21759,32249,15353,-12560,1812,37,1,17382,2020-11-02 15:00:46,2020-11-02 15:01:15,2,D7:F2:3B:06:4D:C8,37,37,15128.933089399423,8294.28560197786,35640.54696450797
42647,510,-24583,265,30709,-9219,-30979,19192,-28176,19987,37,1,17407,2020-11-02 15:00:46,2020-11-02 15:01:15,2,D7:F2:3B:06:4D:C8,37,37,-303.38788337542263,-24501.978272099524,2053.102663235237
42648,-26626,5882,-19953,9716,12538,-22782,13814,4080,-15597,37,1,17433,2020-11-02 15:00:46,2020-11-02 15:01:15,2,D7:F2:3B:06:4D:C8,37,37,25352.145114749423,17679.347303261173,13651.865294213792
42649,-14847,26617,3605,19959,-5127,16134,-21261,-22801,16149,37,1,17458,2020-11-02 15:00:46,2020-11-02 15:01:15,2,D7:F2:3B:06:4D:C8,37,37,16951.08671128397,25059.21518234912,5156.59933980284
42650,12550,7417,-8684,11517,28156,-31481,-14095,-14865,-4074,37,1,17484,2020-11-02 15:00:46,2020-11-02 15:01:15,2,D7:F2:3B:06:4D:C8,37,37,-2376.141865320957,-10982.899941224376,12714.405362301559
42651,-7671,-263,-28399,-7680,8447,-22010,-7952,16624,18968,37,1,17509,2020-11-02 15:00:46,2020-11-02 15:01:15,2,D7:F2:3B:06:4D:C8,37,37,13845.526052478745,22308.40469167444,13268.500271040815
42652,21257,-18182,5905,31489,-27136,-26619,-26640,-8720,8729,37,1,17535,2020-11-02 15:00:46,2020-11-02 15:01:15,2,D7:F2:3B:06:4D:C8,37,37,7976.333161378696,26147.366662651053,8367.049892738478
42653,-11772,-5127,-16886,-15104,-26369,27143,19440,-28943,-487,37,1,17561,2020-11-02 15:00:46,2020-11-02 15:01:15,2,D7:F2:3B:06:4D:C8,37,37,11997.275524837125,7458.643986169402,15825.205176196709
42654,19981,-29961,11290,-3846,8948,-29679,17390,18930,-27364,37,1,17586,2020-11-02 15:00:46,2020-11-02 15:01:15,2,D7:F2:3B:06:4D:C8,37,37,-6891.120161121322,-34962.02309150211,12431.226257866118
42655,-11490,-1550,-6376,14600,-16132,5126,10221,-28686,25887,37,1,17612,2020-11-02 15:00:46,2020-11-02 15:01:15,2,D7:F2:3B:06:4D:C8,37,37,8533.822773414913,2953.7011955316693,9670.857982591811
42656,-26353,-32529,-7418,22286,13572,-5891,25839,-11534,-2018,37,1,17637,2020-11-02 15:00:46,2020-11-02 15:01:15,2,D7:F2:3B:06:4D:C8,37,37,-15827.328505635302,15648.41243287822,-36225.212693719914
42657,-29163,16112,-32506,17161,14591,-5379,17393,-13838,-28130,37,-1,17663,2020-11-02 15:00:46,2020-11-02 15:01:15,2,D7:F2:3B:06:4D:C8,37,37,21145.464570977085,-7097.794701031082,-40855.93943919988
42658,25617,15857,14083,-8439,11778,11771,1011,27890,-995,37,-1,17689,2020-11-02 15:00:46,2020-11-02 15:01:15,2,D7:F2:3B:06:4D:C8,37,37,-27402.438177084703,15857.0,10181.746409680949
42659,-22770,-32013,14333,-24569,-5888,-17414,-9740,13554,2333,37,-1,17714,2020-11-02 15:00:46,2020-11-02 15:01:15,2,D7:F2:3B:06:4D:C8,37,37,41012.06557427868,-5235.894092505176,6271.829747620373
42660,-3318,-17163,15866,-30719,7678,-2566,-9227,-20495,18204,37,-1,17740,2020-11-02 15:00:46,2020-11-02 15:01:15,2,D7:F2:3B:06:4D:C8,37,37,-612.0308735354498,-4031.5460786283256,-23252.520367171728
42661,-28149,-12042,22017,22014,-12547,-16646,758,-4880,-19429,37,-1,17765,2020-11-02 15:00:46,2020-11-02 15:01:15,2,D7:F2:3B:06:4D:C8,37,37,26167.931649749018,15893.876750939766,22017.0
42662,4104,32758,-2048,31999,23554,31481,-30986,-26384,-27110,37,-1,17791,2020-11-02 15:00:46,2020-11-02 15:01:15,2,D7:F2:3B:06:4D:C8,37,37,-22016.8976097618,8271.113021724877,-23258.731543726073
42663,-18430,7926,-5383,-10244,31234,9723,759,-23824,23833,37,-1,17816,2020-11-02 15:00:46,2020-11-02 15:01:15,2,D7:F2:3B:06:4D:C8,37,37,787.0571101438436,-11214.60224060357,17466.43359963394
42664,-3321,21494,10750,-22793,-9472,-31236,24822,-28688,-20200,37,-1,17842,2020-11-02 15:00:46,2020-11-02 15:01:15,2,D7:F2:3B:06:4D:C8,37,37,22211.11636871144,9139.687537354393,-3422.86406026991
42665,25349,24566,19202,-11,24579,-1543,-29963,-31760,-22761,37,-1,17868,2020-11-02 15:00:46,2020-11-02 15:01:15,2,D7:F2:3B:06:4D:C8,37,37,-36267.81512834639,6390.658850942149,-16080.485884044785
42666,-28156,5367,14086,-24842,-21754,-1545,7157,-17168,-4075,37,-1,17893,2020-11-02 15:00:46,2020-11-02 15:01:15,2,D7:F2:3B:06:4D:C8,37,37,690.0958646292329,-8953.157816409725,-30648.738209134863
42667,20223,23031,29706,-15882,11271,19192,-1292,12785,-8941,37,1,17920,2020-11-02 15:00:46,2020-11-02 15:01:15,2,D7:F2:3B:06:4D:C8,37,37,29427.299904585852,-3204.1673932290723,-30750.77978916517
42668,18684,22520,-19440,-23307,4865,1277,14580,27633,-24046,37,1,17944,2020-11-02 15:00:46,2020-11-02 15:01:15,2,D7:F2:3B:06:4D:C8,37,37,15829.040105728527,-31033.076161584337,-4532.717648447085
42669,-10244,-32520,8470,-15883,761,-11261,17650,5617,14611,37,1,17970,2020-11-02 15:00:46,2020-11-02 15:01:15,2,D7:F2:3B:06:4D:C8,37,37,-23924.54781549529,-22215.090786913344,-12974.459108312654
42670,9219,-26888,13337,22266,13049,-26360,-4625,-1808,9237,37,1,17996,2020-11-02 15:00:46,2020-11-02 15:01:15,2,D7:F2:3B:06:4D:C8,37,37,27606.518797313103,-6770.127391238545,13337.0
42671,-27640,22008,18966,17408,-27651,-27896,-27154,30961,-4842,37,1,18021,2020-11-02 15:00:46,2020-11-02 15:01:15,2,D7:F2:3B:06:4D:C8,37,37,-11924.197837274707,-28738.90493397654,-25296.633553368163
42672,-9975,23031,7698,-8958,16384,29446,24302,15090,-4841,37,1,18047,2020-11-02 15:00:46,2020-11-02 15:01:15,2,D7:F2:3B:06:4D:C8,37,37,-16273.271186042879,-9228.200623229415,18417.59344113489
42673,6918,502,1552,-2559,-17666,24071,19438,-4110,-13544,37,1,18072,2020-11-02 15:00:46,2020-11-02 15:01:15,2,D7:F2:3B:06:4D:C8,37,37,-3529.9557587945737,-5992.560758528225,-1465.626110677838
42674,-30961,-31500,-19181,3076,14076,30984,-4883,-30221,17946,37,1,18098,2020-11-02 15:00:46,2020-11-02 15:01:15,2,D7:F2:3B:06:4D:C8,37,37,31348.911866641338,27349.743960371874,24248.330088475286
42675,25619,16880,-28405,4105,4353,4358,-29202,11508,16411,37,1,18123,2020-11-02 15:00:46,2020-11-02 15:01:15,2,D7:F2:3B:06:4D:C8,37,37,-27761.033185265183,-16300.558061008524,-26678.238873401955
42676,-15076,-18450,27138,26119,-29953,20227,-28689,-21260,-14053,37,1,18149,2020-11-02 15:00:46,2020-11-02 15:01:15,2,D7:F2:3B:06:4D:C8,37,37,-35219.743144554144,-1846.38560171467,7766.586962199798
42677,-4068,2031,4610,-14334,-18948,28412,6128,13300,540,37,1,18175,2020-11-02 15:00:46,2020-11-02 15:01:15,2,D7:F2:3B:06:4D:C8,37,37,5511.771941540819,-2781.827256746211,1951.279625801285
42678,-20207,-17935,-22528,511,-16390,29176,17136,-3086,-19941,37,1,18200,2020-11-02 15:00:46,2020-11-02 15:01:15,2,D7:F2:3B:06:4D:C8,37,37,23948.83507182303,-24816.941775830026,-6933.293416384578
42679,3344,31221,8200,-21761,-11270,6391,18416,28657,16411,37,1,18226,2020-11-02 15:00:46,2020-11-02 15:01:15,2,D7:F2:3B:06:4D:C8,37,37,27281.25369326704,17443.280546876762,2153.6800334669333
42680,-22006,-23563,-19195,31749,5123,-11277,-15887,20208,-22503,37,-1,18251,2020-11-02 15:00:46,2020-11-02 15:01:15,2,D7:F2:3B:06:4D:C8,37,37,-26756.40503223986,3911.577226952224,-26013.869057645345
42681,5642,22005,18180,-25337,24839,-24846,-22540,2032,-10730,37,-1,18277,2020-11-02 15:00:46,2020-11-02 15:01:15,2,D7:F2:3B:06:4D:C8,37,37,-13124.033014130291,-15131.769876451597,-21103.409365553478
42682,12038,-31753,-8703,6661,-25338,-28430,-28169,8944,-13293,37,-1,18303,2020-11-02 15:00:46,2020-11-02 15:01:15,2,D7:F2:3B:06:4D:C8,37,37,28577.909501537153,-3257.932818596957,-20039.900804930683
42683,-11005,15609,22785,-5376,-1534,24564,-23559,11248,11793,37,-1,18328,2020-11-02 15:00:46,2020-11-02 15:01:15,2,D7:F2:3B:06:4D:C8,37,37,28510.082600941772,3658.139993705853,7596.073516885361
42684,-12798,-23812,31745,-25092,-15616,-29195,-15878,-2577,2319,37,-1,18354,2020-11-02 15:00:46,2020-11-02 15:01:15,2,D7:F2:3B:06:4D:C8,37,37,-12798.0,38774.93528644182,8441.609001384095
42685,-2564,-16385,-8701,25081,9727,16119,11771,-24337,8461,37,-1,18379,2020-11-02 15:00:46,2020-11-02 15:01:15,2,D7:F2:3B:06:4D:C8,37,37,-16101.233108976947,2187.002228140079,9312.198216559551
42686,-28164,-11776,27399,17912,25341,-5125,-12550,9967,-501,37,-1,18405,2020-11-02 15:00:46,2020-11-02 15:01:15,2,D7:F2:3B:06:4D:C8,37,37,-15801.156551494885,29814.385344776,23324.15381419777
42687,-8199,7168,-9979,3321,19710,10241,-13319,-9490,-8437,37,-1,18430,2020-11-02 15:00:46,2020-11-02 15:01:15,2,D7:F2:3B:06:4D:C8,37,37,-11463.673517738796,-4461.33743275899,-8177.09751621917
42688,1020,13819,25607,19961,-29442,15366,7928,-6418,-11508,37,-1,18456,2020-11-02 15:00:46,2020-11-02 15:01:15,2,D7:F2:3B:06:4D:C8,37,37,-4116.457393178744,24842.254992746704,14616.454953424767
42689,-13313,-10508,-17651,26872,28154,-27894,-26379,1007,-9714,37,-1,18482,2020-11-02 15:00:46,2020-11-02 15:01:15,2,D7:F2:3B:06:4D:C8,37,37,9827.22745995706,22131.094230369647,3584.982931167906
42690,31238,-14863,18709,5115,20731,-2804,-24334,18159,-18415,37,-1,18507,2020-11-02 15:00:46,2020-11-02 15:01:15,2,D7:F2:3B:06:4D:C8,37,37,33268.74577938123,9231.179480379917,18834.117278702386
42691,-17911,-5903,25363,-22015,-31231,-11254,10993,22512,-17389,37,-1,18558,2020-11-02 15:00:46,2020-11-02 15:01:15,2,D7:F2:3B:06:4D:C8,37,37,-22236.763799875665,21609.84137356831,-6121.453301116851
42692,-19452,17394,-18423,15105,4608,-23542,-25616,-30223,8981,37,-1,18560,2020-11-02 15:00:46,2020-11-02 15:01:15,2,D7:F2:3B:06:4D:C8,37,37,7912.939730560268,17085.998555426006,25802.955396320416
42693,-22002,23028,11792,21248,11002,11274,23535,12274,15127,37,-1,18584,2020-11-02 15:00:46,2020-11-02 15:01:15,2,D7:F2:3B:06:4D:C8,37,37,11273.080139163332,-9906.821641542672,30466.384773035723
42694,-1778,25333,-32243,29699,-30722,23047,-9490,-18958,-17384,37,-1,18610,2020-11-02 15:00:46,2020-11-02 15:01:15,2,D7:F2:3B:06:4D:C8,37,37,-9051.810780723685,12289.667931878977,38099.3701485224
42695,-2797,20469,-26102,12804,9470,-26619,-6930,12531,-14567,37,-1,18635,2020-11-02 15:00:46,2020-11-02 15:01:15,2,D7:F2:3B:06:4D:C8,37,37,1454.2618167753517,29381.418289792346,15579.953653606462
42696,276,9203,-759,5892,-16899,-3582,8687,21747,-30950,37,-1,18661,2020-11-02 15:00:46,2020-11-02 15:01:15,2,D7:F2:3B:06:4D:C8,37,37,-5164.524996985363,2322.093833494911,-7299.522435334948
42697,23059,-27918,16135,-18942,-9478,3074,8943,4339,25883,37,-1,18686,2020-11-02 15:00:46,2020-11-02 15:01:15,2,D7:F2:3B:06:4D:C8,37,37,-36763.307158557756,1283.1633247267764,-14774.409248684418
42698,18965,1012,-8439,-17150,-6150,-12289,1519,-30734,13340,37,-1,18712,2020-11-02 15:00:46,2020-11-02 15:01:15,2,D7:F2:3B:06:4D:C8,37,37,208.67610915161276,-2887.7995542696362,-20579.824052110587
42699,12307,-6924,-2041,-19195,-11266,5371,-19473,-11791,12828,37,-1,18738,2020-11-02 15:00:46,2020-11-02 15:01:15,2,D7:F2:3B:06:4D:C8,37,37,-2705.4336735947427,-9868.2433014214,9943.244379061158
42700,5647,27637,11780,-249,18691,16120,-31503,20209,-230,37,-1,18763,2020-11-02 15:00:46,2020-11-02 15:01:15,2,D7:F2:3B:06:4D:C8,37,37,-1378.9965560519015,-3456.556135884587,-30341.578175465354
42701,-1779,14070,-27903,14855,23300,-9737,-18701,7153,18713,37,-1,18789,2020-11-02 15:00:46,2020-11-02 15:01:15,2,D7:F2:3B:06:4D:C8,37,37,-17884.952389761944,20596.914327610182,15349.356605311992
42702,-28404,21495,-17409,20740,28419,22007,-25099,-3088,-31209,37,-1,18814,2020-11-02 15:00:46,2020-11-02 15:01:15,2,D7:F2:3B:06:4D:C8,37,37,-7218.182672543224,-27485.459722346055,27646.751432258538
42703,30218,-2824,-24834,-19968,-26622,-24330,2807,-18448,-18667,37,-1,18840,2020-11-02 15:00:46,2020-11-02 15:01:15,2,D7:F2:3B:06:4D:C8,37,37,25748.18771710325,6522.862022024824,28849.83806412853
42704,8199,-32518,-4866,-20739,-23806,12534,4088,-31760,-15085,37,-1,18866,2020-11-02 15:00:46,2020-11-02 15:01:15,2,D7:F2:3B:06:4D:C8,37,37,-28594.592299358195,15660.36367147987,-9242.520322427132
42705,3588,12026,29694,-1286,27649,25335,-25352,18672,-3567,37,-1,18891,2020-11-02 15:00:46,2020-11-02 15:01:15,2,D7:F2:3B:06:4D:C8,37,37,-5006.75626788621,-30333.211480179416,9698.49106679455
42706,30721,10747,4863,-24585,27392,25081,28664,752,-31728,37,-1,18917,2020-11-02 15:00:46,2020-11-02 15:01:15,2,D7:F2:3B:06:4D:C8,37,37,1319.386137302351,31646.649111561463,-8926.10997189708
42707,-32515,28412,7682,4085,-5888,29691,-27401,-11537,30479,37,1,18943,2020-11-02 15:00:46,2020-11-02 15:01:15,2,D7:F2:3B:06:4D:C8,37,37,-23796.201440193945,-5521.793878160729,-36424.31443946225
42708,25336,-7432,-27638,-16653,-16128,-16385,6646,-7697,-2802,37,1,18968,2020-11-02 15:00:46,2020-11-02 15:01:15,2,D7:F2:3B:06:4D:C8,37,37,31517.082007388468,19241.04834090863,9872.292767253588
42709,-30982,-27148,-745,11510,-258,-8441,-13325,17392,-11249,37,1,18993,2020-11-02 15:00:46,2020-11-02 15:01:15,2,D7:F2:3B:06:4D:C8,37,37,27414.50721541241,-23039.665968069352,-20373.31193536995
42710,24067,8692,6682,-24068,32255,-7412,-18703,18673,-17903,37,1,19019,2020-11-02 15:00:46,2020-11-02 15:01:15,2,D7:F2:3B:06:4D:C8,37,37,23601.993000633498,11103.886511081282,4366.93344889458
42711,10001,-15885,11290,-26879,-9217,-23286,-25872,31730,-28141,37,1,19044,2020-11-02 15:00:46,2020-11-02 15:01:15,2,D7:F2:3B:06:4D:C8,37,37,-15406.67840175509,15024.982421594348,4086.745631388629
42712,-24816,-12812,31509,27908,19457,-17151,-10768,5363,13076,37,1,19070,2020-11-02 15:00:46,2020-11-02 15:01:15,2,D7:F2:3B:06:4D:C8,37,37,-7487.451669426544,-30718.089045451794,27805.311612957987
42713,-4856,-27144,-2288,-23292,-20480,22015,-20751,13299,20,37,1,19096,2020-11-02 15:00:46,2020-11-02 15:01:15,2,D7:F2:3B:06:4D:C8,37,37,7563.580929243273,26549.473749281515,1878.8568766670833
42714,-22009,-1031,26128,-2045,14336,2049,23282,17907,-1005,37,1,19121,2020-11-02 15:00:46,2020-11-02 15:01:15,2,D7:F2:3B:06:4D:C8,37,37,19488.751611250053,20447.64217051593,19240.94374768392
42715,11275,-27656,-32497,23300,-20737,8707,-10766,31987,21012,37,1,19147,2020-11-02 15:00:46,2020-11-02 15:01:15,2,D7:F2:3B:06:4D:C8,37,37,8225.383410658746,41542.85727660668,12432.580063814095
42716,31248,-11018,6670,23813,29951,5891,19955,-20237,-8940,37,1,19172,2020-11-02 15:00:46,2020-11-02 15:01:15,2,D7:F2:3B:06:4D:C8,37,37,-7705.878183029299,30447.287747245944,12486.185897411582
42717,-19439,17142,-4854,-9210,-6658,-24320,5876,-21261,12821,37,-1,19198,2020-11-02 15:00:46,2020-11-02 15:01:15,2,D7:F2:3B:06:4D:C8,37,37,-19451.2516339953,10430.47883746165,-14426.992829147028
42718,-26352,-4875,-8185,25607,32766,29438,10485,25331,14357,37,-1,19224,2020-11-02 15:00:46,2020-11-02 15:01:15,2,D7:F2:3B:06:4D:C8,37,37,-13720.447468863116,19758.653885278894,-14371.244618888126
42719,-498,7670,9477,1287,27646,509,24822,-3086,-2540,37,-1,19249,2020-11-02 15:00:46,2020-11-02 15:01:15,2,D7:F2:3B:06:4D:C8,37,37,-498.0,2158.7706760093324,-11999.255733936261
42720,9486,-12810,3331,22789,-13571,9724,-32009,27634,-30444,37,-1,19275,2020-11-02 15:00:46,2020-11-02 15:01:15,2,D7:F2:3B:06:4D:C8,37,37,7222.793228868722,346.26541139957226,14590.655065413494
42721,-1525,32759,7168,-22782,-21507,26619,26616,-12559,-3053,37,-1,19300,2020-11-02 15:00:46,2020-11-02 15:01:15,2,D7:F2:3B:06:4D:C8,37,37,27438.357368436173,-15987.951089503833,10880.252519202735
42722,-9717,22520,19968,-14337,27389,-30982,-3848,7921,15123,37,-1,19326,2020-11-02 15:00:46,2020-11-02 15:01:15,2,D7:F2:3B:06:4D:C8,37,37,-25284.86241229377,1132.918209956677,18965.330002953346
42723,-26102,21497,-1537,-17667,1279,2809,22265,-30992,12050,37,-1,19351,2020-11-02 15:00:46,2020-11-02 15:01:15,2,D7:F2:3B:06:4D:C8,37,37,20417.73661704481,6005.5049325487325,26322.00075872122
42724,-20729,-24070,23808,-3077,-20224,10744,-18695,10992,-15600,37,-1,19377,2020-11-02 15:00:46,2020-11-02 15:01:15,2,D7:F2:3B:06:4D:C8,37,37,36447.69901459529,14304.793067799817,6543.34293988143
42725,4101,-5894,27649,-22790,-11775,30456,-2567,1776,13583,37,-1,19403,2020-11-02 15:00:46,2020-11-02 15:01:15,2,D7:F2:3B:06:4D:C8,37,37,3652.780857030737,6181.798202020978,27649.0
42726,-15102,-11270,15106,-2568,31490,9466,-7431,6128,-11763,37,-1,19428,2020-11-02 15:00:46,2020-11-02 15:01:15,2,D7:F2:3B:06:4D:C8,37,37,3238.1158827647023,-8837.36928034107,22241.628756291004
42727,-25089,22780,32517,-5898,-23552,26620,13817,8688,-7668,37,-1,19454,2020-11-02 15:00:46,2020-11-02 15:01:15,2,D7:F2:3B:06:4D:C8,37,37,-36916.17794419362,-14776.092324393705,24992.088980587952
42728,30458,12283,1037,10742,1281,-22784,-5641,14064,-26612,37,1,19479,2020-11-02 15:00:46,2020-11-02 15:01:15,2,D7:F2:3B:06:4D:C8,37,37,-1627.2195798705466,-16907.556057746704,-28126.925295756002
42729,-5379,-6919,-26604,-19721,-769,11270,6134,-23312,18701,37,1,19505,2020-11-02 15:00:46,2020-11-02 15:01:15,2,D7:F2:3B:06:4D:C8,37,37,9019.290458839318,-20122.318943002323,17272.049617088876
42730,-24572,-24328,19994,-23557,-27392,9736,24308,20465,-27634,37,1,19530,2020-11-02 15:00:46,2020-11-02 15:01:15,2,D7:F2:3B:06:4D:C8,37,37,-39879.52243345884,-1304.1189159013902,-1821.474219537733
42731,-24833,24056,-8176,-3842,-1024,-29688,27123,11762,-15345,37,1,19582,2020-11-02 15:00:46,2020-11-02 15:01:15,2,D7:F2:3B:06:4D:C8,37,37,-19357.96849614755,10355.761054848,27932.83497386279
42732,528,-17416,-18922,-4,-23559,32266,-6927,-14094,-19439,37,1,19584,2020-11-02 15:00:46,2020-11-02 15:01:15,2,D7:F2:3B:06:4D:C8,37,37,631.8320693958194,25678.359348737635,-1364.0283696395327
42733,-10740,-26121,-13290,-19711,-28418,-29693,11249,-11534,531,37,1,19607,2020-11-02 15:00:46,2020-11-02 15:01:15,2,D7:F2:3B:06:4D:C8,37,37,30985.14943976356,-2930.087143484734,2369.2708851259863
42734,-30197,-29194,18706,18437,-13568,-25598,-22543,7667,22035,37,1,19633,2020-11-02 15:00:46,2020-11-02 15:01:15,2,D7:F2:3B:06:4D:C8,37,37,23696.11406260502,-35238.27477866556,17630.117695445908
42735,-13810,-21002,22545,-29946,0,28162,28658,26099,-22765,37,1,19658,2020-11-02 15:00:46,2020-11-02 15:01:15,2,D7:F2:3B:06:4D:C8,37,37,13154.069999254167,-13944.723961315687,-27795.54361939031
42736,23056,15862,-23538,-28665,1535,-9983,22515,31475,1300,37,1,19684,2020-11-02 15:00:46,2020-11-02 15:01:15,2,D7:F2:3B:06:4D:C8,37,37,-17951.663065301156,-12381.578231363112,29353.942455665772
42737,1042,15350,-12533,18696,-6403,27136,24564,20211,23060,37,1,19710,2020-11-02 15:00:46,2020-11-02 15:01:15,2,D7:F2:3B:06:4D:C8,37,37,-13781.408607560428,13904.565945098133,3243.482028603915
42738,-9200,10486,-9977,-11512,766,-29442,-22795,-4366,27412,37,1,19735,2020-11-02 15:00:46,2020-11-02 15:01:15,2,D7:F2:3B:06:4D:C8,37,37,-2908.4351414535413,14668.397826027054,8397.370734066877
42739,30991,27126,-13565,-30713,254,8445,-778,29426,13844,37,1,19761,2020-11-02 15:00:46,2020-11-02 15:01:15,2,D7:F2:3B:06:4D:C8,37,37,-33737.09640944521,8533.177815653524,25870.14465027666
42740,-13044,10231,-16640,-10748,-26371,5372,8440,-8207,-15085,37,1,19786,2020-11-02 15:00:46,2020-11-02 15:01:15,2,D7:F2:3B:06:4D:C8,37,37,20557.770195121797,-2010.7867352431567,-11182.294858835203
42741,23819,-27912,16384,-9727,7677,26875,-7432,12785,14099,37,-1,19812,2020-11-02 15:00:46,2020-11-02 15:01:15,2,D7:F2:3B:06:4D:C8,37,37,-6935.4924754826225,18264.42529538042,-35116.51568353546
42742,-28151,-30215,20224,4607,-260,-20998,23033,-32528,30994,37,-1,19838,2020-11-02 15:00:46,2020-11-02 15:01:15,2,D7:F2:3B:06:4D:C8,37,37,33974.56186065551,8730.044775727078,29731.30785199824
42743,-22777,24058,24832,2812,3580,30458,28665,-19473,-22511,37,-1,19863,2020-11-02 15:00:46,2020-11-02 15:01:15,2,D7:F2:3B:06:4D:C8,37,37,-20238.939534885034,-33831.03596401583,12651.231130002123
42744,26374,-13318,-5376,22777,-29445,-20742,5625,-12050,-8432,37,-1,19889,2020-11-02 15:00:46,2020-11-02 15:01:15,2,D7:F2:3B:06:4D:C8,37,37,-14495.570532029931,-2073.65020821118,26219.015728377966
42745,6660,11257,-2048,23543,28924,16891,23800,-2835,10512,37,-1,19914,2020-11-02 15:00:46,2020-11-02 15:01:15,2,D7:F2:3B:06:4D:C8,37,37,11094.234996821448,791.1850335830018,-7180.66355415267
42746,16130,5113,27907,13301,-18947,9213,14327,26605,-24561,37,-1,19940,2020-11-02 15:00:46,2020-11-02 15:01:15,2,D7:F2:3B:06:4D:C8,37,37,24261.245844900306,13987.057135065119,16759.310867506803
42747,10495,-16392,28680,-3342,32506,24832,14069,-10260,-13297,37,-1,19968,2020-11-02 15:00:46,2020-11-02 15:01:15,2,D7:F2:3B:06:4D:C8,37,37,-29269.058849626406,-17679.11706824066,-5670.635127086584
42748,32766,-8200,-18927,-4110,-7947,22278,-19727,7404,-20719,37,-1,19991,2020-11-02 15:00:46,2020-11-02 15:01:15,2,D7:F2:3B:06:4D:C8,37,37,-33331.04109448768,-10253.246264319054,-16822.447075286073
42749,28163,-18696,-17384,31227,18939,-30966,16878,17644,31508,37,-1,20017,2020-11-02 15:00:46,2020-11-02 15:01:15,2,D7:F2:3B:06:4D:C8,37,37,14318.869226154227,34748.36246234369,5693.832739892959
42750,4617,-6665,-24044,32518,-507,26633,-16659,-20243,-19435,37,-1,20042,2020-11-02 15:00:46,2020-11-02 15:01:15,2,D7:F2:3B:06:4D:C8,37,37,4075.7255407546754,19863.47891897976,-15253.967239760497
42751,-9721,-24586,10507,-23032,6152,4616,7407,-31761,-20459,37,-1,20068,2020-11-02 15:00:46,2020-11-02 15:01:15,2,D7:F2:3B:06:4D:C8,37,37,13858.361758369521,24324.32602790444,5063.522357250117
42752,-10490,9718,-29944,-26622,-3326,-31735,-29969,1777,17686,37,-1,20093,2020-11-02 15:00:46,2020-11-02 15:01:15,2,D7:F2:3B:06:4D:C8,37,37,5943.881835340393,-32636.063770486006,824.8456196655316
42753,-15603,-4364,-2801,32254,3326,10764,32750,12530,-7401,37,-1,20119,2020-11-02 15:00:46,2020-11-02 15:01:15,2,D7:F2:3B:06:4D:C8,37,37,1872.0470189294815,-10177.861281717911,12776.94351905121
42754,-14060,14579,-21998,2,18687,32009,-20243,12787,30489,37,-1,20145,2020-11-02 15:00:46,2020-11-02 15:01:15,2,D7:F2:3B:06:4D:C8,37,37,-10070.81544265095,-27780.612134676136,4578.112137415179
42755,-29416,23025,4110,-10236,-13057,-8443,-10003,-2573,23578,37,-1,20170,2020-11-02 15:00:46,2020-11-02 15:01:15,2,D7:F2:3B:06:4D:C8,37,37,31259.912742235014,11869.883494015003,-17154.226948083764
42756,-30439,-32271,-19444,-2043,-22274,-23296,28910,4852,-10470,37,-1,20196,2020-11-02 15:00:46,2020-11-02 15:01:15,2,D7:F2:3B:06:4D:C8,37,37,-39838.6385890235,10593.462957891754,25429.91773350717
42757,21,8946,-25590,-5370,-4355,10749,28143,-23821,-9958,37,-1,20221,2020-11-02 15:00:46,2020-11-02 15:01:15,2,D7:F2:3B:06:4D:C8,37,37,-17153.1390802685,-19952.168879668454,-6523.820482673871
42758,-27375,-13581,-24314,-5114,32765,15867,-25104,-6158,-26854,37,-1,20247,2020-11-02 15:00:46,2020-11-02 15:01:15,2,D7:F2:3B:06:4D:C8,37,37,-7888.054667200295,-32599.30908902621,-20001.710488990502
42759,18959,757,-19964,19206,-7427,-24839,-6927,2546,3098,37,-1,20272,2020-11-02 15:00:46,2020-11-02 15:01:15,2,D7:F2:3B:06:4D:C8,37,37,18959.0,-16390.117895162664,-11423.58876985112
42760,23821,-2315,-2814,-19963,14592,-12809,26611,16625,-1000,37,-1,20298,2020-11-02 15:00:46,2020-11-02 15:01:15,2,D7:F2:3B:06:4D:C8,37,37,-6647.427637778741,-616.4572394972483,-23154.90333109527
42761,-25333,-15370,-14847,26116,-13311,-18186,8437,-19216,25367,37,-1,20324,2020-11-02 15:00:46,2020-11-02 15:01:15,2,D7:F2:3B:06:4D:C8,37,37,-15155.853059089248,-23956.26635688673,17170.574198004913
42762,16138,-26889,23041,-29438,-19710,3318,-13834,22768,-31979,37,-1,20349,2020-11-02 15:00:46,2020-11-02 15:01:15,2,D7:F2:3B:06:4D:C8,37,37,-34757.69403846788,-4191.966029778114,-16990.325833645464
42763,-27898,17656,26625,-32768,-20733,-13579,21752,14576,26131,37,-1,20375,2020-11-02 15:00:46,2020-11-02 15:01:15,2,D7:F2:3B:06:4D:C8,37,37,-9475.048695548761,21519.199131832356,35299.7292615896
42764,-5628,-6919,30723,-19714,-22014,-17674,30457,13040,27665,37,-1,20400,2020-11-02 15:00:46,2020-11-02 15:01:15,2,D7:F2:3B:06:4D:C8,37,37,10156.731092165242,-30309.685220147112,-1270.2241444088932
42765,-13054,-7430,3843,26109,16898,2040,18426,13040,-22001,37,-1,20426,2020-11-02 15:00:46,2020-11-02 15:01:15,2,D7:F2:3B:06:4D:C8,37,37,-47.804801901424526,-6889.008044218948,13889.555351687892
42766,-24063,-27909,24323,31227,-14335,-11271,-25606,15856,15886,37,-1,20451,2020-11-02 15:00:46,2020-11-02 15:01:15,2,D7:F2:3B:06:4D:C8,37,37,9991.479674977436,-21434.88474875237,37286.2525431588
42767,22015,9212,25091,-4360,24064,4860,20730,15856,16653,37,-1,20477,2020-11-02 15:00:46,2020-11-02 15:01:15,2,D7:F2:3B:06:4D:C8,37,37,24232.346164735933,-22525.118995031073,-10222.126178642979
42768,5629,507,9992,6646,30205,-10241,7417,-1297,525,37,-1,20528,2020-11-02 15:00:46,2020-11-02 15:01:15,2,D7:F2:3B:06:4D:C8,37,37,5629.0,-8134.044811125355,5825.326429532056
42769,1790,-25862,32528,15606,-29188,-15868,2551,-17425,-14323,37,1,20530,2020-11-02 15:00:46,2020-11-02 15:01:15,2,D7:F2:3B:06:4D:C8,37,37,-20868.541526618556,16547.738162274283,-31949.871114992126
42770,13315,-7942,-7659,-25350,1279,12551,1269,-3601,10511,37,1,20554,2020-11-02 15:00:46,2020-11-02 15:01:15,2,D7:F2:3B:06:4D:C8,37,37,13877.087763978594,6913.105249512376,-7659.0
42771,29955,23546,5143,21503,30466,-2809,-3341,-14864,19472,37,1,20579,2020-11-02 15:00:46,2020-11-02 15:01:15,2,D7:F2:3B:06:4D:C8,37,37,13647.832868867667,-25729.470043382207,25097.76124020134
42772,-28159,15353,-22257,-26112,-23806,-9206,21747,-15,-32239,37,1,20605,2020-11-02 15:00:46,2020-11-02 15:01:15,2,D7:F2:3B:06:4D:C8,37,37,3575.4938524970294,-30422.874017406575,24200.878480579257
42773,-15088,-2313,5654,-2307,24314,5133,-6159,-8206,-20461,37,1,20631,2020-11-02 15:00:46,2020-11-02 15:01:15,2,D7:F2:3B:06:4D:C8,37,37,12731.784720362193,-1728.54658813387,-9993.958851576412
42774,-26349,4854,-5610,-17150,-27652,-6650,-1808,4339,-23275,37,1,20656,2020-11-02 15:00:46,2020-11-02 15:01:15,2,D7:F2:3B:06:4D:C8,37,37,13549.336453910628,-23113.77508454057,-5610.0
42775,31506,6645,26386,-26618,-20738,-24829,24561,20211,29206,37,1,20682,2020-11-02 15:00:46,2020-11-02 15:01:15,2,D7:F2:3B:06:4D:C8,37,37,5244.358566252753,37356.35763023721,17606.93911020282
42776,-3821,-8716,17423,-23800,26622,26881,19698,18931,-2794,37,1,20707,2020-11-02 15:00:46,2020-11-02 15:01:15,2,D7:F2:3B:06:4D:C8,37,37,1175.0553261726545,6170.040699942416,18832.935744102335
42777,-5871,24564,15371,-23543,4862,25599,-25101,2547,9751,37,1,20733,2020-11-02 15:00:46,2020-11-02 15:01:15,2,D7:F2:3B:06:4D:C8,37,37,20127.302101652458,-19900.65972417393,8542.940398449371
42778,-15856,-2828,-29689,-16887,3326,-26883,6901,-26126,6423,37,1,20759,2020-11-02 15:00:46,2020-11-02 15:01:15,2,D7:F2:3B:06:4D:C8,37,37,-21668.728149845905,9662.833333262248,24040.443285049292
42779,-4850,502,-31740,-2040,-9218,-8453,-16906,7922,-21994,37,1,20784,2020-11-02 15:00:46,2020-11-02 15:01:15,2,D7:F2:3B:06:4D:C8,37,37,-12131.198457900611,27634.60461486765,10971.087264030182
42780,-10227,-7178,-21758,22791,25343,-16646,25592,-20495,-6635,37,1,20810,2020-11-02 15:00:46,2020-11-02 15:01:15,2,D7:F2:3B:06:4D:C8,37,37,-5936.247891579764,-12547.557819629215,-20900.85000024584
42781,14859,-11273,16128,1541,-257,-9991,-6151,20977,-8172,37,1,20835,2020-11-02 15:00:46,2020-11-02 15:01:15,2,D7:F2:3B:06:4D:C8,37,37,-265.75896009041935,14258.766840575332,-20114.66465942798
42782,-6135,-13832,-20994,5634,-6145,19961,5883,497,-18925,37,1,20861,2020-11-02 15:00:46,2020-11-02 15:01:15,2,D7:F2:3B:06:4D:C8,37,37,7511.95276523693,-9224.60882973644,-22982.33327125855
42783,-505,-2823,16894,3327,-30976,-23048,-5637,-13584,25106,37,1,20886,2020-11-02 15:00:46,2020-11-02 15:01:15,2,D7:F2:3B:06:4D:C8,37,37,7767.238712277516,13311.941494369074,-7489.5798571743935
42784,16387,-12294,-24581,-28677,-19456,13305,20220,-21008,-240,37,1,20912,2020-11-02 15:00:46,2020-11-02 15:01:15,2,D7:F2:3B:06:4D:C8,37,37,-19412.329974445198,15639.838671325471,-20061.372268570478
42785,17675,-15366,17154,-2313,28928,28154,-2309,-27152,-8689,37,1,20938,2020-11-02 15:00:46,2020-11-02 15:01:15,2,D7:F2:3B:06:4D:C8,37,37,-12157.930082577055,-9504.780091465385,-24589.08677686203
42786,29699,16890,-5888,1784,-30716,-32521,-16133,-16144,18190,37,1,20989,2020-11-02 15:00:46,2020-11-02 15:01:15,2,D7:F2:3B:06:4D:C8,37,37,2363.3664349923997,12170.945809642088,32376.748171993848
42787,-19970,-15110,7427,-14090,19206,-24840,31739,24305,-29172,37,-1,20991,2020-11-02 15:00:46,2020-11-02 15:01:15,2,D7:F2:3B:06:4D:C8,37,37,-2579.3850380314434,1277.4351234401738,-25961.28389219187
42788,-22537,-15110,-29432,3316,-18174,28668,-29190,-1039,23307,37,-1,21014,2020-11-02 15:00:46,2020-11-02 15:01:15,2,D7:F2:3B:06:4D:C8,37,37,32846.68981623149,1409.840403209022,-22838.091232713698
42789,-19977,15864,-239,-4626,2550,3077,-6921,28657,-5365,37,-1,21040,2020-11-02 15:00:46,2020-11-02 15:01:15,2,D7:F2:3B:06:4D:C8,37,37,7257.880485626071,8370.244214923083,-22979.69383257564
42790,-22017,-6154,-30181,-7953,13040,5645,25075,20720,-3570,37,-1,21066,2020-11-02 15:00:46,2020-11-02 15:01:15,2,D7:F2:3B:06:4D:C8,37,37,25237.873467387766,-18818.533268093914,-21033.908682928315
42791,-26360,-267,-21220,-2314,27123,19470,-786,2288,-4334,37,-1,21091,2020-11-02 15:00:46,2020-11-02 15:01:15,2,D7:F2:3B:06:4D:C8,37,37,-26360.0,-267.0,-21220.0
42792,1803,8438,-16615,24829,-26889,-24564,15852,-27152,6166,37,-1,21117,2020-11-02 15:00:46,2020-11-02 15:01:15,2,D7:F2:3B:06:4D:C8,37,37,-4430.272717805729,14563.298560166964,-10899.169541451545
42793,-7161,-10250,2327,22018,-4101,-11510,-22,29169,19736,37,-1,21142,2020-11-02 15:00:46,2020-11-02 15:01:15,2,D7:F2:3B:06:4D:C8,37,37,5666.542577980408,9545.867769882621,-6206.774825289807
42794,2315,-2571,1303,-27897,14334,24075,-1046,-21774,-10727,37,-1,21168,2020-11-02 15:00:46,2020-11-02 15:01:15,2,D7:F2:3B:06:4D:C8,37,37,-3501.054804277867,694.122586464846,-963.2674044117878
42795,-1268,26352,18191,1803,10239,-7416,-4629,-15117,3355,37,-1,21193,2020-11-02 15:00:46,2020-11-02 15:01:15,2,D7:F2:3B:06:4D:C8,37,37,-16013.355302644199,26352.0,-8723.116240844032
42796,18192,-10772,8715,8201,-22789,-13049,-13076,30964,22556,37,-1,21219,2020-11-02 15:00:46,2020-11-02 15:01:15,2,D7:F2:3B:06:4D:C8,37,37,-1003.9781445459439,-12389.568038485535,19194.444631325277
42797,530,1516,15371,-29943,13051,2309,30445,-23564,-16867,37,-1,21245,2020-11-02 15:00:46,2020-11-02 15:01:15,2,D7:F2:3B:06:4D:C8,37,37,13022.538472693735,-7997.888924654739,-2300.882760180662
42798,6676,6636,-4092,22028,26109,-6911,-17938,-28428,-25058,37,-1,21270,2020-11-02 15:00:46,2020-11-02 15:01:15,2,D7:F2:3B:06:4D:C8,37,37,6720.512462308133,3153.0219425620953,-7088.236795824686
42799,-2796,9965,-21763,-26612,-28161,-23298,31728,21492,-11234,37,-1,21296,2020-11-02 15:00:46,2020-11-02 15:01:15,2,D7:F2:3B:06:4D:C8,37,37,-14885.866217044979,-10209.748775944812,15966.183855271505
42800,6933,-24850,15097,10762,-12544,32251,22514,-525,25118,37,-1,21321,2020-11-02 15:00:46,2020-11-02 15:01:15,2,D7:F2:3B:06:4D:C8,37,37,12474.26504080686,-19934.822972203434,-18452.748921464623
42801,16148,-3344,4599,-24060,9473,-9480,-13581,-28685,27421,37,-1,21347,2020-11-02 15:00:46,2020-11-02 15:01:15,2,D7:F2:3B:06:4D:C8,37,37,517.6469702231452,-7927.404480418991,-15165.069759748936
42802,24079,-19985,-28167,5889,11780,-525,-1036,1523,-20453,37,-1,21372,2020-11-02 15:00:46,2020-11-02 15:01:15,2,D7:F2:3B:06:4D:C8,37,37,-26658.31268671857,16386.971370486357,-28167.0
42803,-17909,10225,2048,30462,27909,-4367,10998,-15374,10521,37,-1,21398,2020-11-02 15:00:46,2020-11-02 15:01:15,2,D7:F2:3B:06:4D:C8,37,37,-3942.662114414039,895.0965472141061,-20325.634740955313
42804,-30969,3571,3330,-18946,-19960,27375,-24329,-11534,2326,37,1,21424,2020-11-02 15:00:46,2020-11-02 15:01:15,2,D7:F2:3B:06:4D:C8,37,37,12409.444177725272,-4854.313679479359,-28378.887150505743
42805,-8959,11254,-14336,-12293,-19195,-22289,-1800,3315,-16366,37,1,21449,2020-11-02 15:00:46,2020-11-02 15:01:15,2,D7:F2:3B:06:4D:C8,37,37,13961.49275012207,3463.0791484297415,-14336.0
42806,-773,-14599,-27390,-6154,14338,-30479,25337,-9230,-4593,37,1,21475,2020-11-02 15:00:46,2020-11-02 15:01:15,2,D7:F2:3B:06:4D:C8,37,37,-24779.802486051405,-11186.277125496283,14992.298783838294
42807,-28172,27901,-12537,11251,1278,24310,-14856,23282,-9203,37,1,21500,2020-11-02 15:00:46,2020-11-02 15:01:15,2,D7:F2:3B:06:4D:C8,37,37,-1172.8953046200277,-40762.02733240808,-8147.71123423122
42808,22774,18944,1294,-12302,-32518,20477,8439,-28431,12557,37,1,21526,2020-11-02 15:00:46,2020-11-02 15:01:15,2,D7:F2:3B:06:4D:C8,37,37,-7362.8166872207685,-5891.269486720845,-28112.03518540085
42809,13558,-12801,16399,-21515,-4870,-26366,6133,-3856,-20211,37,1,21552,2020-11-02 15:00:46,2020-11-02 15:01:15,2,D7:F2:3B:06:4D:C8,37,37,-16345.716961091111,18595.07506491639,-1911.252562594258
42810,22776,2810,-5616,10232,-31237,-28920,-7950,-4624,9743,37,1,21577,2020-11-02 15:00:46,2020-11-02 15:01:15,2,D7:F2:3B:06:4D:C8,37,37,15004.902750787043,17432.3496701094,-5398.871217065662
42811,11011,-12558,14101,-9735,5883,1292,32496,31985,24081,37,1,21603,2020-11-02 15:00:46,2020-11-02 15:01:15,2,D7:F2:3B:06:4D:C8,37,37,15550.926164858909,2768.2030332464674,15109.249927836641
42812,13067,-15887,19993,13820,-13573,-19191,-31250,9714,32019,37,1,21628,2020-11-02 15:00:46,2020-11-02 15:01:15,2,D7:F2:3B:06:4D:C8,37,37,-22985.68521658874,-5770.182716349449,-16162.505175369191
42813,-18937,6388,26906,7169,29695,29446,-18195,-13582,-19436,37,1,21654,2020-11-02 15:00:46,2020-11-02 15:01:15,2,D7:F2:3B:06:4D:C8,37,37,-32948.16557593946,-2144.004391445612,-5759.425262119428
42814,29699,25590,20500,13061,13056,-22776,-4883,-19469,-30955,37,1,21680,2020-11-02 15:00:46,2020-11-02 15:01:15,2,D7:F2:3B:06:4D:C8,37,37,-33699.67079290393,-23709.30182494783,-16103.723060939134
42815,-19443,29685,-13293,-6905,4350,7947,18926,-16908,-4330,37,-1,21705,2020-11-02 15:00:46,2020-11-02 15:01:15,2,D7:F2:3B:06:4D:C8,37,37,-7684.36513619807,-27512.01899444441,-24899.250316082078
42816,15124,-22033,4622,2059,-28417,-4087,12527,-18187,21528,37,-1,21731,2020-11-02 15:00:46,2020-11-02 15:01:15,2,D7:F2:3B:06:4D:C8,37,37,11054.278774174849,-6592.141329326035,23872.535317326874
42817,-17378,-32276,-24824,-9719,-23301,1287,10224,15094,-18151,37,-1,21782,2020-11-02 15:00:46,2020-11-02 15:01:15,2,D7:F2:3B:06:4D:C8,37,37,29850.04135933717,770.2680345199151,32685.589393505772
42818,-996,-6420,19719,22538,-28162,17918,23281,-7947,23322,37,-1,21784,2020-11-02 15:00:46,2020-11-02 15:01:15,2,D7:F2:3B:06:4D:C8,37,37,10404.682646189269,-17204.314862800064,-5177.017107729578
42819,19478,-5906,12292,-22006,26625,15608,18931,23285,-30695,37,-1,21807,2020-11-02 15:00:46,2020-11-02 15:01:15,2,D7:F2:3B:06:4D:C8,37,37,-4763.51281610067,-1606.1341607220256,23239.962622788495
42820,19473,-4368,4355,28425,-13822,-21516,-31755,-10764,-8425,37,-1,21833,2020-11-02 15:00:46,2020-11-02 15:01:15,2,D7:F2:3B:06:4D:C8,37,37,2470.676658111676,-13870.298685590647,14790.326204095856
42821,25869,32498,18690,-20217,17923,-4623,-10249,27124,-25835,37,-1,21859,2020-11-02 15:00:46,2020-11-02 15:01:15,2,D7:F2:3B:06:4D:C8,37,37,-22670.43789250766,-24675.209182152466,30851.686543509597
42822,-13303,-24588,-20991,-30204,17153,14576,-263,-1293,-1006,37,-1,21884,2020-11-02 15:00:46,2020-11-02 15:01:15,2,D7:F2:3B:06:4D:C8,37,37,-13303.0,-24588.0,-20991.0
42823,-11771,26103,29697,30720,6655,495,-16389,22771,9232,37,-1,21910,2020-11-02 15:00:46,2020-11-02 15:01:15,2,D7:F2:3B:06:4D:C8,37,37,-10037.753273664157,14240.632686622514,37393.6190933927
42824,13824,17914,15362,21245,-18432,-3090,8189,-5646,6413,37,-1,21935,2020-11-02 15:00:46,2020-11-02 15:01:15,2,D7:F2:3B:06:4D:C8,37,37,10201.985875762133,9877.754143583545,23374.23524459502
42825,-12552,26620,21761,-10501,27393,-23311,10494,-5902,14090,37,-1,21961,2020-11-02 15:00:46,2020-11-02 15:01:15,2,D7:F2:3B:06:4D:C8,37,37,18355.452992919538,-30667.4527731055,7893.219294689927
42826,-16905,-18691,-1279,-1800,24064,1015,24062,-3598,12552,37,-1,21987,2020-11-02 15:00:46,2020-11-02 15:01:15,2,D7:F2:3B:06:4D:C8,37,37,-3193.9995687032215,-20053.034660071018,14981.405630885045
42827,14840,6140,-29946,-15627,-4354,27131,-26115,-8206,4103,37,-1,22012,2020-11-02 15:00:46,2020-11-02 15:01:15,2,D7:F2:3B:06:4D:C8,37,37,-12362.99670006384,18649.835692388642,25573.972261678813
42828,-20488,11515,24332,-9486,29689,11777,-13573,20978,-2554,37,-1,22038,2020-11-02 15:00:46,2020-11-02 15:01:15,2,D7:F2:3B:06:4D:C8,37,37,17376.424052739763,17333.09416668214,23281.39443307244
42829,-27654,30202,17678,-4111,3572,2055,-10248,7153,22280,37,-1,22063,2020-11-02 15:00:46,2020-11-02 15:01:15,2,D7:F2:3B:06:4D:C8,37,37,23604.3063509242,-34873.7736218293,14699.416283142757
42830,-31234,-25096,2065,4851,14068,-6901,-2316,4336,9995,37,-1,22089,2020-11-02 15:00:46,2020-11-02 15:01:15,2,D7:F2:3B:06:4D:C8,37,37,4241.7536132534915,-39841.93140755667,2065.0
42831,30725,-19722,6679,27640,9723,-4596,29425,10992,12814,37,-1,22115,2020-11-02 15:00:46,2020-11-02 15:01:15,2,D7:F2:3B:06:4D:C8,37,37,-14931.062420074972,30677.890370391477,-14612.404573856667
42832,27401,23285,30744,15360,32002,12299,-4113,26353,-2545,37,-1,22140,2020-11-02 15:00:46,2020-11-02 15:01:15,2,D7:F2:3B:06:4D:C8,37,37,-41177.62477103078,23285.0,641.525694101656
42833,-20217,-21516,26642,-11261,24066,31242,-14097,-10766,3089,37,-1,22166,2020-11-02 15:00:46,2020-11-02 15:01:15,2,D7:F2:3B:06:4D:C8,37,37,-18056.82784143272,33179.317380638124,-12431.628029334886
42834,271,-23308,-6894,-7164,30719,-14582,-18193,756,28434,37,-1,22191,2020-11-02 15:00:46,2020-11-02 15:01:15,2,D7:F2:3B:06:4D:C8,37,37,16549.60823477206,-14651.835742083467,10114.233419422855
42835,-23020,31218,-3060,1542,-29185,-4343,-4625,-1548,-11501,37,-1,22217,2020-11-02 15:00:46,2020-11-02 15:01:15,2,D7:F2:3B:06:4D:C8,37,37,37966.14724795935,7940.754822198502,-3060.0
42836,1309,-24592,2060,4101,19709,31238,9712,-32267,6933,37,-1,22242,2020-11-02 15:00:46,2020-11-02 15:01:15,2,D7:F2:3B:06:4D:C8,37,37,2695.1762762594185,-23602.771560836045,-6809.459926225984
42837,-17894,-6417,10,-7163,7422,6400,-22800,23797,-16363,37,-1,22268,2020-11-02 15:00:46,2020-11-02 15:01:15,2,D7:F2:3B:06:4D:C8,37,37,1192.555863742684,-12663.330847936353,-14127.670981005911
42838,-25834,14832,-32504,31240,10753,1275,-6159,-1804,24341,37,1,22293,2020-11-02 15:00:46,2020-11-02 15:01:15,2,D7:F2:3B:06:4D:C8,37,37,2251.6298496216223,32191.009759205688,-30042.683796608733
42839,20757,7665,5381,-17654,-9724,5110,5108,-21260,-4845,37,1,22319,2020-11-02 15:00:46,2020-11-02 15:01:15,2,D7:F2:3B:06:4D:C8,37,37,-21308.64101530559,7665.0,-2397.9216169083334
42840,23823,-21773,-15615,9481,-9979,-11535,-18186,32500,-30191,37,1,22345,2020-11-02 15:00:46,2020-11-02 15:01:15,2,D7:F2:3B:06:4D:C8,37,37,-21680.46034715139,-5070.827497783912,28101.09305033017
42841,14601,9974,29697,16133,31492,-25873,8441,20980,-20722,37,1,22370,2020-11-02 15:00:46,2020-11-02 15:01:15,2,D7:F2:3B:06:4D:C8,37,37,8130.0399968646225,20957.229492386152,-26254.11715622602
42842,5892,-20488,-21502,6145,-4095,-8721,-2310,5620,-14581,37,1,22396,2020-11-02 15:00:46,2020-11-02 15:01:15,2,D7:F2:3B:06:4D:C8,37,37,-21081.62284174033,3168.4359483209364,-21502.0
42843,-10753,14075,26627,8958,9728,-12815,10748,-16397,8713,37,1,22421,2020-11-02 15:00:46,2020-11-02 15:01:15,2,D7:F2:3B:06:4D:C8,37,37,1985.6048052403876,-24301.699222592808,-20693.345583835366
42844,-20484,-9988,14339,-6149,31998,9717,-14084,23027,-506,37,1,22447,2020-11-02 15:00:46,2020-11-02 15:01:15,2,D7:F2:3B:06:4D:C8,37,37,11031.846703811396,17194.89040668631,-17538.398535945427
42845,-4869,29693,-22525,10746,26368,5112,-10756,6643,26117,37,1,22473,2020-11-02 15:00:46,2020-11-02 15:01:15,2,D7:F2:3B:06:4D:C8,37,37,19953.238082022115,27555.685330188477,-15978.408275725647
42846,2043,25085,5379,12281,23554,23290,-32260,15603,12292,37,1,22498,2020-11-02 15:00:46,2020-11-02 15:01:15,2,D7:F2:3B:06:4D:C8,37,37,-11105.91700369991,19562.733127131847,-12502.911465076744
42847,-9480,-14087,-13563,11766,6401,-21507,-26117,32243,29699,37,1,22524,2020-11-02 15:00:46,2020-11-02 15:01:15,2,D7:F2:3B:06:4D:C8,37,37,18398.198056315956,6451.022725208526,-9599.976670774511
42848,24826,30966,-27378,26866,17400,-20477,-32519,4083,-10493,37,1,22550,2020-11-02 15:00:46,2020-11-02 15:01:15,2,D7:F2:3B:06:4D:C8,37,37,42896.42650167996,-1959.6181893491976,21927.94577560654
42849,-2,4597,-26350,12785,-32018,-31478,-3595,-22543,8966,37,1,22575,2020-11-02 15:00:46,2020-11-02 15:01:15,2,D7:F2:3B:06:4D:C8,37,37,-1858.0516039580878,5614.455933367458,26086.020045405618
42850,-21500,25076,-19688,-16398,31980,30223,4593,18160,29450,37,1,22600,2020-11-02 15:00:46,2020-11-02 15:01:15,2,D7:F2:3B:06:4D:C8,37,37,29295.57025768868,-10633.188400743493,22525.052446356713
42851,-13299,18678,-26331,1533,-27400,15633,20973,-13072,31246,37,-1,22626,2020-11-02 15:00:46,2020-11-02 15:01:15,2,D7:F2:3B:06:4D:C8,37,37,-20002.00778083787,15529.60567011754,-24037.547263935943
42852,4616,30966,5657,265,19193,-19700,-25364,-6927,4881,37,-1,22652,2020-11-02 15:00:46,2020-11-02 15:01:15,2,D7:F2:3B:06:4D:C8,37,37,-14114.484744822474,-24521.96007961956,14548.438240640073
42853,-9451,-14606,-18669,-4852,-17160,-6138,1517,20722,30227,37,-1,22677,2020-11-02 15:00:46,2020-11-02 15:01:15,2,D7:F2:3B:06:4D:C8,37,37,-12099.313392265307,-10588.914685596636,19815.89511520752
42854,21005,-17680,15622,6668,-10499,7681,-26386,14578,15380,37,-1,22728,2020-11-02 15:00:46,2020-11-02 15:01:15,2,D7:F2:3B:06:4D:C8,37,37,12806.847445579813,-27343.435210503987,-9282.269032656643
42855,11792,12529,-2299,-6904,-5126,-32256,-23057,-12303,-5100,37,-1,22730,2020-11-02 15:00:46,2020-11-02 15:01:15,2,D7:F2:3B:06:4D:C8,37,37,-14895.56762215048,-6449.611989087267,6151.18495935247
42856,32272,11249,-21758,21769,1790,15616,-20240,27121,28181,37,-1,22754,2020-11-02 15:00:46,2020-11-02 15:01:15,2,D7:F2:3B:06:4D:C8,37,37,12906.615445117683,36678.50911295349,11381.51114759534
42857,14096,30705,-20231,5385,-28929,-12802,1010,13041,-31211,37,-1,22780,2020-11-02 15:00:46,2020-11-02 15:01:15,2,D7:F2:3B:06:4D:C8,37,37,-36325.98237877032,-14555.57531309911,-4398.3898783495715
42858,-6894,5619,26870,1285,3327,-21764,4851,-9744,21013,37,-1,22805,2020-11-02 15:00:46,2020-11-02 15:01:15,2,D7:F2:3B:06:4D:C8,37,37,25278.666835271528,-9279.187164631367,8716.821989411277
42859,18708,8179,6909,-15357,7682,-22537,15860,19952,20244,37,-1,22831,2020-11-02 15:00:46,2020-11-02 15:01:15,2,D7:F2:3B:06:4D:C8,37,37,19064.976707958216,7066.266921609635,-7156.404189086588
42860,-9457,9971,-15111,32259,-9211,15092,13814,7664,3858,37,-1,22856,2020-11-02 15:00:46,2020-11-02 15:01:15,2,D7:F2:3B:06:4D:C8,37,37,7811.1476359318685,9590.993309551319,16254.13273434845
42861,22796,-1805,3064,23040,28163,7667,6648,-2321,30479,37,-1,22882,2020-11-02 15:00:46,2020-11-02 15:01:15,2,D7:F2:3B:06:4D:C8,37,37,3058.813534368356,-22867.63496066444,136.631137601727
42862,22792,-16139,-12555,16121,-24064,8434,14585,31727,-10484,37,-1,22908,2020-11-02 15:00:46,2020-11-02 15:01:15,2,D7:F2:3B:06:4D:C8,37,37,23647.43729544331,-3268.92804484891,19175.073110569283
42863,-4354,15352,13565,-15120,23296,3058,16633,-7954,2314,37,-1,22933,2020-11-02 15:00:46,2020-11-02 15:01:15,2,D7:F2:3B:06:4D:C8,37,37,-9348.888643705232,-18723.3058295621,828.5800747575099
42864,7670,-31748,-15094,-17684,-22278,-27656,-12041,2030,5896,37,-1,22959,2020-11-02 15:00:46,2020-11-02 15:01:15,2,D7:F2:3B:06:4D:C8,37,37,4575.882155340828,6176.850317988175,35149.69505770431
42865,24564,10751,-30962,-25361,-21003,1539,-21004,-8468,-22264,37,-1,22984,2020-11-02 15:00:46,2020-11-02 15:01:15,2,D7:F2:3B:06:4D:C8,37,37,9013.114485238528,16449.31437886924,36411.58283762338
42866,-20234,23805,14607,10740,1017,-19446,-26384,-29460,19979,37,-1,23011,2020-11-02 15:00:46,2020-11-02 15:01:15,2,D7:F2:3B:06:4D:C8,37,37,1399.2103560100932,26684.18594849753,21804.89992285314
42867,12793,20977,11027,21497,-20737,-31728,15597,-10771,3342,37,-1,23036,2020-11-02 15:00:46,2020-11-02 15:01:15,2,D7:F2:3B:06:4D:C8,37,37,-5277.024526420384,-18756.334915856198,18591.477070738394
42868,28170,-11035,-15079,-3076,27395,-23277,12267,30448,6416,37,-1,23061,2020-11-02 15:00:46,2020-11-02 15:01:15,2,D7:F2:3B:06:4D:C8,37,37,-9136.834549365758,19646.58480785969,25946.605284797723
42869,-742,14311,7192,29949,29950,29709,-8471,-20494,-17135,37,-1,23087,2020-11-02 15:00:46,2020-11-02 15:01:15,2,D7:F2:3B:06:4D:C8,37,37,11749.178948599532,-7450.801410549876,7970.100461997553
42870,22283,19178,-3823,15866,14581,-28666,16872,14835,-27885,37,1,23112,2020-11-02 15:00:46,2020-11-02 15:01:15,2,D7:F2:3B:06:4D:C8,37,37,-1839.9230106410819,9021.855497316383,-28180.913908183597
42871,10267,-18962,9244,16380,-28947,-1528,-24091,25843,-5866,37,1,23138,2020-11-02 15:00:46,2020-11-02 15:01:15,2,D7:F2:3B:06:4D:C8,37,37,9255.38863249414,-4422.770158894196,21099.69559929937
42872,8979,-25360,22802,-11258,-15624,7421,4069,-8462,-3304,37,1,23163,2020-11-02 15:00:46,2020-11-02 15:01:15,2,D7:F2:3B:06:4D:C8,37,37,-14335.846991199629,-25360.0,19875.54115099543
42873,19475,-21006,17926,10763,-771,-31751,28902,-6415,15129,37,1,23189,2020-11-02 15:00:46,2020-11-02 15:01:15,2,D7:F2:3B:06:4D:C8,37,37,-5756.980768925135,-14409.002673322155,30018.44352038295
42874,15886,19444,27392,16653,-16894,21751,-6424,-11536,20760,37,1,23214,2020-11-02 15:00:46,2020-11-02 15:01:15,2,D7:F2:3B:06:4D:C8,37,37,403.6886939871747,-33951.954098974165,15094.954266227458
42875,-21749,-12811,27130,22284,22787,30714,-22549,13552,2839,37,1,23240,2020-11-02 15:00:46,2020-11-02 15:01:15,2,D7:F2:3B:06:4D:C8,37,37,-13727.675855407113,16511.379692612503,30201.041012773974
42876,16657,2549,7419,-25591,26371,23803,-4883,-2577,-1259,37,1,23266,2020-11-02 15:00:46,2020-11-02 15:01:15,2,D7:F2:3B:06:4D:C8,37,37,16657.0,2549.0,7419.0
42877,-17648,5876,-3334,-7418,-2557,25337,-1809,-20497,-21996,37,1,23291,2020-11-02 15:00:46,2020-11-02 15:01:15,2,D7:F2:3B:06:4D:C8,37,37,-16933.10707754066,-8349.154398285378,810.1490814253484
42878,5645,28148,18682,-15358,-1534,-29959,-30223,26351,15379,37,1,23317,2020-11-02 15:00:46,2020-11-02 15:01:15,2,D7:F2:3B:06:4D:C8,37,37,20734.73521880995,-21444.212700453714,-16834.772052616034
42879,-15347,26614,-12547,-16386,-14337,26874,18162,-1554,8978,37,1,23342,2020-11-02 15:00:46,2020-11-02 15:01:15,2,D7:F2:3B:06:4D:C8,37,37,12388.836099264236,-26193.07986773507,16177.203749351096
42880,16395,27383,16127,-22530,7937,-23304,-13070,22510,1553,37,1,23368,2020-11-02 15:00:46,2020-11-02 15:01:15,2,D7:F2:3B:06:4D:C8,37,37,-20691.799793035916,3268.8907772473685,28980.48683875662
42881,-3832,9976,29441,24831,-3834,-11784,-2573,19694,10255,37,1,23394,2020-11-02 15:00:46,2020-11-02 15:01:15,2,D7:F2:3B:06:4D:C8,37,37,-4099.99438863748,12078.374667679149,-28605.5972215283
42882,-15351,12536,-1280,19712,31753,18936,-27915,-6162,-9460,37,1,23419,2020-11-02 15:00:46,2020-11-02 15:01:15,2,D7:F2:3B:06:4D:C8,37,37,-15255.069523778326,10385.536166310612,-7339.372545588894
42883,-28922,24312,17406,17406,24584,-13577,-2058,-27153,-26358,37,1,23445,2020-11-02 15:00:46,2020-11-02 15:01:15,2,D7:F2:3B:06:4D:C8,37,37,-39366.691097383286,8385.012688220953,10510.92090454387
42884,21250,2808,-7937,-28166,1033,25335,-12809,21232,25096,37,1,23470,2020-11-02 15:00:46,2020-11-02 15:01:15,2,D7:F2:3B:06:4D:C8,37,37,7335.5053363871375,21322.265362657494,-3740.9483108233717
42885,-21763,2807,-27640,16629,-22011,-12552,-19209,-16,27142,37,1,23496,2020-11-02 15:00:46,2020-11-02 15:01:15,2,D7:F2:3B:06:4D:C8,37,37,9170.209614448306,20836.28302139467,26967.268743412264
42886,13307,29175,12309,4082,25083,15102,10230,-11536,-21243,37,1,23521,2020-11-02 15:00:46,2020-11-02 15:01:15,2,D7:F2:3B:06:4D:C8,37,37,34331.70710172685,-566.4312009671776,-883.9672934045057
42887,9726,-15368,24087,-31756,25330,-17915,15859,-16145,12039,37,1,23547,2020-11-02 15:00:46,2020-11-02 15:01:15,2,D7:F2:3B:06:4D:C8,37,37,6703.915754632051,22614.73202256225,18830.440199381792
42888,-19455,-23050,26645,13304,19954,778,-20497,-7186,24842,37,1,23573,2020-11-02 15:00:46,2020-11-02 15:01:15,2,D7:F2:3B:06:4D:C8,37,37,14266.681397110604,-24145.28204137718,-28865.597292550294
42889,22023,-7178,32023,-7171,-18183,7179,493,12271,19981,37,-1,23598,2020-11-02 15:00:46,2020-11-02 15:01:15,2,D7:F2:3B:06:4D:C8,37,37,-18740.984282871414,9922.022527220273,-33351.72737773113
42890,268,1783,5397,-14845,-28930,7689,7404,5872,5647,37,-1,23624,2020-11-02 15:00:46,2020-11-02 15:01:15,2,D7:F2:3B:06:4D:C8,37,37,3861.0350290435413,-3578.0598936453243,2160.6521936641157
42891,-4854,-12042,-10226,-25338,-31745,-21242,28396,-3344,2832,37,-1,23649,2020-11-02 15:00:46,2020-11-02 15:01:15,2,D7:F2:3B:06:4D:C8,37,37,-4854.0,132.1141654207413,15797.575315449369
42892,6924,-1806,6669,24070,-6403,32007,-14356,-24847,7953,37,-1,23675,2020-11-02 15:00:46,2020-11-02 15:01:15,2,D7:F2:3B:06:4D:C8,37,37,-8643.824264944298,-847.4174280799773,-4499.462054440116
42893,-2798,17136,19467,27911,20222,-3321,6125,22002,25618,37,-1,23701,2020-11-02 15:00:46,2020-11-02 15:01:15,2,D7:F2:3B:06:4D:C8,37,37,-9501.053847376585,-104.22485537410284,-24293.095767496838
42894,-25577,14065,-3324,-19961,20478,16133,-21523,-7438,27667,37,-1,23726,2020-11-02 15:00:46,2020-11-02 15:01:15,2,D7:F2:3B:06:4D:C8,37,37,-1141.7367925943329,20698.217937139463,-20816.732244113497
42895,-24553,-6670,9732,-27897,-6147,-17409,30702,-13326,20,37,-1,23752,2020-11-02 15:00:46,2020-11-02 15:01:15,2,D7:F2:3B:06:4D:C8,37,37,1891.557453198267,7440.224263981945,-26136.48037328103
42896,25873,-21004,28927,-24825,-28928,8699,-12561,21746,-23533,37,-1,23777,2020-11-02 15:00:46,2020-11-02 15:01:15,2,D7:F2:3B:06:4D:C8,37,37,-10430.227890919225,-41536.96518949093,-10641.538563126538
42897,18703,9206,32511,-29178,29697,6393,25841,-12047,-22510,37,-1,23803,2020-11-02 15:00:46,2020-11-02 15:01:15,2,D7:F2:3B:06:4D:C8,37,37,-15073.238765595474,-20923.49022695154,28749.30948454264
42898,-4086,18935,-10499,-20731,-17149,30967,11763,25841,10257,37,-1,23828,2020-11-02 15:00:46,2020-11-02 15:01:15,2,D7:F2:3B:06:4D:C8,37,37,-8786.513268451483,-10598.923189134795,-17202.28571481554
42899,20232,-2058,-4356,-6653,-4858,-32522,3829,25841,10767,37,-1,23854,2020-11-02 15:00:46,2020-11-02 15:01:15,2,D7:F2:3B:06:4D:C8,37,37,-3632.312448067535,-9465.97021196788,18158.899697551897
42900,17155,13045,-31236,-17919,26380,15604,-1802,2290,-29684,37,1,23880,2020-11-02 15:00:46,2020-11-02 15:01:15,2,D7:F2:3B:06:4D:C8,37,37,-7642.942371358994,20150.719141213925,-31236.0
42901,-11783,-4877,-9730,18942,-25328,-29197,-25352,-31245,28937,37,1,23905,2020-11-02 15:00:46,2020-11-02 15:01:15,2,D7:F2:3B:06:4D:C8,37,37,9895.990703047777,3743.8987842896704,12056.106664184183
42902,-24331,-17675,16130,7673,24075,28665,-1800,16885,9735,37,1,23931,2020-11-02 15:00:46,2020-11-02 15:01:15,2,D7:F2:3B:06:4D:C8,37,37,28268.302029311955,11312.10413331792,15411.667218590253
42903,-15627,30457,-22009,1266,-512,-22786,-26889,-5643,23558,37,1,23982,2020-11-02 15:00:46,2020-11-02 15:01:15,2,D7:F2:3B:06:4D:C8,37,37,7753.70192657838,13951.91250435552,37435.976051180805
42904,-30734,-10758,1813,24814,-2569,-13819,-22028,32245,8711,37,1,23984,2020-11-02 15:00:46,2020-11-02 15:01:15,2,D7:F2:3B:06:4D:C8,37,37,-13744.283384154201,-1220.1055123088743,-29550.064395782563
42905,-11270,-7688,21027,-18697,5370,17678,-18959,-25099,24841,37,1,24007,2020-11-02 15:00:46,2020-11-02 15:01:15,2,D7:F2:3B:06:4D:C8,37,37,12951.477870075338,-1188.2345800521289,21426.625785776843
42906,-16375,-31757,-7907,27397,-27906,-14321,-8720,-8202,-17909,37,1,24034,2020-11-02 15:00:46,2020-11-02 15:01:15,2,D7:F2:3B:06:4D:C8,37,37,24100.899679064092,27488.09779340492,-1649.0716660885896
42907,-19700,-7183,-7662,-29176,7675,-6645,25585,-13577,-16115,37,1,24059,2020-11-02 15:00:46,2020-11-02 15:01:15,2,D7:F2:3B:06:4D:C8,37,37,-462.871356118294,1640.3124987807396,-22259.534092474372
42908,27394,11765,-22775,-23036,-13578,-1014,-25871,-9993,-5361,37,1,24084,2020-11-02 15:00:46,2020-11-02 15:01:15,2,D7:F2:3B:06:4D:C8,37,37,-5217.986569795955,9546.059631177672,35905.32617419634
42909,-4359,-25613,16388,5885,27374,-28906,20976,-7945,32531,37,1,24110,2020-11-02 15:00:46,2020-11-02 15:01:15,2,D7:F2:3B:06:4D:C8,37,37,26164.700990585632,-7212.67726430302,-14386.761371283452
42910,24354,13298,22039,-8701,-30986,24332,-5394,-521,32279,37,1,24135,2020-11-02 15:00:46,2020-11-02 15:01:15,2,D7:F2:3B:06:4D:C8,37,37,19660.083869241826,-19581.502042856093,22039.0
42911,-3564,-1040,-27379,28940,-12544,-22275,16624,-9737,3352,37,1,24161,2020-11-02 15:00:46,2020-11-02 15:01:15,2,D7:F2:3B:06:4D:C8,37,37,-10717.338817022532,25328.446959069366,2646.08395988332
42912,-24044,-30734,-19191,-7158,-26625,12282,15858,27127,28695,37,1,24187,2020-11-02 15:00:46,2020-11-02 15:01:15,2,D7:F2:3B:06:4D:C8,37,37,37741.09365107367,-20978.00611660769,-5149.784693796165
42913,17680,-16653,-7414,20490,30465,-6155,19188,-16906,11030,37,1,24212,2020-11-02 15:00:46,2020-11-02 15:01:15,2,D7:F2:3B:06:4D:C8,37,37,-21179.876157358187,-536.0748222849406,13999.916954892351
42914,30218,24309,-12282,-25335,16896,-26635,30198,4342,-28908,37,1,24238,2020-11-02 15:00:46,2020-11-02 15:01:15,2,D7:F2:3B:06:4D:C8,37,37,13253.13758808142,27591.94518963936,-26794.42915464558
42915,30727,23543,-5373,-26617,9216,27638,26360,30965,275,37,1,24263,2020-11-02 15:00:46,2020-11-02 15:01:15,2,D7:F2:3B:06:4D:C8,37,37,22433.858332742442,-19455.031573281514,25406.972542769865
42916,264,-6152,-764,16646,22017,-22794,5370,7669,31249,37,1,24289,2020-11-02 15:00:46,2020-11-02 15:01:15,2,D7:F2:3B:06:4D:C8,37,37,-6041.202450739415,-1265.3936274423331,-634.9393016725435
42917,2822,1017,-27897,-9978,-27644,25845,-8197,14837,-20977,37,1,24315,2020-11-02 15:00:46,2020-11-02 15:01:15,2,D7:F2:3B:06:4D:C8,37,37,12266.31211333879,24905.290461376324,4062.5947586038665
42918,21506,-2824,19716,-18168,-30456,28660,766,4598,-24563,37,1,24340,2020-11-02 15:00:46,2020-11-02 15:01:15,2,D7:F2:3B:06:4D:C8,37,37,-11920.049463543248,18121.684049411142,19716.0
42919,16899,15866,-13311,30727,8455,6900,1792,13815,-24309,37,1,24366,2020-11-02 15:00:46,2020-11-02 15:01:15,2,D7:F2:3B:06:4D:C8,37,37,500.7766235928757,-24852.97565799486,-9826.886674648184
42920,-23552,16379,18423,-31744,-16384,-13580,19457,-11017,-16631,37,-1,24391,2020-11-02 15:00:46,2020-11-02 15:01:15,2,D7:F2:3B:06:4D:C8,37,37,-17390.15030717999,7214.093248393439,-28423.8421909701
42921,-26628,14076,-14345,22516,28408,13815,-9472,13559,6408,37,-1,24417,2020-11-02 15:00:46,2020-11-02 15:01:15,2,D7:F2:3B:06:4D:C8,37,37,117.82834761695358,-8081.507031412605,32367.244948894346
42922,-15117,-11782,-28156,14825,10229,-31235,22270,-12299,13575,37,-1,24442,2020-11-02 15:00:46,2020-11-02 15:01:15,2,D7:F2:3B:06:4D:C8,37,37,-6918.558498095886,-22459.47411199348,-24653.70397974957
42923,-9742,29177,-32485,-4633,8174,25354,-6151,-15117,-30712,37,-1,24468,2020-11-02 15:00:46,2020-11-02 15:01:15,2,D7:F2:3B:06:4D:C8,37,37,23105.34966361664,37317.262033237304,8662.787615122312
42924,30210,-5897,-31962,16885,4343,-2542,27125,-782,8716,37,-1,24494,2020-11-02 15:00:46,2020-11-02 15:01:15,2,D7:F2:3B:06:4D:C8,37,37,33433.327566727254,14434.123388847771,25354.62172487362
42925,-22512,18935,10013,-7935,-515,24336,28403,-4365,16911,37,-1,24519,2020-11-02 15:00:46,2020-11-02 15:01:15,2,D7:F2:3B:06:4D:C8,37,37,13731.905524731414,-18473.06553451733,-20874.98882436297
42926,28943,-1546,-31482,-14335,24316,-18678,-11022,-25100,26129,37,-1,24545,2020-11-02 15:00:46,2020-11-02 15:01:15,2,D7:F2:3B:06:4D:C8,37,37,-544.0082919205706,41176.55128377155,-11636.123424631278
42927,-14062,23287,22561,1781,-20749,-16116,-28432,-16140,-15341,37,-1,24570,2020-11-02 15:00:46,2020-11-02 15:01:15,2,D7:F2:3B:06:4D:C8,37,37,-30712.96898115369,10497.247719575556,-13983.714123098953
42928,23835,7926,-9955,17668,-7426,2822,20719,-17420,-8683,37,-1,24596,2020-11-02 15:00:46,2020-11-02 15:01:15,2,D7:F2:3B:06:4D:C8,37,37,-19006.57301535823,17678.341849550794,-7500.475829057604
42929,17434,11252,-26865,-14324,-5114,-21765,19697,16629,11029,37,-1,24621,2020-11-02 15:00:46,2020-11-02 15:01:15,2,D7:F2:3B:06:4D:C8,37,37,16110.040593722348,11489.725476000267,-27581.3865778131
42930,23569,-16394,-29682,3339,-17404,-29451,-3853,11509,26131,37,-1,24647,2020-11-02 15:00:46,2020-11-02 15:01:15,2,D7:F2:3B:06:4D:C8,37,37,11645.712759953465,38564.59953371428,-9079.16065046221
42931,-22777,2041,15374,-25335,-1278,22262,24310,-7436,-32495,37,-1,24673,2020-11-02 15:00:46,2020-11-02 15:01:15,2,D7:F2:3B:06:4D:C8,37,37,-10601.400058959161,476.11235353679876,-25430.314976749905
42932,18949,-25862,-23800,-16631,-27390,-29958,31992,-8716,11024,37,-1,24698,2020-11-02 15:00:46,2020-11-02 15:01:15,2,D7:F2:3B:06:4D:C8,37,37,22703.448258360717,-20459.243080914228,25696.70124229959
42933,8459,-4870,29704,10250,29441,3068,22010,-4876,26895,37,1,24724,2020-11-02 15:00:46,2020-11-02 15:01:15,2,D7:F2:3B:06:4D:C8,37,37,-5052.813607750964,-6813.218309729208,-30093.991558271184
42934,22282,-16646,-16124,-7671,8451,-20743,21244,6389,28430,37,1,24749,2020-11-02 15:00:46,2020-11-02 15:01:15,2,D7:F2:3B:06:4D:C8,37,37,-1163.2776152925335,-30039.619272066,-11394.22113086631
42935,21000,-29190,29952,-4089,-1278,-24073,17918,26613,5645,37,1,24775,2020-11-02 15:00:46,2020-11-02 15:01:15,2,D7:F2:3B:06:4D:C8,37,37,11831.875980754823,24671.05449435786,37967.409510163605
42936,2822,-2312,7676,-3326,18174,-11018,-17153,26357,-29173,37,1,24801,2020-11-02 15:00:46,2020-11-02 15:01:15,2,D7:F2:3B:06:4D:C8,37,37,-7904.4808828010555,1276.5181819739678,2849.5065019267
42937,-19965,23287,-9991,15099,-7429,2552,4864,-18188,8458,37,1,24826,2020-11-02 15:00:46,2020-11-02 15:01:15,2,D7:F2:3B:06:4D:C8,37,37,-8154.363151721692,30400.277455503056,7073.554072619801
42938,27651,16633,27388,4342,-8191,-6410,30975,-27660,-17912,37,1,24852,2020-11-02 15:00:46,2020-11-02 15:01:15,2,D7:F2:3B:06:4D:C8,37,37,28394.41477851204,-27246.823804738026,-15578.986999782046
42939,32510,28923,30722,11507,-28925,-16139,30206,1525,-506,37,1,24877,2020-11-02 15:00:46,2020-11-02 15:01:15,2,D7:F2:3B:06:4D:C8,37,37,32510.0,37664.432956353834,-19020.297134280714
42940,-26122,-20741,14857,-9998,-25600,13561,7933,14581,31493,37,1,24903,2020-11-02 15:00:46,2020-11-02 15:01:15,2,D7:F2:3B:06:4D:C8,37,37,-22081.93693384713,-8930.478998173989,27675.133606050964
42941,8436,-2568,21006,7923,-27650,-6910,15611,16373,18181,37,1,24928,2020-11-02 15:00:46,2020-11-02 15:01:15,2,D7:F2:3B:06:4D:C8,37,37,15991.343078055486,15934.805831109989,-3061.317638656587
42942,-25864,-31244,7444,-18446,31993,8461,27128,9973,1031,37,1,24954,2020-11-02 15:00:46,2020-11-02 15:01:15,2,D7:F2:3B:06:4D:C8,37,37,1828.289783930083,26056.079065334907,31910.582385895006
42943,25604,30962,-10214,-27405,-31756,32531,-16652,-268,-32758,37,1,24980,2020-11-02 15:00:46,2020-11-02 15:01:15,2,D7:F2:3B:06:4D:C8,37,37,28524.445469210557,18262.853409597086,-23903.143140884244
42944,-12531,-7948,-10979,8186,3317,-26864,-23311,4597,16142,37,1,25005,2020-11-02 15:00:46,2020-11-02 15:01:15,2,D7:F2:3B:06:4D:C8,37,37,-7064.502003068271,-17014.092093459403,1161.2870807541822
42945,9740,-12554,3608,-22271,-16905,17162,17648,10485,-3824,37,1,25031,2020-11-02 15:00:46,2020-11-02 15:01:15,2,D7:F2:3B:06:4D:C8,37,37,766.1328844721702,11919.204813241991,-11083.040062334852
42946,13575,-21513,-16113,30213,13821,-2297,13808,27893,-27630,37,1,25057,2020-11-02 15:00:46,2020-11-02 15:01:15,2,D7:F2:3B:06:4D:C8,37,37,-18423.469122663224,-14780.453171188628,18677.059526075693
42947,10506,-28169,24074,18949,-30977,-15095,32496,11254,-8429,37,1,25084,2020-11-02 15:00:46,2020-11-02 15:01:15,2,D7:F2:3B:06:4D:C8,37,37,31154.387397296217,-20582.644267072264,9443.77963923069
42948,-10732,-4876,19462,-3069,15616,-5881,-18704,1527,2837,37,1,25108,2020-11-02 15:00:46,2020-11-02 15:01:15,2,D7:F2:3B:06:4D:C8,37,37,-10732.0,7573.681010284908,-18579.132809537954
42949,11029,-27663,-5884,30464,22528,-1280,-14096,19191,-29419,37,-1,25133,2020-11-02 15:00:46,2020-11-02 15:01:15,2,D7:F2:3B:06:4D:C8,37,37,-7900.735343463148,-4987.0694828934975,-28882.683133762774
42950,19729,239,2831,30463,-31486,17916,-12048,13559,8469,37,-1,25159,2020-11-02 15:00:46,2020-11-02 15:01:15,2,D7:F2:3B:06:4D:C8,37,37,-7203.97956898188,-6639.2051673269325,-17358.823580987017
42951,21522,-3087,16400,17924,13571,-32008,-30479,-4106,5652,37,-1,25184,2020-11-02 15:00:46,2020-11-02 15:01:15,2,D7:F2:3B:06:4D:C8,37,37,21522.0,-16602.02327100045,1691.8606057118022
42952,-2290,10228,-9717,-4088,29190,28403,28147,-24842,8466,37,-1,25210,2020-11-02 15:00:46,2020-11-02 15:01:15,2,D7:F2:3B:06:4D:C8,37,37,12054.411458622117,-7210.5546791514225,2641.0677017462785
42953,15369,21238,12040,5386,1541,24050,-4619,24566,-21745,37,-1,25236,2020-11-02 15:00:46,2020-11-02 15:01:15,2,D7:F2:3B:06:4D:C8,37,37,21963.13632695095,-18321.91868807802,3761.4283551896597
42954,-13818,27896,27396,8200,-15103,-6925,13816,1526,32269,37,-1,25261,2020-11-02 15:00:46,2020-11-02 15:01:15,2,D7:F2:3B:06:4D:C8,37,37,-38939.505328507046,2891.0883694467366,13965.002284683702
42955,-23291,16122,9730,15364,24831,3062,-10247,-30987,-16629,37,-1,25287,2020-11-02 15:00:46,2020-11-02 15:01:15,2,D7:F2:3B:06:4D:C8,37,37,21430.694483060266,6220.4218891227965,19977.34092653605
42956,21765,25083,-16385,5632,-26370,-26889,-17158,-1548,21258,37,-1,25312,2020-11-02 15:00:46,2020-11-02 15:01:15,2,D7:F2:3B:06:4D:C8,37,37,-17971.62206737192,28154.96580667179,-15989.341440243647
42957,23044,13819,17917,29691,-25857,-17673,-3078,-31244,-1016,37,-1,25338,2020-11-02 15:00:46,2020-11-02 15:01:15,2,D7:F2:3B:06:4D:C8,37,37,23717.757630954038,13819.0,-17015.07560839274
42958,-6911,25338,-30979,-11274,-22783,20727,-30982,22004,-31737,37,-1,25363,2020-11-02 15:00:46,2020-11-02 15:01:15,2,D7:F2:3B:06:4D:C8,37,37,-32816.87339889331,19125.041395459724,-14379.15915284896
42959,-11013,15355,5377,-6670,18178,14583,-31751,21492,-5627,37,-1,25389,2020-11-02 15:00:46,2020-11-02 15:01:15,2,D7:F2:3B:06:4D:C8,37,37,13195.921707111876,-800.5029670758558,-14532.761895093316
42960,19185,26620,-13819,-26640,-5377,-27397,-10505,12788,-15612,37,-1,25415,2020-11-02 15:00:46,2020-11-02 15:01:15,2,D7:F2:3B:06:4D:C8,37,37,17128.61894346044,30807.513505546747,-5016.065260269567
42961,-18453,6908,25869,30705,-5635,8710,23285,17140,6405,37,-1,25440,2020-11-02 15:00:46,2020-11-02 15:01:15,2,D7:F2:3B:06:4D:C8,37,37,-19401.323768151393,-2338.1306832263313,25991.54891405127
42962,-12812,-5904,13846,-14348,9726,-2032,27378,9973,14599,37,-1,25466,2020-11-02 15:00:46,2020-11-02 15:01:15,2,D7:F2:3B:06:4D:C8,37,37,-8552.038841316238,-15767.156683280225,8305.159708368657
42963,1545,-11802,-19686,3320,11007,-23789,-8465,759,-8695,37,-1,25491,2020-11-02 15:00:46,2020-11-02 15:01:15,2,D7:F2:3B:06:4D:C8,37,37,-18470.130365265595,-13695.6047613087,-705.3506306174058
42964,-28400,9705,-5863,-25863,30967,-25842,-10771,16120,30732,37,-1,25517,2020-11-02 15:00:46,2020-11-02 15:01:15,2,D7:F2:3B:06:4D:C8,37,37,726.3486039694199,-1362.2676320473272,30540.76683065093
42965,-23533,13553,21794,29442,-15365,-19964,-2324,31736,21774,37,-1,25542,2020-11-02 15:00:46,2020-11-02 15:01:15,2,D7:F2:3B:06:4D:C8,37,37,25385.669304380062,-17308.642152017223,-16384.231285662085
42966,15625,243,-28395,17163,-10491,-14339,31214,-18696,-4851,37,-1,25568,2020-11-02 15:00:46,2020-11-02 15:01:15,2,D7:F2:3B:06:4D:C8,37,37,-14299.08568377138,-27159.724867992252,10409.668232135331
42967,-19958,-1292,28939,-18166,19973,8447,-32272,12793,6669,37,-1,25594,2020-11-02 15:00:46,2020-11-02 15:01:15,2,D7:F2:3B:06:4D:C8,37,37,31571.245532177807,-2869.715789996825,15247.22715222627
42968,-6896,21752,-1778,25863,-16895,-21505,-5647,-31751,-17652,37,-1,25619,2020-11-02 15:00:46,2020-11-02 15:01:15,2,D7:F2:3B:06:4D:C8,37,37,6694.105718001095,-21017.662071755865,6108.390432323386
42969,-6896,-17416,24337,27654,3584,-20227,499,26105,31244,37,1,25645,2020-11-02 15:00:46,2020-11-02 15:01:15,2,D7:F2:3B:06:4D:C8,37,37,-20646.586266158774,8399.120085941395,-21126.634808601197
42970,-30452,-14345,8977,5895,3582,14588,10484,-5128,7948,37,1,25671,2020-11-02 15:00:46,2020-11-02 15:01:15,2,D7:F2:3B:06:4D:C8,37,37,-3574.974948547542,-33893.542744542756,-7220.607477290984
42971,-7413,18679,7441,2315,18430,-10246,-17675,16888,-22773,37,1,25696,2020-11-02 15:00:46,2020-11-02 15:01:15,2,D7:F2:3B:06:4D:C8,37,37,3488.801128301484,18115.627713297312,10903.136715660157
42972,-7414,-779,-8694,32526,12800,-29704,5624,-15369,-18422,37,1,25722,2020-11-02 15:00:46,2020-11-02 15:01:15,2,D7:F2:3B:06:4D:C8,37,37,-10990.6870485646,-779.8097940417937,-3123.550525544748
42973,4360,20982,-12285,-21491,-23553,-2314,-17926,24311,25865,37,1,25747,2020-11-02 15:00:46,2020-11-02 15:01:15,2,D7:F2:3B:06:4D:C8,37,37,-10617.965160612954,22137.413832515256,-2714.566937095404
42974,26373,-21257,17920,-8183,29183,8438,509,-3082,-7673,37,1,25773,2020-11-02 15:00:46,2020-11-02 15:01:15,2,D7:F2:3B:06:4D:C8,37,37,-3637.756011401005,-33677.320398177704,17920.0
42975,27649,-25863,-8963,14085,255,11767,-22018,-18698,22534,37,1,25798,2020-11-02 15:00:46,2020-11-02 15:01:15,2,D7:F2:3B:06:4D:C8,37,37,25413.18212119405,-28207.916594318503,-8495.937551735757
42976,-23294,20731,24315,27647,23547,-30727,26111,11766,9989,37,1,25824,2020-11-02 15:00:46,2020-11-02 15:01:15,2,D7:F2:3B:06:4D:C8,37,37,-14360.803715131398,-13387.381095651002,34324.18048628801
42977,15103,28155,15863,-8199,-27398,30202,13567,17909,12292,37,1,25849,2020-11-02 15:00:46,2020-11-02 15:01:15,2,D7:F2:3B:06:4D:C8,37,37,28876.127115330302,-279.201492686082,-20941.125383936942
42978,-12289,-28422,30968,20980,1021,32763,5374,-27148,27395,37,1,25875,2020-11-02 15:00:46,2020-11-02 15:01:15,2,D7:F2:3B:06:4D:C8,37,37,-42079.53865462135,-5238.1752776843605,-10941.689786065204
42979,-16390,16633,12282,-785,-24323,-17668,11260,9460,-13822,37,1,25901,2020-11-02 15:00:46,2020-11-02 15:01:15,2,D7:F2:3B:06:4D:C8,37,37,-4765.494918254766,-7173.318700635945,24939.323767961207
42980,-18185,-25609,11007,-24852,12542,-2304,23801,-11533,-15614,37,1,25926,2020-11-02 15:00:46,2020-11-02 15:01:15,2,D7:F2:3B:06:4D:C8,37,37,24257.50159500277,-7237.831713406538,-21606.863804283224
42981,31474,-29709,-27893,30187,1279,-6138,-11275,-269,-29437,37,1,25952,2020-11-02 15:00:46,2020-11-02 15:01:15,2,D7:F2:3B:06:4D:C8,37,37,46827.53947096084,18970.004508637576,9928.609270077775
42982,3319,19694,6173,-19730,15613,-241,-9231,-9996,-25339,37,1,25977,2020-11-02 15:00:46,2020-11-02 15:01:15,2,D7:F2:3B:06:4D:C8,37,37,-20436.65591044713,-563.918625448182,-4358.946774377834
42983,-13048,-2579,-6880,24056,-11011,19986,-1298,-30218,11784,37,1,26003,2020-11-02 15:00:46,2020-11-02 15:01:15,2,D7:F2:3B:06:4D:C8,37,37,6630.817531587598,-8291.268889250226,10560.448099817633
42984,-1524,-24340,-21479,5629,-26885,26893,-28691,-9481,24330,37,1,26029,2020-11-02 15:00:46,2020-11-02 15:01:15,2,D7:F2:3B:06:4D:C8,37,37,-5288.136157653045,-27070.5182092592,-17185.117889042496
42985,2573,-8213,283,2558,18682,25866,-25876,-25096,14348,37,1,26054,2020-11-02 15:00:46,2020-11-02 15:01:15,2,D7:F2:3B:06:4D:C8,37,37,-1971.003436760831,-8078.810898971348,2236.4585645476996
42986,-4591,-5906,-32231,19968,16378,30727,3308,4089,-10995,37,1,26080,2020-11-02 15:00:46,2020-11-02 15:01:15,2,D7:F2:3B:06:4D:C8,37,37,-7450.255522516067,672.1678727958192,-32231.0
42987,15882,-2574,-20976,28161,-2055,4869,-6165,9465,6415,37,1,26105,2020-11-02 15:00:46,2020-11-02 15:01:15,2,D7:F2:3B:06:4D:C8,37,37,16491.229319800204,-9558.616500648983,-18317.428370687932
42988,16407,-3344,8214,-20988,-16390,16896,236,-8712,13840,37,1,26131,2020-11-02 15:00:46,2020-11-02 15:01:15,2,D7:F2:3B:06:4D:C8,37,37,2227.998577136765,3167.3594776658665,18244.05758814406
42989,18,-7440,-11251,-31736,17149,16380,9197,13560,17936,37,1,26156,2020-11-02 15:00:46,2020-11-02 15:01:15,2,D7:F2:3B:06:4D:C8,37,37,10346.63414798975,-6977.485195586669,5118.670447784393
42990,-27630,24304,-8182,-27896,26366,-1034,-25106,11255,-16625,37,1,26182,2020-11-02 15:00:46,2020-11-02 15:01:15,2,D7:F2:3B:06:4D:C8,37,37,-10915.926458779628,-557.0805186228317,36077.3980608675
42991,-28917,-1551,15372,1548,20737,5876,-15632,502,23822,37,1,26208,2020-11-02 15:00:46,2020-11-02 15:01:15,2,D7:F2:3B:06:4D:C8,37,37,29968.259429059166,12326.120029525177,-4986.68886239604
42992,32265,-19980,-7673,13326,10754,5364,-21517,12277,32268,37,-1,26233,2020-11-02 15:00:46,2020-11-02 15:01:15,2,D7:F2:3B:06:4D:C8,37,37,16807.08697234605,9097.132816142872,-33672.979613177275
42993,8200,26614,-14587,24077,-20479,17652,-20746,-27148,-29942,37,-1,26259,2020-11-02 15:00:46,2020-11-02 15:01:15,2,D7:F2:3B:06:4D:C8,37,37,28012.84885031001,-5443.013472312254,-13190.12769573943
42994,-9983,-21000,26623,-12790,9728,-22795,27897,6132,-21752,37,-1,26284,2020-11-02 15:00:46,2020-11-02 15:01:15,2,D7:F2:3B:06:4D:C8,37,37,11377.437962642534,-32595.484152193265,7585.033703968484
42995,15873,-4614,-18692,-10491,22269,-25095,16123,-29197,25351,37,-1,26310,2020-11-02 15:00:46,2020-11-02 15:01:15,2,D7:F2:3B:06:4D:C8,37,37,9127.241658481811,-18372.656536859948,-14204.60983224289
42996,27137,12027,-3594,-5888,25084,-5637,6140,-7950,-23290,37,-1,26336,2020-11-02 15:00:46,2020-11-02 15:01:15,2,D7:F2:3B:06:4D:C8,37,37,-12292.096388025962,-336.2280699101867,27253.87405622334
42997,11010,-29957,-2574,21753,14330,-11011,-19973,1010,20742,37,-1,26361,2020-11-02 15:00:46,2020-11-02 15:01:15,2,D7:F2:3B:06:4D:C8,37,37,-15033.781586262536,-27447.07160367135,6775.772767698989
42998,-23806,-15622,30969,9716,5371,9725,13306,1009,9734,37,-1,26387,2020-11-02 15:00:46,2020-11-02 15:01:15,2,D7:F2:3B:06:4D:C8,37,37,5362.971695949018,-31734.458413587636,-27092.695782899253
42999,28668,10747,-26368,-16908,-27391,-12291,-25608,-20240,-17147,37,-1,26412,2020-11-02 15:00:46,2020-11-02 15:01:15,2,D7:F2:3B:06:4D:C8,37,37,25058.337677592594,23681.116621414883,-21069.12635584805
43000,5369,-2822,19713,-24073,8714,6144,-31753,-23311,9733,37,-1,26438,2020-11-02 15:00:46,2020-11-02 15:01:15,2,D7:F2:3B:06:4D:C8,37,37,15863.994772225575,-11761.337201086364,-5949.523603545206
43001,-9995,10489,-8701,-27913,-23283,-21502,-24330,-24333,-32764,37,-1,26463,2020-11-02 15:00:46,2020-11-02 15:01:15,2,D7:F2:3B:06:4D:C8,37,37,5038.26677746343,16076.118429841063,-1341.9504867292103
43002,-7183,-24335,-18676,26865,30468,3849,-18956,28405,-17148,37,1,26489,2020-11-02 15:00:46,2020-11-02 15:01:15,2,D7:F2:3B:06:4D:C8,37,37,24460.474807533323,1888.6042092733096,-19766.10827479053
43003,12284,-279,-8165,-31763,32501,4115,-9488,17142,24327,37,1,26515,2020-11-02 15:00:46,2020-11-02 15:01:15,2,D7:F2:3B:06:4D:C8,37,37,510.11993375406155,11332.497918786683,-9431.648348718385
43004,2320,-29975,6433,25075,11508,2068,-7444,10487,20747,37,1,26540,2020-11-02 15:00:46,2020-11-02 15:01:15,2,D7:F2:3B:06:4D:C8,37,37,-23626.92967698596,14259.311386752703,13553.846200041702
43005,-30445,-20757,7963,4348,-19974,-7158,-2326,10232,-14067,37,1,26566,2020-11-02 15:00:46,2020-11-02 15:01:15,2,D7:F2:3B:06:4D:C8,37,37,-14817.325174120428,17502.5825191099,29921.011394104404
43006,26123,-32020,13854,-9986,-4102,-23802,19434,-22280,7439,37,1,26591,2020-11-02 15:00:46,2020-11-02 15:01:15,2,D7:F2:3B:06:4D:C8,37,37,-37611.88987093858,-3525.4908965072,21738.019672339797
43007,16142,10481,14615,-8953,-11264,-17917,-8214,1273,-5617,37,1,26617,2020-11-02 15:00:46,2020-11-02 15:01:15,2,D7:F2:3B:06:4D:C8,37,37,16142.0,17961.00691077138,-922.9391915086999
43008,-13805,-23056,-10737,-18426,11517,-9983,492,16633,14864,37,1,26643,2020-11-02 15:00:46,2020-11-02 15:01:15,2,D7:F2:3B:06:4D:C8,37,37,22636.930761964613,5940.924908687592,17021.019561335204
43009,-9456,32752,12312,-3065,-27908,-25859,-2068,-19464,-26352,37,1,26668,2020-11-02 15:00:46,2020-11-02 15:01:15,2,D7:F2:3B:06:4D:C8,37,37,-29770.10860624043,-15638.349698423963,-13523.21841435879
43010,-4853,10737,23568,-10484,32510,22524,-16146,4344,30480,37,1,26694,2020-11-02 15:00:46,2020-11-02 15:01:15,2,D7:F2:3B:06:4D:C8,37,37,14888.807840576897,9465.180943707486,-19570.875115570398
43011,30990,29426,3599,-2802,-20995,-1286,497,24567,11536,37,1,26719,2020-11-02 15:00:46,2020-11-02 15:01:15,2,D7:F2:3B:06:4D:C8,37,37,-17193.870191859212,-33141.326248686426,21100.845938104558
43012,-32244,26354,26633,8977,8448,19959,-10765,-27146,19215,37,1,26745,2020-11-02 15:00:46,2020-11-02 15:01:15,2,D7:F2:3B:06:4D:C8,37,37,-20203.531118613006,-34140.5630335623,29491.775583891096
43013,22791,-30732,-10240,-6642,-10498,21751,-12042,-6155,-1011,37,1,26770,2020-11-02 15:00:46,2020-11-02 15:01:15,2,D7:F2:3B:06:4D:C8,37,37,-14786.277082641416,3477.8189300717986,36578.87218771224
43014,-8954,21495,-4611,5642,28925,13304,6905,8437,-9972,37,1,26796,2020-11-02 15:00:46,2020-11-02 15:01:15,2,D7:F2:3B:06:4D:C8,37,37,17514.429941427257,1399.0985346778475,15961.131824438355
43015,-26618,-28680,-17924,-8443,1021,-32264,-17414,22004,-16629,37,1,26822,2020-11-02 15:00:46,2020-11-02 15:01:15,2,D7:F2:3B:06:4D:C8,37,37,11271.747892885942,-37520.83892493534,-17817.53197859563
43016,29445,32760,-16899,-25855,25853,24568,-12549,-21773,-28918,37,1,26847,2020-11-02 15:00:46,2020-11-02 15:01:15,2,D7:F2:3B:06:4D:C8,37,37,20450.115612057045,-33099.49574635723,26683.665017953965
43017,-30205,30456,16385,-31490,31742,-16136,22524,6899,22537,37,1,26898,2020-11-02 15:00:46,2020-11-02 15:01:15,2,D7:F2:3B:06:4D:C8,37,37,30670.27258991253,28419.68377543423,18974.565590937258
43018,-2556,19450,18434,-1284,-8704,12282,-32004,-782,17160,37,1,26900,2020-11-02 15:00:46,2020-11-02 15:01:15,2,D7:F2:3B:06:4D:C8,37,37,12120.346639505027,2736.0067657617383,23880.105869027153
43019,-1278,-8199,-3074,20732,29444,10232,-20228,19955,-3322,37,1,26924,2020-11-02 15:00:46,2020-11-02 15:01:15,2,D7:F2:3B:06:4D:C8,37,37,1857.9539412639429,7683.14557485102,-3977.894195147599
43020,5630,-10761,8438,-12042,19458,-27145,-31236,-21517,24069,37,1,26950,2020-11-02 15:00:46,2020-11-02 15:01:15,2,D7:F2:3B:06:4D:C8,37,37,-5521.599496423393,10655.854823750276,8640.634350338803
43021,32758,-26122,-31247,24297,12792,8957,22010,243,-28412,37,1,26975,2020-11-02 15:00:46,2020-11-02 15:01:15,2,D7:F2:3B:06:4D:C8,37,37,-44320.591025693975,5005.438574312271,27247.958690734267
43022,-8980,19957,-9213,20190,15085,22281,-21772,20209,17158,37,1,27001,2020-11-02 15:00:46,2020-11-02 15:01:15,2,D7:F2:3B:06:4D:C8,37,37,15077.615940394064,17655.742796478302,-4974.119204299322
43023,18679,-532,29215,-27676,32487,27418,4844,-21008,12044,37,1,27026,2020-11-02 15:00:46,2020-11-02 15:01:15,2,D7:F2:3B:06:4D:C8,37,37,9894.861529421003,-20342.271967601424,-26286.650157631753
43024,-1771,-23318,14886,-13318,28410,10009,2279,16371,6417,37,1,27052,2020-11-02 15:00:46,2020-11-02 15:01:15,2,D7:F2:3B:06:4D:C8,37,37,27333.045847558755,-588.6241635492224,-4584.396065932479
43025,-26604,31464,17434,-4088,-25594,24588,-31257,-14347,-13551,37,-1,27078,2020-11-02 15:00:46,2020-11-02 15:01:15,2,D7:F2:3B:06:4D:C8,37,37,1595.151552299927,22211.40518490623,-38804.76052286776
43026,4879,-21782,-27632,-27642,29698,-6648,-7960,28919,-14575,37,-1,27103,2020-11-02 15:00:46,2020-11-02 15:01:15,2,D7:F2:3B:06:4D:C8,37,37,-31063.39666420116,16279.16838108801,5642.8409070858015
43027,9233,21744,20242,30720,-20999,5128,-6936,17656,-5614,37,-1,27129,2020-11-02 15:00:46,2020-11-02 15:01:15,2,D7:F2:3B:06:4D:C8,37,37,-10179.264558309387,28781.389013278273,5983.52809956561
43028,-1779,23281,-20973,-29184,16630,4871,23784,-31752,-17644,37,-1,27154,2020-11-02 15:00:46,2020-11-02 15:01:15,2,D7:F2:3B:06:4D:C8,37,37,-175.71112080345483,31379.12622904717,596.7358741934909
43029,32281,2801,-1258,-24059,10999,-20475,16616,-19720,-25066,37,-1,27180,2020-11-02 15:00:46,2020-11-02 15:01:15,2,D7:F2:3B:06:4D:C8,37,37,21188.780360230845,-24499.574709800363,1515.7677542439599
43030,-29935,-23829,12807,-15350,12796,29182,30697,22008,28439,37,-1,27205,2020-11-02 15:00:46,2020-11-02 15:01:15,2,D7:F2:3B:06:4D:C8,37,37,-17635.134948160958,-28865.68536711046,-21993.611314359827
43031,-1518,-28949,32519,16391,-22535,-7941,-27414,28407,-7657,37,-1,27231,2020-11-02 15:00:46,2020-11-02 15:01:15,2,D7:F2:3B:06:4D:C8,37,37,13399.768553608461,-31396.58561753495,27065.381953161555
43032,-14069,6637,-29178,9227,28926,14071,5868,9462,-22249,37,-1,27256,2020-11-02 15:00:46,2020-11-02 15:01:15,2,D7:F2:3B:06:4D:C8,37,37,19976.866027291908,-25575.235560808527,6338.324994569579
43033,7180,-18192,-4607,14861,-8961,4087,23534,3573,-13802,37,-1,27282,2020-11-02 15:00:46,2020-11-02 15:01:15,2,D7:F2:3B:06:4D:C8,37,37,4654.251986329888,-10026.259804155585,16779.08715596049
43034,-12020,-17167,16896,7949,16643,-27661,8689,8436,10517,37,-1,27308,2020-11-02 15:00:46,2020-11-02 15:01:15,2,D7:F2:3B:06:4D:C8,37,37,13842.427061335708,-21922.65808247294,7241.918299082417
43035,28679,29171,-12034,-3062,15876,3315,5364,31219,-8174,37,-1,27359,2020-11-02 15:00:46,2020-11-02 15:01:15,2,D7:F2:3B:06:4D:C8,37,37,35176.91288881105,-794.6505620766402,24087.398533199685
43036,28423,14070,-15361,-32761,24322,18676,-27658,3827,-21488,37,-1,27361,2020-11-02 15:00:46,2020-11-02 15:01:15,2,D7:F2:3B:06:4D:C8,37,37,-27795.849982747826,-6415.228378274802,20688.830769068496
43037,-11259,11512,29440,22276,23552,-18188,28152,30194,-16370,37,1,27384,2020-11-02 15:00:46,2020-11-02 15:01:15,2,D7:F2:3B:06:4D:C8,37,37,3590.4605175666547,-27612.185362459768,-18726.468908498406
43038,-14842,21497,-11518,6661,-16632,30707,25594,-24078,27404,37,1,27410,2020-11-02 15:00:46,2020-11-02 15:01:15,2,D7:F2:3B:06:4D:C8,37,37,-19248.644193118576,12546.29562693514,16945.514443895496
43039,28164,-3081,-20229,3333,-12788,-25871,-15876,1012,-28407,37,1,27436,2020-11-02 15:00:46,2020-11-02 15:01:15,2,D7:F2:3B:06:4D:C8,37,37,-5458.7925064710835,32499.75423312987,11219.779728562069
43040,7933,-16393,6647,32252,-8188,-8462,2302,4597,-1530,37,1,27461,2020-11-02 15:00:46,2020-11-02 15:01:15,2,D7:F2:3B:06:4D:C8,37,37,7933.0,-16393.0,6647.0
43041,4091,-10506,-14089,5105,14843,9464,11261,-21260,20229,37,1,27487,2020-11-02 15:00:46,2020-11-02 15:01:15,2,D7:F2:3B:06:4D:C8,37,37,838.9525794802025,-6361.12061041962,16865.48372117083
43042,-10760,-8714,16892,-26902,26105,-4612,32250,-23821,-20476,37,1,27512,2020-11-02 15:00:46,2020-11-02 15:01:15,2,D7:F2:3B:06:4D:C8,37,37,-14876.388849462752,-15985.649115690441,-450.7073880087046
43043,-14605,-6409,-2302,-4121,-24838,25858,-22026,-10510,6405,37,1,27538,2020-11-02 15:00:46,2020-11-02 15:01:15,2,D7:F2:3B:06:4D:C8,37,37,-10776.575232587744,-5641.604132645433,-10569.68490859091
43044,25840,-28941,281,28138,-19203,10,19442,-2574,-32506,37,1,27564,2020-11-02 15:00:46,2020-11-02 15:01:15,2,D7:F2:3B:06:4D:C8,37,37,-20106.64017449014,32894.66574959689,-4362.342044805342
43045,767,7151,17704,1271,31745,2833,4847,-28940,-32760,37,1,27589,2020-11-02 15:00:46,2020-11-02 15:01:15,2,D7:F2:3B:06:4D:C8,37,37,-1979.8765459242213,18516.56155965836,4286.4604127743305
