id,accelerationx,accelerationy,accelerationz,angularvelocityx,angularvelocityy,angularvelocityz,pitch,roll,yaw,mdlcircle_id,hallsensor,timestamp,starttime,endtime,train_mode,blemac,training_id,training_handle_id,accelerationWorldx,accelerationWorldy,accelerationWorldz
3556,-28671,-19713,-19956,11778,-19968,2559,11000,-8445,-12081,4,1,49828,2020-11-02 14:20:50,2020-11-02 14:21:20,2,D7:F2:3B:06:4D:C8,4,4,2446.537378076331,-9412.027512280221,-38913.99155786714
3557,7679,22783,-18934,-8702,-11009,32255,-29960,-9725,-19761,4,1,49854,2020-11-02 14:20:50,2020-11-02 14:21:20,2,D7:F2:3B:06:4D:C8,4,4,13092.356660908199,-23001.542323366615,15363.845020369967
3558,-3844,28669,-9975,-1022,31997,1792,-520,-21757,-16689,4,1,49879,2020-11-02 14:20:50,2020-11-02 14:21:20,2,D7:F2:3B:06:4D:C8,4,4,23899.189894173564,-16670.865946192862,9332.709842607313
3559,13307,15610,-5877,-5118,15098,18176,31225,515,-817,4,1,49905,2020-11-02 14:20:50,2020-11-02 14:21:20,2,D7:F2:3B:06:4D:C8,4,4,13307.0,-1207.6312471143028,-16635.89059145897
3560,-29192,8184,6926,-32766,-28423,-1792,-4615,10242,23248,4,1,49931,2020-11-02 14:20:50,2020-11-02 14:21:20,2,D7:F2:3B:06:4D:C8,4,4,12693.81549188917,2176.585518207051,28306.35475895485
3561,-21000,29435,16656,-4093,11002,-24831,29690,22785,-13360,4,1,49956,2020-11-02 14:20:50,2020-11-02 14:21:20,2,D7:F2:3B:06:4D:C8,4,4,14843.944947794298,-26009.757259566963,26229.589906921068
3562,-3080,-3590,-27127,-25593,18934,18435,24827,23040,26065,4,1,49982,2020-11-02 14:20:50,2020-11-02 14:21:20,2,D7:F2:3B:06:4D:C8,4,4,-4961.668816917398,22073.492174099778,-15696.860029674262
3563,-11019,-14350,19202,6411,26857,-29175,-16644,2302,-9518,4,1,50007,2020-11-02 14:20:50,2020-11-02 14:21:20,2,D7:F2:3B:06:4D:C8,4,4,13763.787548306966,21932.552022625907,5057.566519570305
3564,32753,-1560,-27650,-6386,16609,-25324,8702,3834,-11051,4,1,50033,2020-11-02 14:20:50,2020-11-02 14:21:20,2,D7:F2:3B:06:4D:C8,4,4,36565.49944643939,-15445.067707041211,-16252.053493554382
3565,-8971,10987,-29711,-29420,-21286,-1761,-2306,9205,-16166,4,1,50084,2020-11-02 14:20:50,2020-11-02 14:21:20,2,D7:F2:3B:06:4D:C8,4,4,22411.600114143872,22568.50104343697,-8504.08560493666
3566,-4091,-796,-25885,22294,28121,-217,-8451,27119,20194,4,1,50086,2020-11-02 14:20:50,2020-11-02 14:21:20,2,D7:F2:3B:06:4D:C8,4,4,-9489.466683995772,23788.776958435556,5607.783419064971
3567,-5577,1014,10188,23297,249,-17114,21496,-5140,20204,4,1,50110,2020-11-02 14:20:50,2020-11-02 14:21:20,2,D7:F2:3B:06:4D:C8,4,4,5865.744370930574,1630.1225982071844,-9942.947867192634
3568,-21689,-22282,28906,-24609,8730,4106,-18702,-3345,32239,4,-1,50135,2020-11-02 14:20:50,2020-11-02 14:21:20,2,D7:F2:3B:06:4D:C8,4,4,18912.231957364056,28212.535404338447,-25472.287087142515
3569,32,-3856,1803,26591,13079,-11530,-27409,-31502,-14869,4,-1,50161,2020-11-02 14:20:50,2020-11-02 14:21:20,2,D7:F2:3B:06:4D:C8,4,4,2682.132757921554,3082.8577788016228,-1192.7785983016465
3570,10021,12020,-3827,1256,13842,-8205,-28691,20211,-3097,4,-1,50186,2020-11-02 14:20:50,2020-11-02 14:21:20,2,D7:F2:3B:06:4D:C8,4,4,-8447.323902657405,7079.42266840381,-11750.37291177106
3571,17190,18160,-21743,-29974,24339,20458,-21268,5619,19427,4,-1,50212,2020-11-02 14:20:50,2020-11-02 14:21:20,2,D7:F2:3B:06:4D:C8,4,4,-14047.869564234863,23261.86473000406,18962.667507216298
3572,-7655,-6424,29206,19950,-6644,1248,749,23025,-26915,4,-1,50238,2020-11-02 14:20:50,2020-11-02 14:21:20,2,D7:F2:3B:06:4D:C8,4,4,16038.699084701842,-8741.961684328346,-24883.63869252484
3573,-14853,-22559,-5360,12274,27918,-5661,-22802,14319,-30249,4,-1,50263,2020-11-02 14:20:50,2020-11-02 14:21:20,2,D7:F2:3B:06:4D:C8,4,4,-16747.404769009212,19450.40544613474,9972.755460951588
3574,-28142,-29472,23086,2282,-16605,-16396,32751,-26640,-23087,4,-1,50289,2020-11-02 14:20:50,2020-11-02 14:21:20,2,D7:F2:3B:06:4D:C8,4,4,-39670.41750048274,24853.049216495434,-1455.4257039948616
3575,11509,25823,-7653,-5876,-12794,-10004,-15630,-29199,17868,4,-1,50315,2020-11-02 14:20:50,2020-11-02 14:21:20,2,D7:F2:3B:06:4D:C8,4,4,18534.107348015754,15242.014097213292,-16793.47165039378
3576,-3091,9696,9738,-20968,-17659,20987,22263,-24335,-1591,4,-1,50340,2020-11-02 14:20:50,2020-11-02 14:21:20,2,D7:F2:3B:06:4D:C8,4,4,-4240.044991894407,-10973.193885524906,7746.378212906335
3577,-6157,20450,-4353,-6880,-2308,-16895,-14597,242,-3383,4,-1,50366,2020-11-02 14:20:50,2020-11-02 14:21:20,2,D7:F2:3B:06:4D:C8,4,4,-6157.0,-12468.374506361255,-16783.645199095477
3578,-1040,17134,-16907,-21222,7928,14347,20735,12785,31947,4,-1,50391,2020-11-02 14:20:50,2020-11-02 14:21:20,2,D7:F2:3B:06:4D:C8,4,4,-8914.196893335593,-21252.658899503396,-7025.936837760851
3579,-21259,-17937,-27916,-21477,5104,-8682,-3840,13039,13007,4,-1,50417,2020-11-02 14:20:50,2020-11-02 14:21:20,2,D7:F2:3B:06:4D:C8,4,4,23191.922042450078,-7572.6997289925785,30947.909085937194
3580,3580,32486,-16655,-21731,-12306,-2528,-29696,29676,-22059,4,-1,50442,2020-11-02 14:20:50,2020-11-02 14:21:20,2,D7:F2:3B:06:4D:C8,4,4,27636.987114318,-21500.97276519132,10929.351965854225
3581,-27890,17634,-4889,-22502,-13325,17960,-12804,18410,-22049,4,-1,50468,2020-11-02 14:20:50,2020-11-02 14:21:20,2,D7:F2:3B:06:4D:C8,4,4,-27041.607341836185,8048.32018096307,17795.740828486287
3582,-4812,26358,-15653,6664,-26620,-16095,-4618,25067,-11543,4,-1,50494,2020-11-02 14:20:50,2020-11-02 14:21:20,2,D7:F2:3B:06:4D:C8,4,4,17728.570240925656,-24600.587580024083,6589.749989956366
3583,-31701,-28677,3300,26354,1289,26122,27635,-32275,7661,4,-1,50545,2020-11-02 14:20:50,2020-11-02 14:21:20,2,D7:F2:3B:06:4D:C8,4,4,-12606.260634095412,19681.91452083113,35943.263118697956
3584,-11742,-10247,21494,-22038,-20216,26371,27376,-15634,7405,4,-1,50547,2020-11-02 14:20:50,2020-11-02 14:21:20,2,D7:F2:3B:06:4D:C8,4,4,-13591.472388801205,21335.776723406205,-8057.550428846993
3585,3879,-21766,28157,-12823,2830,-3331,5102,-3857,-29461,4,-1,50570,2020-11-02 14:20:50,2020-11-02 14:21:20,2,D7:F2:3B:06:4D:C8,4,4,21972.271379729726,-2454.5238673742683,28157.0
3586,31272,-15882,31491,2281,3596,-3852,32492,20976,-25880,4,-1,50596,2020-11-02 14:20:50,2020-11-02 14:21:20,2,D7:F2:3B:06:4D:C8,4,4,-1436.657359793513,-37642.98287893757,-28333.740392093736
3587,23844,11249,15116,-23062,31751,2540,28395,2287,7141,4,-1,50622,2020-11-02 14:20:50,2020-11-02 14:21:20,2,D7:F2:3B:06:4D:C8,4,4,9443.885162258237,22272.24397375572,-18393.74824269324
3588,-28390,-12318,7197,-29970,-2308,-6426,6379,27884,29409,4,-1,50647,2020-11-02 14:20:50,2020-11-02 14:21:20,2,D7:F2:3B:06:4D:C8,4,4,-5535.082922820089,-26100.712339538884,-17252.179729128373
3589,-13550,-3092,22798,-785,7443,-8474,-531,-28950,-1318,4,-1,50674,2020-11-02 14:20:50,2020-11-02 14:21:20,2,D7:F2:3B:06:4D:C8,4,4,18017.933000743513,-3092.0,19460.354425876158
3590,22286,18410,-25326,-13583,22805,-13338,-24334,-23574,28370,4,1,50698,2020-11-02 14:20:50,2020-11-02 14:21:20,2,D7:F2:3B:06:4D:C8,4,4,-161.12164823210605,-11099.531870155774,-36793.67614248225
3591,25857,22765,-19694,-7425,3594,21224,-22281,1003,-4406,4,1,50724,2020-11-02 14:20:50,2020-11-02 14:21:20,2,D7:F2:3B:06:4D:C8,4,4,25857.0,-25316.396623840166,16284.315244566294
3592,19969,-31763,-14838,-1274,31241,24813,-19460,-28949,30917,4,1,50749,2020-11-02 14:20:50,2020-11-02 14:21:20,2,D7:F2:3B:06:4D:C8,4,4,34967.32188098013,-14735.206156851662,-13710.414799961683
3593,-4107,4075,-10731,1036,19201,-19979,-20992,12780,1218,4,1,50775,2020-11-02 14:20:50,2020-11-02 14:21:20,2,D7:F2:3B:06:4D:C8,4,4,10846.23157706594,-5548.57823013725,-447.18586818531367
3594,22516,9194,-23276,-12272,-12545,-30465,-15101,18668,1217,4,1,50801,2020-11-02 14:20:50,2020-11-02 14:21:20,2,D7:F2:3B:06:4D:C8,4,4,-22103.52429962171,-24990.860922008997,-4490.3398438020595
3595,20982,12000,29974,16161,1273,23562,31238,-22293,-27198,4,1,50826,2020-11-02 14:20:50,2020-11-02 14:21:20,2,D7:F2:3B:06:4D:C8,4,4,-11028.385829878747,-36411.94032857692,5935.512403784802
3596,9219,30679,-3582,-23757,-3600,-11252,11787,24553,453,4,1,50852,2020-11-02 14:20:50,2020-11-02 14:21:20,2,D7:F2:3B:06:4D:C8,4,4,-28266.07558620034,-9509.86541554019,-12231.64570830605
3597,27120,-22054,15068,20276,12015,19476,-1774,-27931,27589,4,1,50877,2020-11-02 14:20:50,2020-11-02 14:21:20,2,D7:F2:3B:06:4D:C8,4,4,-12557.327720026406,19200.95698402506,-30373.585751923914
3598,-9470,-551,16339,-28386,20752,17456,30730,-25631,31700,4,1,50903,2020-11-02 14:20:50,2020-11-02 14:21:20,2,D7:F2:3B:06:4D:C8,4,4,17738.687450631754,-5282.664430915676,3792.0767448902993
3599,21300,20981,-32031,-26625,3111,-1742,-21517,-23833,-5907,4,1,50928,2020-11-02 14:20:50,2020-11-02 14:21:20,2,D7:F2:3B:06:4D:C8,4,4,-17048.49162073225,-20257.98594023406,-34911.892831857476
3600,-14043,23033,3304,-15627,-12782,27663,-31760,-29971,10480,4,1,50954,2020-11-02 14:20:50,2020-11-02 14:21:20,2,D7:F2:3B:06:4D:C8,4,4,6944.921341574943,17044.634114967917,19997.246546617578
3601,20761,-11795,-30737,-30736,14838,-11001,17645,18926,-19983,4,-1,50980,2020-11-02 14:20:50,2020-11-02 14:21:20,2,D7:F2:3B:06:4D:C8,4,4,18588.84563328126,-13526.677409708445,-31406.816637088887
3602,5423,-28172,30457,-31508,25608,28681,10985,3055,32243,4,-1,51005,2020-11-02 14:20:50,2020-11-02 14:21:20,2,D7:F2:3B:06:4D:C8,4,4,-37633.831715347085,-16787.86884124486,-7249.933254182128
3603,26920,6133,-27143,-13592,-12002,12034,8680,26609,-11025,4,-1,51031,2020-11-02 14:20:50,2020-11-02 14:21:20,2,D7:F2:3B:06:4D:C8,4,4,16386.876902403485,22884.669199535827,26585.7991983181
3604,7720,21743,-26369,-27932,10002,-17674,-14106,31730,19691,4,-1,51056,2020-11-02 14:20:50,2020-11-02 14:21:20,2,D7:F2:3B:06:4D:C8,4,4,-5859.082587423796,34194.5806793667,4907.383559090233
3605,-7657,16358,4629,16612,25605,-11029,3044,30960,-22808,4,-1,51082,2020-11-02 14:20:50,2020-11-02 14:21:20,2,D7:F2:3B:06:4D:C8,4,4,8853.144691198177,-15261.372385856266,-6029.410914586377
3606,9251,-5403,-24803,-19223,788,27623,-3102,-2067,-9244,4,-1,51107,2020-11-02 14:20:50,2020-11-02 14:21:20,2,D7:F2:3B:06:4D:C8,4,4,451.86890066909655,-10703.70143906341,-24803.0
3607,-22780,-22562,13336,17652,-3312,-25628,-30747,-7958,28382,4,-1,51133,2020-11-02 14:20:50,2020-11-02 14:21:20,2,D7:F2:3B:06:4D:C8,4,4,-16295.752759220188,10488.18314048917,-28814.36441120863
3608,-15617,-4894,-27626,-260,-30959,-16661,-13334,11753,-1066,4,-1,51159,2020-11-02 14:20:50,2020-11-02 14:21:20,2,D7:F2:3B:06:4D:C8,4,4,20999.143954298394,-23083.628095424567,7564.381543707243
3609,5880,32230,29711,15623,-30194,-32527,19185,15593,-49,4,-1,51184,2020-11-02 14:20:50,2020-11-02 14:21:20,2,D7:F2:3B:06:4D:C8,4,4,-25056.959635643972,-36100.27472489907,5000.975865220875
3610,-24321,-29465,-29680,-13041,-8438,16631,29686,18410,-4149,4,-1,51210,2020-11-02 14:20:50,2020-11-02 14:21:20,2,D7:F2:3B:06:4D:C8,4,4,26876.80896536694,-36818.97876667591,-16204.925436984877
3611,15096,3050,-11274,-750,-9216,-1286,5371,-31766,-8247,4,-1,51235,2020-11-02 14:20:50,2020-11-02 14:21:20,2,D7:F2:3B:06:4D:C8,4,4,-961.011052375633,7141.67397537537,-17673.92832922715
3612,21242,-3351,25094,17688,-12032,14082,13054,-4886,-13367,4,-1,51261,2020-11-02 14:20:50,2020-11-02 14:21:20,2,D7:F2:3B:06:4D:C8,4,4,-28320.035032021704,-10400.015145245574,-13489.84439360685
3613,11766,20712,-23038,-30686,-20232,10508,-8448,19434,3276,4,-1,51287,2020-11-02 14:20:50,2020-11-02 14:21:20,2,D7:F2:3B:06:4D:C8,4,4,-15864.3575295352,-8195.067188863408,27916.629057697744
3614,1527,-28705,-26381,10539,18673,10519,19458,17640,32465,4,1,51312,2020-11-02 14:20:50,2020-11-02 14:21:20,2,D7:F2:3B:06:4D:C8,4,4,31274.921537194903,7580.637136495295,-22060.805480468985
3615,21247,28888,-12317,23849,13557,15651,-3586,-22043,26844,4,1,51338,2020-11-02 14:20:50,2020-11-02 14:21:20,2,D7:F2:3B:06:4D:C8,4,4,34475.345538131936,-4279.048063596583,15192.114391875686
3616,-2778,8679,-26153,15894,-26610,6699,-14091,-21017,31211,4,1,51363,2020-11-02 14:20:50,2020-11-02 14:21:20,2,D7:F2:3B:06:4D:C8,4,4,-25607.05463902783,-10002.629351325439,-3353.7878248103625
3617,4150,-30725,29912,30718,26898,27416,9970,-29716,-1808,4,1,51389,2020-11-02 14:20:50,2020-11-02 14:21:20,2,D7:F2:3B:06:4D:C8,4,4,-8117.341773622586,-41770.8684453724,-6728.980669432378
3618,17703,-18952,7650,-9234,25094,-24826,-23057,-19730,-10767,4,1,51415,2020-11-02 14:20:50,2020-11-02 14:21:20,2,D7:F2:3B:06:4D:C8,4,4,-2442.082577614705,16015.583037657803,21647.964006991475
3619,-23257,28661,20722,-13340,20999,-13313,9708,17135,-31759,4,1,51440,2020-11-02 14:20:50,2020-11-02 14:21:20,2,D7:F2:3B:06:4D:C8,4,4,13725.118167219804,39518.80863555531,6451.910517219825
3620,24866,-19215,-16897,-27677,-8689,-28676,19689,-5393,10479,4,1,51466,2020-11-02 14:20:50,2020-11-02 14:21:20,2,D7:F2:3B:06:4D:C8,4,4,-4578.3894464791865,32490.38275673472,14016.282260187378
3621,26152,494,21514,-15131,15625,29432,-1562,4848,21996,4,1,51491,2020-11-02 14:20:50,2020-11-02 14:21:20,2,D7:F2:3B:06:4D:C8,4,4,-25959.997055076423,3201.514157461027,21514.0
3622,25128,4842,14104,29674,9220,-23570,-17436,24814,20458,4,1,51517,2020-11-02 14:20:50,2020-11-02 14:21:20,2,D7:F2:3B:06:4D:C8,4,4,5682.649175893059,2021.481560952937,28590.300359430454
3623,28956,1256,-7403,-20496,22540,23529,-3356,-11029,-30234,4,1,51542,2020-11-02 14:20:50,2020-11-02 14:21:20,2,D7:F2:3B:06:4D:C8,4,4,5000.532148082697,21332.175993597037,20365.77586575561
3624,12564,28135,-31728,7668,24593,18406,25832,-31767,-4385,4,1,51568,2020-11-02 14:20:50,2020-11-02 14:21:20,2,D7:F2:3B:06:4D:C8,4,4,3032.8474041649206,-42402.09284412767,-12205.026180268
3625,-26885,-11803,-15351,-5131,5903,22757,26350,-12825,7127,4,1,51594,2020-11-02 14:20:50,2020-11-02 14:21:20,2,D7:F2:3B:06:4D:C8,4,4,10.769066812754318,-7206.442668991029,-32339.361513266544
3626,-9972,7402,25882,-15368,3608,-10512,-6413,-29976,7375,4,1,51619,2020-11-02 14:20:50,2020-11-02 14:21:20,2,D7:F2:3B:06:4D:C8,4,4,-19201.794941418204,17805.802960514047,11762.345172586784
3627,4100,-31516,-8173,11,-4090,-24600,-20486,-18967,-15673,4,1,51645,2020-11-02 14:20:50,2020-11-02 14:21:20,2,D7:F2:3B:06:4D:C8,4,4,29747.354387961896,-7204.276552998171,-11834.673263969938
3628,-28941,-10524,9991,31764,12543,-1298,1794,-21783,7106,4,1,51670,2020-11-02 14:20:50,2020-11-02 14:21:20,2,D7:F2:3B:06:4D:C8,4,4,23574.25502768369,17236.742270225175,-13975.169186795667
3629,-32527,1002,-25093,-18671,-30459,-9728,8454,13546,-20032,4,1,51698,2020-11-02 14:20:50,2020-11-02 14:21:20,2,D7:F2:3B:06:4D:C8,4,4,1101.3063045630806,-21718.344382933,34867.87954103106
3630,27381,25320,16386,11031,18437,11279,28934,-11030,-7485,4,1,51722,2020-11-02 14:20:50,2020-11-02 14:21:20,2,D7:F2:3B:06:4D:C8,4,4,36184.544746753,-13979.182987532668,12433.170210019118
3631,26354,-16148,-21273,11797,-17407,-26338,-13308,12010,20426,4,-1,51747,2020-11-02 14:20:50,2020-11-02 14:21:20,2,D7:F2:3B:06:4D:C8,4,4,-8548.260390047346,13969.677211626831,-33758.067360364425
3632,3595,-24860,22766,-3046,-24838,22567,-28929,10473,-8748,4,-1,51773,2020-11-02 14:20:50,2020-11-02 14:21:20,2,D7:F2:3B:06:4D:C8,4,4,-31156.739198370153,-4932.830976279303,-12416.084813023965
3633,14365,-9493,-9508,-4073,2817,31524,-8967,-30743,19424,4,-1,51798,2020-11-02 14:20:50,2020-11-02 14:21:20,2,D7:F2:3B:06:4D:C8,4,4,-4887.580725716438,13959.228369933353,-12966.257592908334
3634,-16352,16370,17115,30466,-29440,20253,-11276,21739,24296,4,-1,51824,2020-11-02 14:20:50,2020-11-02 14:21:20,2,D7:F2:3B:06:4D:C8,4,4,7429.247691500439,-26962.783538795986,6789.890395166016
3635,32305,32501,-13848,12532,19453,-25323,25583,3309,-10259,4,-1,51849,2020-11-02 14:20:50,2020-11-02 14:21:20,2,D7:F2:3B:06:4D:C8,4,4,-9240.588643928812,-44324.41762731553,-15545.181038283676
3636,28468,5367,-25360,-1046,10252,29704,-24085,-12306,14831,4,-1,51875,2020-11-02 14:20:50,2020-11-02 14:21:20,2,D7:F2:3B:06:4D:C8,4,4,-1522.2473332585741,-34363.42446661805,17297.373644094732
3637,9771,4594,-6405,-21021,31506,5375,23273,31728,-27156,4,-1,51901,2020-11-02 14:20:50,2020-11-02 14:21:20,2,D7:F2:3B:06:4D:C8,4,4,4574.261695601943,6713.667771244649,9571.002925373064
3638,22051,-20753,-24809,14308,11266,15605,21222,6896,30186,4,-1,51926,2020-11-02 14:20:50,2020-11-02 14:21:20,2,D7:F2:3B:06:4D:C8,4,4,31601.680772682346,-22058.838195002783,-6867.42461394119
3639,29997,-15892,-1255,24304,-23299,27124,-20253,26862,-2327,4,-1,51952,2020-11-02 14:20:50,2020-11-02 14:21:20,2,D7:F2:3B:06:4D:C8,4,4,-22244.895019292424,15555.855145859145,20423.778158355195
3640,4645,21996,15897,-23056,12549,14313,-3870,-11029,-25,4,-1,51977,2020-11-02 14:20:50,2020-11-02 14:21:20,2,D7:F2:3B:06:4D:C8,4,4,-10867.160034733623,21996.0,12497.818480818496
3641,22537,-1308,-5087,-29193,15365,27112,13028,26600,21988,4,-1,52003,2020-11-02 14:20:50,2020-11-02 14:21:20,2,D7:F2:3B:06:4D:C8,4,4,14549.13357561339,-7296.105722744426,16449.752444383324
3642,30495,-5393,5664,-18689,-5612,27377,-17944,14567,-21026,4,-1,52029,2020-11-02 14:20:50,2020-11-02 14:21:20,2,D7:F2:3B:06:4D:C8,4,4,17792.229552772733,-3664.1628036409525,-25712.270387693396
3643,31246,3048,-23798,27912,-30454,-22044,13554,24806,8917,4,-1,52054,2020-11-02 14:20:50,2020-11-02 14:21:20,2,D7:F2:3B:06:4D:C8,4,4,-33359.476354412924,-14251.25662280788,15362.117237875764
3644,-8441,18411,11270,-4861,29964,30960,-13574,19174,-19252,4,-1,52080,2020-11-02 14:20:50,2020-11-02 14:21:20,2,D7:F2:3B:06:4D:C8,4,4,-4913.864151439928,-3312.6989876933294,22407.772457746196
3645,27387,7149,2577,-9982,21518,26097,15872,19944,2247,4,-1,52105,2020-11-02 14:20:50,2020-11-02 14:21:20,2,D7:F2:3B:06:4D:C8,4,4,-26346.902957987517,-5318.293203405303,-9238.688268634332
3646,-22037,-22038,-20472,32275,7426,-6914,-9981,-23831,9925,4,-1,52131,2020-11-02 14:20:50,2020-11-02 14:21:20,2,D7:F2:3B:06:4D:C8,4,4,35357.852457350644,1145.341605151043,11786.265702576591
3647,-28172,-15384,2813,-17639,13314,24849,-10492,-25367,17096,4,-1,52156,2020-11-02 14:20:50,2020-11-02 14:21:20,2,D7:F2:3B:06:4D:C8,4,4,-6813.023991195023,29172.438454739666,11865.645692495094
3648,-15109,1508,-25104,7710,-26627,-16867,-3070,-6936,-26161,4,-1,52182,2020-11-02 14:20:50,2020-11-02 14:21:20,2,D7:F2:3B:06:4D:C8,4,4,-9613.041664177399,8823.116656946466,-26277.534195976288
3649,-6904,-25887,10719,14365,21244,16422,-10755,6888,-19238,4,-1,52208,2020-11-02 14:20:50,2020-11-02 14:21:20,2,D7:F2:3B:06:4D:C8,4,4,-19979.10674466314,2169.3362408216835,20708.16795275752
3650,21289,-8975,26593,-15350,12548,-25306,12022,-28695,-15642,4,-1,52233,2020-11-02 14:20:50,2020-11-02 14:21:20,2,D7:F2:3B:06:4D:C8,4,4,-13431.771543128625,19782.80882775584,-25868.664115057538
3651,18983,16631,23532,-16634,8699,17939,3826,-28437,3053,4,1,52284,2020-11-02 14:20:50,2020-11-02 14:21:20,2,D7:F2:3B:06:4D:C8,4,4,5400.959464732219,16631.0,-29747.923454592918
3652,-8413,-32008,-25117,20993,10995,13836,-3858,23019,-17167,4,1,52286,2020-11-02 14:20:50,2020-11-02 14:21:20,2,D7:F2:3B:06:4D:C8,4,4,-39303.598881354745,-8964.77156659099,10050.58743220574
3653,-6098,-17670,14058,-31758,-27902,31497,26347,-8981,-23820,4,1,52310,2020-11-02 14:20:50,2020-11-02 14:21:20,2,D7:F2:3B:06:4D:C8,4,4,-12337.928154863506,-19661.53578946934,-2870.7851269021658
3654,-18131,-15624,20977,-8218,23572,-12544,-27927,23277,-14862,4,1,52336,2020-11-02 14:20:50,2020-11-02 14:21:20,2,D7:F2:3B:06:4D:C8,4,4,-18123.379634676887,-25992.3265192717,2969.7034755921713
3655,-8156,14576,-29697,-32290,32533,-6664,18152,-31250,-1299,4,1,52361,2020-11-02 14:20:50,2020-11-02 14:21:20,2,D7:F2:3B:06:4D:C8,4,4,27851.113880928744,-10239.289751094217,16744.083193315637
3656,-13011,-17687,-492,30176,15876,2027,-19227,11501,31978,4,1,52387,2020-11-02 14:20:50,2020-11-02 14:21:20,2,D7:F2:3B:06:4D:C8,4,4,19029.499421097127,-2845.9298684921396,10589.475386726595
3657,3349,19169,-22506,-26394,-19964,-17439,5604,19433,19175,4,1,52412,2020-11-02 14:20:50,2020-11-02 14:21:20,2,D7:F2:3B:06:4D:C8,4,4,3721.438311728956,-19893.251183391472,21808.160221497128
3658,2583,-6944,18708,28900,-9450,-5898,-16667,21991,993,4,1,52438,2020-11-02 14:20:50,2020-11-02 14:21:20,2,D7:F2:3B:06:4D:C8,4,4,-2764.7541939790244,19900.85989403821,1091.8785302115275
3659,23577,-28963,-8164,5368,1303,21730,-9490,31207,-14893,4,1,52464,2020-11-02 14:20:50,2020-11-02 14:21:20,2,D7:F2:3B:06:4D:C8,4,4,-15293.902758598808,20694.230074578336,28270.595572625305
3660,-26873,-289,-30696,-13301,28674,32476,-29702,5606,-24889,4,1,52489,2020-11-02 14:20:50,2020-11-02 14:21:20,2,D7:F2:3B:06:4D:C8,4,4,-4649.180590215077,-39524.06000308764,-8984.42356035684
3661,-24580,23265,23567,-25832,2559,-10526,10504,-27674,3004,4,1,52515,2020-11-02 14:20:50,2020-11-02 14:21:20,2,D7:F2:3B:06:4D:C8,4,4,40518.94486545289,-7260.813552945427,-2517.103005391915
3662,-12047,12772,-22268,31259,-13821,18416,11793,28392,5443,4,1,52540,2020-11-02 14:20:50,2020-11-02 14:21:20,2,D7:F2:3B:06:4D:C8,4,4,-7927.821841525655,14933.207704174178,-22765.477493631046
3663,-8978,-25618,-14335,-25578,28946,-23802,8723,-7191,14149,4,-1,52566,2020-11-02 14:20:50,2020-11-02 14:21:20,2,D7:F2:3B:06:4D:C8,4,4,-6624.57590492421,18749.84270794497,-23386.684790863816
3664,5867,20207,-15141,1049,-14073,28184,-17647,25065,-3650,4,-1,52592,2020-11-02 14:20:50,2020-11-02 14:21:20,2,D7:F2:3B:06:4D:C8,4,4,-13020.893180276755,-22141.47642083965,-3493.6773882578273
3665,23292,5604,-25604,-23008,9208,-32222,9231,-7963,-31546,4,-1,52617,2020-11-02 14:20:50,2020-11-02 14:21:20,2,D7:F2:3B:06:4D:C8,4,4,-17817.240738310065,26395.80793399269,14672.9053695876
3666,8974,2523,-14362,6699,19185,31266,20745,-2336,1491,4,-1,52643,2020-11-02 14:20:50,2020-11-02 14:21:20,2,D7:F2:3B:06:4D:C8,4,4,8974.0,-470.98551316711087,14574.318016510642
3667,-25826,18924,-8497,-20199,16382,9506,25067,-16160,-25866,4,-1,52668,2020-11-02 14:20:50,2020-11-02 14:21:20,2,D7:F2:3B:06:4D:C8,4,4,1991.8384269110602,26455.81451444503,-19834.856164297238
3668,13349,-13,6874,-21245,-6143,-5863,-1052,-7452,-7426,4,-1,52694,2020-11-02 14:20:50,2020-11-02 14:21:20,2,D7:F2:3B:06:4D:C8,4,4,760.7335606637275,-1208.8329281117713,14946.834226738203
3669,-13789,6389,20445,-8456,-3588,32015,20193,31719,20226,4,-1,52722,2020-11-02 14:20:50,2020-11-02 14:21:20,2,D7:F2:3B:06:4D:C8,4,4,-13186.816598758243,11183.099193461101,-18708.28766669798
3670,17200,-2825,-23,7404,-30710,27913,9439,18409,3586,4,-1,52745,2020-11-02 14:20:50,2020-11-02 14:21:20,2,D7:F2:3B:06:4D:C8,4,4,-17365.088841087127,-1507.0001814269133,-61.59540835576836
3671,18986,-20747,-2314,-29980,16673,7936,-20768,11498,-28933,4,-1,52770,2020-11-02 14:20:50,2020-11-02 14:21:20,2,D7:F2:3B:06:4D:C8,4,4,-20277.70491981862,2707.5838289635103,-19435.649564496136
3672,21528,20725,-22787,8929,4647,-2313,16100,-13846,-24335,4,-1,52796,2020-11-02 14:20:50,2020-11-02 14:21:20,2,D7:F2:3B:06:4D:C8,4,4,13538.837321635097,-34180.31237985663,7786.777741384432
3673,14882,26857,-12277,10461,775,-14616,4836,24041,32235,4,-1,52822,2020-11-02 14:20:50,2020-11-02 14:21:20,2,D7:F2:3B:06:4D:C8,4,4,25630.078742495603,8036.655744474669,19287.51746851515
3674,-2788,-28704,-6632,738,-12534,29664,26851,27621,-19994,4,-1,52847,2020-11-02 14:20:50,2020-11-02 14:21:20,2,D7:F2:3B:06:4D:C8,4,4,19658.872495780968,-11079.692156254154,-19142.756800347917
3675,25615,10721,23314,29675,11285,32224,-14354,-24350,-2602,4,-1,52873,2020-11-02 14:20:50,2020-11-02 14:21:20,2,D7:F2:3B:06:4D:C8,4,4,-31463.362929323757,16737.84997439203,-6671.718924864895
3676,22029,-11035,-3053,-14602,16664,13284,-25858,-31516,15300,4,-1,52898,2020-11-02 14:20:50,2020-11-02 14:21:20,2,D7:F2:3B:06:4D:C8,4,4,-8723.807960229313,-3823.0237606694463,-22927.02638805121
3677,-5880,-27,27411,14087,11280,-17435,-28922,8168,32187,4,-1,52924,2020-11-02 14:20:50,2020-11-02 14:21:20,2,D7:F2:3B:06:4D:C8,4,4,-24264.15478229268,-10664.957480794905,9134.961665698447
3678,18174,3815,-14584,21013,28168,31978,-7156,10475,28739,4,-1,52950,2020-11-02 14:20:50,2020-11-02 14:21:20,2,D7:F2:3B:06:4D:C8,4,4,-9653.04365583965,-3363.9367828514023,-21284.83578746694
3679,-3347,-15382,16125,-15588,20746,16378,32273,29165,-27582,4,-1,52975,2020-11-02 14:20:50,2020-11-02 14:21:20,2,D7:F2:3B:06:4D:C8,4,4,4332.878654574544,-21997.4541337969,2272.032613373721
3680,11221,6896,23523,17938,9480,31253,13587,25069,27973,4,-1,53001,2020-11-02 14:20:50,2020-11-02 14:21:20,2,D7:F2:3B:06:4D:C8,4,4,-15305.746622658737,19392.409433634588,10791.930442754481
3681,6894,18148,19710,-6124,-2815,18732,-2289,-6679,20160,4,-1,53026,2020-11-02 14:20:50,2020-11-02 14:21:20,2,D7:F2:3B:06:4D:C8,4,4,10170.801119661386,-19781.264608801994,16450.45941792667
3682,14344,-28469,14318,21023,27388,32057,22022,26597,-15665,4,-1,53052,2020-11-02 14:20:50,2020-11-02 14:21:20,2,D7:F2:3B:06:4D:C8,4,4,21962.688581677518,-14881.583501169307,22746.828433036047
3683,-24271,12236,-6679,29724,-16901,-28871,25075,12262,-4376,4,-1,53078,2020-11-02 14:20:50,2020-11-02 14:21:20,2,D7:F2:3B:06:4D:C8,4,4,5649.6985232330135,-13052.667211048807,24106.4091742049
3684,-15549,-9229,-1059,-19176,5865,-32741,-17686,-8984,8951,4,-1,53103,2020-11-02 14:20:50,2020-11-02 14:21:20,2,D7:F2:3B:06:4D:C8,4,4,-13170.417525403407,-3878.068851613667,-11813.890434090314
3685,-19161,31998,-5934,5119,-7941,-16634,-14106,-8984,-26627,4,1,53129,2020-11-02 14:20:50,2020-11-02 14:21:20,2,D7:F2:3B:06:4D:C8,4,4,6282.965829779359,21352.114123392883,-30509.668038892705
3686,-31461,7929,-7449,-4629,-27376,-3581,-3355,1002,-9477,4,1,53154,2020-11-02 14:20:50,2020-11-02 14:21:20,2,D7:F2:3B:06:4D:C8,4,4,-10326.427406375733,30757.575636269714,-7449.0
3687,16928,30710,27893,-22554,28689,-29183,28645,22763,-4105,4,1,53180,2020-11-02 14:20:50,2020-11-02 14:21:20,2,D7:F2:3B:06:4D:C8,4,4,-22611.331681880234,1036.0964049025206,38669.560597603726
3688,-213,-12812,-18688,-284,-31986,-31751,21732,-20757,11252,4,1,53205,2020-11-02 14:20:50,2020-11-02 14:21:20,2,D7:F2:3B:06:4D:C8,4,4,-14051.068521447767,6473.168951411755,-16555.954038715452
3689,-18389,-18967,-5889,-6419,11536,24818,25060,-22294,30447,4,1,53231,2020-11-02 14:20:50,2020-11-02 14:21:20,2,D7:F2:3B:06:4D:C8,4,4,12050.037915449913,-12741.300712261957,-20616.463649130816
3690,-25310,22255,11270,27882,-3817,1260,-28953,-29719,-7449,4,1,53257,2020-11-02 14:20:50,2020-11-02 14:21:20,2,D7:F2:3B:06:4D:C8,4,4,5052.407486673323,-16186.54750580617,31230.80023679969
3691,-483,-26394,-16633,21483,-28656,8415,-21012,-13081,7902,4,1,53282,2020-11-02 14:20:50,2020-11-02 14:21:20,2,D7:F2:3B:06:4D:C8,4,4,-29823.656876015033,-2430.359905110683,-8841.722415533737
3692,-19181,-11294,-21235,27888,29189,-18729,-31499,11237,24785,4,1,53308,2020-11-02 14:20:50,2020-11-02 14:21:20,2,D7:F2:3B:06:4D:C8,4,4,29029.977231441622,7360.100831827935,7034.185076276194
3693,-17930,-7456,16146,20214,7946,15580,-13822,-31771,7617,4,1,53333,2020-11-02 14:20:50,2020-11-02 14:21:20,2,D7:F2:3B:06:4D:C8,4,4,-17681.584871599847,5378.038184169019,17210.706368944637
3694,-6672,-28441,-17178,-6159,-1269,-15886,-22521,-1305,15546,4,1,53359,2020-11-02 14:20:50,2020-11-02 14:21:20,2,D7:F2:3B:06:4D:C8,4,4,-20621.707099707513,-16775.213174191966,21019.685255833137
3695,4346,16873,-28383,12788,8213,31479,13573,-29461,-15431,4,1,53385,2020-11-02 14:20:50,2020-11-02 14:21:20,2,D7:F2:3B:06:4D:C8,4,4,5733.973306695423,-32616.026188944732,3535.0982674002084
3696,19441,31723,30741,27418,16376,-12805,-17145,20204,16197,4,1,53410,2020-11-02 14:20:50,2020-11-02 14:21:20,2,D7:F2:3B:06:4D:C8,4,4,-2958.6754101086117,-28982.48672298342,38478.201545416705
3697,30422,6895,-16406,14881,12021,16137,13837,-14102,-21948,4,1,53436,2020-11-02 14:20:50,2020-11-02 14:21:20,2,D7:F2:3B:06:4D:C8,4,4,26023.43059007618,-8460.846360609548,22212.408338261015
3698,-24340,-4384,-14340,1581,-2326,-24552,26385,6119,698,4,1,53461,2020-11-02 14:20:50,2020-11-02 14:21:20,2,D7:F2:3B:06:4D:C8,4,4,-2471.789554623003,-7986.974148849615,27338.419053472433
3699,26357,-12342,7144,17463,6374,-20444,-25317,-21536,17220,4,1,53487,2020-11-02 14:20:50,2020-11-02 14:21:20,2,D7:F2:3B:06:4D:C8,4,4,23499.312352957815,-6037.314132575531,17589.380489452375
3700,-30945,2749,13278,-3022,18687,-459,-14121,8417,-24573,4,1,53513,2020-11-02 14:20:50,2020-11-02 14:21:20,2,D7:F2:3B:06:4D:C8,4,4,7071.167736270439,-24908.284036739464,21703.25512891184
3701,27728,11253,-3125,-4327,26387,-24537,13282,1769,30974,4,1,53538,2020-11-02 14:20:50,2020-11-02 14:21:20,2,D7:F2:3B:06:4D:C8,4,4,6099.673803833838,-27111.372488014742,11532.782808279217
3702,9513,-29192,-27192,19451,5644,13573,-14620,-13845,-32260,4,1,53564,2020-11-02 14:20:50,2020-11-02 14:21:20,2,D7:F2:3B:06:4D:C8,4,4,1172.4917899133106,-40375.93632674534,-7105.204130860145
3703,31774,-32016,-19230,-10523,6411,8194,18147,-28692,27130,4,-1,53589,2020-11-02 14:20:50,2020-11-02 14:21:20,2,D7:F2:3B:06:4D:C8,4,4,11049.00922823709,-39849.573896439746,-26350.238847997553
3704,21037,29171,-9738,8928,-20208,8446,-18720,-2068,-29193,4,-1,53615,2020-11-02 14:20:50,2020-11-02 14:21:20,2,D7:F2:3B:06:4D:C8,4,4,34978.0230032151,11591.173406919566,5523.935176780752
3705,10541,-22291,-27142,27616,9758,27380,-22304,16876,13809,4,-1,53641,2020-11-02 14:20:50,2020-11-02 14:21:20,2,D7:F2:3B:06:4D:C8,4,4,-26116.094040066302,13239.68643406004,-22076.00193010908
3706,26413,-4892,-13821,23007,20244,-15639,-18719,25578,-26135,4,-1,53666,2020-11-02 14:20:50,2020-11-02 14:21:20,2,D7:F2:3B:06:4D:C8,4,4,16205.854483534169,-23188.866669705436,10594.574886853168
3707,-16858,17374,23826,25316,17931,2011,19938,9446,-24093,4,-1,53692,2020-11-02 14:20:50,2020-11-02 14:21:20,2,D7:F2:3B:06:4D:C8,4,4,33140.50159314889,-6912.57316565124,2765.8276128519265
3708,6410,14043,11000,-14617,-6637,-3624,15342,-2847,20179,4,-1,53717,2020-11-02 14:20:50,2020-11-02 14:21:20,2,D7:F2:3B:06:4D:C8,4,4,-4109.63296626325,16592.219854637624,8191.648562894482
3709,-19975,26849,11024,22502,32288,-18196,-4611,19684,-10306,4,-1,53743,2020-11-02 14:20:50,2020-11-02 14:21:20,2,D7:F2:3B:06:4D:C8,4,4,34117.73872702298,-3442.6786372081233,-8094.805121527464
3710,13825,-9501,1053,25596,-4583,-23818,-9729,-6168,16570,4,-1,53768,2020-11-02 14:20:50,2020-11-02 14:21:20,2,D7:F2:3B:06:4D:C8,4,4,3752.431648132256,2007.1444637064965,16260.3524816625
3711,-10513,30441,-16923,-16376,-13305,6140,23298,5867,11845,4,-1,53794,2020-11-02 14:20:50,2020-11-02 14:21:20,2,D7:F2:3B:06:4D:C8,4,4,36296.085404465186,-718.5035306311329,2375.608551137907
3712,-11022,31727,-30980,-30973,32268,9220,-2303,-9492,8774,4,-1,53820,2020-11-02 14:20:50,2020-11-02 14:21:20,2,D7:F2:3B:06:4D:C8,4,4,-15829.947577259021,34067.14763715737,-26013.258630347606
3713,-13072,30708,-12291,13075,4602,-8693,15362,-15636,-27205,4,-1,53845,2020-11-02 14:20:50,2020-11-02 14:21:20,2,D7:F2:3B:06:4D:C8,4,4,17293.40392915342,-17570.474943520403,-25634.814604405918
3714,29175,25589,-19968,-13031,-13326,-3054,-23550,-1814,24767,4,-1,53871,2020-11-02 14:20:50,2020-11-02 14:21:20,2,D7:F2:3B:06:4D:C8,4,4,-20291.724387573537,-21024.565717460955,32417.774873839175
3715,-7173,485,3071,20270,5345,24850,-30204,-6426,-3901,4,-1,53896,2020-11-02 14:20:50,2020-11-02 14:21:20,2,D7:F2:3B:06:4D:C8,4,4,-4999.966046625179,-2807.280287540834,-5313.916815286068
3716,11519,28372,-1822,-28617,15072,14617,11014,2529,-22838,4,-1,53922,2020-11-02 14:20:50,2020-11-02 14:21:20,2,D7:F2:3B:06:4D:C8,4,4,-9024.070899317376,-18319.42583073429,22889.78397967789
3717,26409,8158,-1087,29987,31492,22573,20199,24545,-3344,4,-1,53947,2020-11-02 14:20:50,2020-11-02 14:21:20,2,D7:F2:3B:06:4D:C8,4,4,-18947.760269864077,-7922.961338505358,18530.48510925469
3718,-955,2047,-811,30455,-12765,21542,9192,-1048,6129,4,-1,53973,2020-11-02 14:20:50,2020-11-02 14:21:20,2,D7:F2:3B:06:4D:C8,4,4,-2020.9021606800252,162.6890288802727,1284.3059358427026
3719,5425,21242,6898,-28954,9759,32009,29160,2542,27884,4,-1,53999,2020-11-02 14:20:50,2020-11-02 14:21:20,2,D7:F2:3B:06:4D:C8,4,4,6020.127180886341,-12367.847340098408,-18412.767687069052
3720,1569,-19468,-10490,746,1803,-5637,2791,14575,5353,4,-1,54024,2020-11-02 14:20:50,2020-11-02 14:21:20,2,D7:F2:3B:06:4D:C8,4,4,-10191.464393943868,-19468.0,2938.6926526900297
3721,-9437,-10767,11523,16363,-22774,-10505,-30747,-14610,-14618,4,-1,54050,2020-11-02 14:20:50,2020-11-02 14:21:20,2,D7:F2:3B:06:4D:C8,4,4,-17128.936374453253,-3535.8255127780567,-5644.6668301255795
3722,-6371,-13848,-17911,-9241,12040,-784,14052,-28947,-21277,4,-1,54075,2020-11-02 14:20:50,2020-11-02 14:21:20,2,D7:F2:3B:06:4D:C8,4,4,9778.687014528037,-20878.197850035296,4651.752444690304
3723,14140,-9000,-251,-5103,8189,12781,-3612,-32277,30433,4,-1,54101,2020-11-02 14:20:50,2020-11-02 14:21:20,2,D7:F2:3B:06:4D:C8,4,4,-7560.828831955381,-6168.385446257786,-13630.388452288047
3724,-15595,-13594,-249,12033,28917,29146,25831,28646,-4641,4,1,54127,2020-11-02 14:20:50,2020-11-02 14:21:20,2,D7:F2:3B:06:4D:C8,4,4,2284.433435866272,8697.187560688268,-18633.388162417097
3725,16868,-1307,21527,2560,-9479,-14104,-16661,-17951,12763,4,1,54152,2020-11-02 14:20:50,2020-11-02 14:21:20,2,D7:F2:3B:06:4D:C8,4,4,-11800.549602713545,-22559.681846106745,10072.595796334677
3726,-20228,-10253,-8938,-31748,9494,-4865,-5902,19170,-24877,4,1,54178,2020-11-02 14:20:50,2020-11-02 14:21:20,2,D7:F2:3B:06:4D:C8,4,4,-3555.519476069773,24098.16712518833,-905.7921736142962
3727,-6659,10989,19204,2051,26124,1534,-11017,8677,-28722,4,1,54203,2020-11-02 14:20:50,2020-11-02 14:21:20,2,D7:F2:3B:06:4D:C8,4,4,-21940.426733324766,3729.0237986965585,6213.378651616415
3728,-29687,-275,-30975,-3579,-28667,10745,-22278,5606,15308,4,1,54229,2020-11-02 14:20:50,2020-11-02 14:21:20,2,D7:F2:3B:06:4D:C8,4,4,16081.310653168846,-25288.550001099018,30703.825584415263
3729,-3836,-786,16638,10763,29953,15350,-2562,21990,-4920,4,1,54254,2020-11-02 14:20:50,2020-11-02 14:21:20,2,D7:F2:3B:06:4D:C8,4,4,6145.565911059379,-786.0,-15930.15880752056
3730,26876,24050,-4364,22033,-29188,-20485,-27645,9702,24774,4,1,54280,2020-11-02 14:20:50,2020-11-02 14:21:20,2,D7:F2:3B:06:4D:C8,4,4,-30469.16514380585,-16280.579935095893,-11240.065142891277
3731,-9226,-6155,-21010,7955,25334,-11003,20486,1509,-30778,4,1,54306,2020-11-02 14:20:50,2020-11-02 14:21:20,2,D7:F2:3B:06:4D:C8,4,4,-11303.324820891463,-6277.528202547437,19931.148703966875
3732,1529,32753,-21771,17688,18164,4115,-31228,-14878,-8757,4,1,54331,2020-11-02 14:20:50,2020-11-02 14:21:20,2,D7:F2:3B:06:4D:C8,4,4,12644.924992327999,36141.231021911655,-9109.916748204092
3733,-4342,750,-20501,-5608,12282,-9185,-3851,-21535,-9506,4,1,54357,2020-11-02 14:20:50,2020-11-02 14:21:20,2,D7:F2:3B:06:4D:C8,4,4,4516.767617167402,-5646.336989186933,19683.09309780979
3734,-8419,-32283,-16915,-19689,28677,-20949,29162,-10011,-22802,4,1,54382,2020-11-02 14:20:50,2020-11-02 14:21:20,2,D7:F2:3B:06:4D:C8,4,4,22713.578603125978,28871.946941951217,7049.319245201736
3735,-30918,-25869,17380,-10488,-32486,-31192,-279,-9492,-5647,4,-1,54408,2020-11-02 14:20:50,2020-11-02 14:21:20,2,D7:F2:3B:06:4D:C8,4,4,-31329.832408792383,-25869.0,-16626.145832302274
3736,8770,23039,24042,15605,13335,528,16106,27122,-32016,4,-1,54434,2020-11-02 14:20:50,2020-11-02 14:21:20,2,D7:F2:3B:06:4D:C8,4,4,26181.585738568087,-22360.32123459669,-516.5147622795848
3737,32563,4088,18429,-17422,-9741,10742,5352,-783,-27920,4,-1,54459,2020-11-02 14:20:50,2020-11-02 14:21:20,2,D7:F2:3B:06:4D:C8,4,4,-24378.405827000606,21971.66453262162,18429.0
3738,31780,-7696,19199,28656,32504,-3859,29669,-13842,16369,4,-1,54485,2020-11-02 14:20:50,2020-11-02 14:21:20,2,D7:F2:3B:06:4D:C8,4,4,-4398.519236202792,-29383.284150533116,23560.009721088474
3739,-20194,8686,-17400,-8722,-26361,-9486,-2333,-28948,-15889,4,-1,54510,2020-11-02 14:20:50,2020-11-02 14:21:20,2,D7:F2:3B:06:4D:C8,4,4,17225.488104452532,16765.93787684528,14428.794775487284
3740,7199,27886,25613,-3088,-25583,20722,11493,-30997,5867,4,-1,54536,2020-11-02 14:20:50,2020-11-02 14:21:20,2,D7:F2:3B:06:4D:C8,4,4,38081.17055754653,-5275.390377917916,-2734.0576672086604
3741,-1506,-15380,-20719,5366,-18170,-15898,31207,32745,1766,4,-1,54562,2020-11-02 14:20:50,2020-11-02 14:21:20,2,D7:F2:3B:06:4D:C8,4,4,-8933.86861164711,-24230.676459169987,1072.2438905640765
3742,27157,-30230,19215,-20997,-1536,-1059,6380,-22299,-13345,4,-1,54587,2020-11-02 14:20:50,2020-11-02 14:21:20,2,D7:F2:3B:06:4D:C8,4,4,-19250.14254300741,36040.40036333268,18737.48456235751
3743,-29180,4070,-12772,-26112,-16378,-21793,-8456,19939,-2863,4,-1,54613,2020-11-02 14:20:50,2020-11-02 14:21:20,2,D7:F2:3B:06:4D:C8,4,4,27430.84246204461,-8548.237033083125,14340.0770377539
3744,21768,28907,-772,-10487,30469,-7448,14854,8420,28869,4,-1,54638,2020-11-02 14:20:50,2020-11-02 14:21:20,2,D7:F2:3B:06:4D:C8,4,4,-1175.297182249025,-35960.23197769319,-3941.6810682613964
3745,-22788,2799,30461,25344,24835,-29973,20493,16870,30142,4,-1,54664,2020-11-02 14:20:50,2020-11-02 14:21:20,2,D7:F2:3B:06:4D:C8,4,4,-11765.638281402338,14851.153263755927,33106.08506857359
3746,24566,-26895,-5882,30974,20223,-16910,-13040,-9241,16314,4,-1,54689,2020-11-02 14:20:50,2020-11-02 14:21:20,2,D7:F2:3B:06:4D:C8,4,4,-1416.3935623569378,-10947.719128478846,35207.507440323745
3747,24051,-11279,17164,-26107,4859,16636,3603,21224,-22972,4,-1,54715,2020-11-02 14:20:50,2020-11-02 14:21:20,2,D7:F2:3B:06:4D:C8,4,4,22516.187281984126,-8814.140513165608,-20386.30852549791
3748,-2581,27117,-4603,28174,16633,20489,6165,23271,11076,4,-1,54741,2020-11-02 14:20:50,2020-11-02 14:21:20,2,D7:F2:3B:06:4D:C8,4,4,-22989.90538325943,-1518.9084763870273,-15242.638436607325
3749,-27149,24551,21244,-24558,5114,2584,-1259,21988,3142,4,-1,54766,2020-11-02 14:20:50,2020-11-02 14:21:20,2,D7:F2:3B:06:4D:C8,4,4,29875.259741429312,24551.0,-17200.13349896253
3750,-771,-5672,4082,32019,21755,12839,32522,12000,8904,4,-1,54792,2020-11-02 14:20:50,2020-11-02 14:21:20,2,D7:F2:3B:06:4D:C8,4,4,1474.4716913837506,6563.218555489542,-2044.2222051884933
3751,-29401,-23085,14315,-20458,-20501,-468,16097,12258,1013,4,-1,54817,2020-11-02 14:20:50,2020-11-02 14:21:20,2,D7:F2:3B:06:4D:C8,4,4,-12268.862212662207,-3409.8429433188503,37948.692231862326
3752,7753,24558,18162,4132,-27680,-17648,24537,6119,17666,4,-1,54843,2020-11-02 14:20:50,2020-11-02 14:21:20,2,D7:F2:3B:06:4D:C8,4,4,21550.76852683917,-741.5323947795223,-22979.92869027428
3753,30506,21232,9198,15912,27881,-1293,19671,28903,26891,4,-1,54868,2020-11-02 14:20:50,2020-11-02 14:21:20,2,D7:F2:3B:06:4D:C8,4,4,-26375.73281713359,3604.9033986749,27519.855629079964
3754,-20971,-4372,-16924,-22238,27396,21494,-18727,-12059,-3826,4,-1,54894,2020-11-02 14:20:50,2020-11-02 14:21:20,2,D7:F2:3B:06:4D:C8,4,4,-7068.944679618916,1939.9321787319545,-26298.01675523095
3755,32556,19963,-17201,19482,4100,-14342,-5153,6629,10765,4,1,54920,2020-11-02 14:20:50,2020-11-02 14:21:20,2,D7:F2:3B:06:4D:C8,4,4,-15114.735994448698,13408.027578190424,-36688.66934464376
3756,-29921,7680,-26943,-1783,3066,2285,31713,-12574,12814,4,1,54945,2020-11-02 14:20:50,2020-11-02 14:21:20,2,D7:F2:3B:06:4D:C8,4,4,10651.5241901005,33575.57088741354,-20961.86923945411
3757,-6895,7166,-26944,30958,1277,-22801,-32036,-10017,15634,4,1,54971,2020-11-02 14:20:50,2020-11-02 14:21:20,2,D7:F2:3B:06:4D:C8,4,4,-24061.89840865921,-14395.29522733659,-6218.70061099454
3758,28179,-7185,12497,16597,21242,31729,28866,24030,16423,4,1,54997,2020-11-02 14:20:50,2020-11-02 14:21:20,2,D7:F2:3B:06:4D:C8,4,4,1907.8878827137978,-28067.980757105488,14505.298860959398
3759,39,-31522,-8978,18123,14839,15082,20788,32736,27450,4,1,55022,2020-11-02 14:20:50,2020-11-02 14:21:20,2,D7:F2:3B:06:4D:C8,4,4,27351.63204195239,-18012.469110539303,1296.7922669072996
3760,-13550,-16170,-7899,17870,-22276,9187,-29400,28644,17470,4,1,55048,2020-11-02 14:20:50,2020-11-02 14:21:20,2,D7:F2:3B:06:4D:C8,4,4,-22486.017347170786,187.37681677415821,1345.1820662163332
3761,30722,-12824,32229,-31264,28409,-9490,4900,-15641,28221,4,1,55073,2020-11-02 14:20:50,2020-11-02 14:21:20,2,D7:F2:3B:06:4D:C8,4,4,17807.023447515785,40236.60438135681,14523.439151860739
3762,15362,17882,-9240,-11315,30468,-13580,-6627,-27927,2109,4,1,55099,2020-11-02 14:20:50,2020-11-02 14:21:20,2,D7:F2:3B:06:4D:C8,4,4,-25207.27552774521,1886.4939339091115,1472.742036359954
3763,27373,-13354,-18679,-5685,28676,-12291,-4590,8427,-32193,4,1,55124,2020-11-02 14:20:50,2020-11-02 14:21:20,2,D7:F2:3B:06:4D:C8,4,4,12542.196115642433,-4678.042245771159,-33125.89203845753
3764,-4615,30440,-6892,-8728,16623,-12032,6159,-24343,-29123,4,1,55150,2020-11-02 14:20:50,2020-11-02 14:21:20,2,D7:F2:3B:06:4D:C8,4,4,-15777.360312374776,25089.443672786827,-10816.0162150192
3765,-4872,4326,13829,25595,-28440,12041,26127,-24858,16699,4,1,55176,2020-11-02 14:20:50,2020-11-02 14:21:20,2,D7:F2:3B:06:4D:C8,4,4,-4392.679685434231,-8756.301259326694,11735.563660816944
3766,-19455,-20521,-12795,-19705,29912,31761,10006,-30751,-30156,4,1,55201,2020-11-02 14:20:50,2020-11-02 14:21:20,2,D7:F2:3B:06:4D:C8,4,4,-7835.17708352646,-27618.28777772194,11796.63813536368
3767,-21483,22472,9484,14869,-28960,-30430,1726,5344,5378,4,1,55227,2020-11-02 14:20:50,2020-11-02 14:21:20,2,D7:F2:3B:06:4D:C8,4,4,-21483.0,22472.0,9484.0
3768,32293,25796,2826,-13788,-6932,24103,12751,-28442,18677,4,1,55252,2020-11-02 14:20:50,2020-11-02 14:21:20,2,D7:F2:3B:06:4D:C8,4,4,6081.447535371295,12572.200740219838,-39002.73715295045
3769,18477,-20781,-32008,-13773,13801,-2024,29141,-32276,29686,4,1,55278,2020-11-02 14:20:50,2020-11-02 14:21:20,2,D7:F2:3B:06:4D:C8,4,4,-30647.658576017915,-25379.654597390283,-14640.891718915269
3770,-3792,-16154,-30260,-13780,15081,-2804,-29223,-3601,5115,4,1,55303,2020-11-02 14:20:50,2020-11-02 14:21:20,2,D7:F2:3B:06:4D:C8,4,4,-3792.0,24434.769607333612,-24074.080465025563
3771,-11478,29175,7125,-4585,-21767,-7420,-29988,3569,-17923,4,1,55329,2020-11-02 14:20:50,2020-11-02 14:21:20,2,D7:F2:3B:06:4D:C8,4,4,11566.841850022853,190.71256785885544,29997.708784722552
3772,16940,23548,26314,-5109,-8962,-23296,22750,17137,-29186,4,1,55355,2020-11-02 14:20:50,2020-11-02 14:21:20,2,D7:F2:3B:06:4D:C8,4,4,18053.79086559452,-34243.39721370325,-5945.492632735886
3773,9508,-23556,-2110,10238,-6141,23535,-10530,-28945,19454,4,1,55380,2020-11-02 14:20:50,2020-11-02 14:21:20,2,D7:F2:3B:06:4D:C8,4,4,-18358.437710078437,17266.401342722773,-3818.173583952317
3774,30952,-21008,2738,27620,-11502,-262,-11299,-16403,-12805,4,1,55406,2020-11-02 14:20:50,2020-11-02 14:21:20,2,D7:F2:3B:06:4D:C8,4,4,4383.070529699587,31316.44144565987,20172.461424234672
3775,-32721,29413,26618,-28964,31027,-13579,10974,27373,7923,4,-1,55431,2020-11-02 14:20:50,2020-11-02 14:21:20,2,D7:F2:3B:06:4D:C8,4,4,1029.6936931959535,-10438.425903052368,-50341.68580376185
3776,12564,-22050,19695,10730,8496,-13334,1252,5100,7910,4,-1,55457,2020-11-02 14:20:50,2020-11-02 14:21:20,2,D7:F2:3B:06:4D:C8,4,4,25342.793385941426,-1341.4243912660713,19695.0
3777,17178,-9764,-17154,24044,-4857,11489,231,-16407,21214,4,-1,55483,2020-11-02 14:20:50,2020-11-02 14:21:20,2,D7:F2:3B:06:4D:C8,4,4,-6987.06336574142,10858.682742953019,22758.494032141243
3778,26392,-18472,2312,-16400,-7675,25051,18922,31973,-23337,4,-1,55508,2020-11-02 14:20:50,2020-11-02 14:21:20,2,D7:F2:3B:06:4D:C8,4,4,-21554.834420464053,-2521.434326912048,23919.22394312674
3779,-15856,-32556,25356,-2057,-7164,15574,-4616,-26142,30150,4,-1,55534,2020-11-02 14:20:50,2020-11-02 14:21:20,2,D7:F2:3B:06:4D:C8,4,4,-22835.483661134505,-37574.62552246465,-4573.927285015236
3780,18680,220,9751,-18431,22784,-22817,18188,-24093,-27074,4,-1,55559,2020-11-02 14:20:50,2020-11-02 14:21:20,2,D7:F2:3B:06:4D:C8,4,4,13947.25233697406,-13710.002725380102,-7847.469561511005
3781,-261,5089,-14049,-26608,8453,-2325,24851,29414,-28360,4,-1,55585,2020-11-02 14:20:50,2020-11-02 14:21:20,2,D7:F2:3B:06:4D:C8,4,4,13954.243613367145,5198.710961082064,1262.1143062050444
3782,-28174,-4895,4377,11806,24832,-10250,-25064,21224,-8650,4,-1,55611,2020-11-02 14:20:50,2020-11-02 14:21:20,2,D7:F2:3B:06:4D:C8,4,4,14474.497013833306,-22751.722732171234,10475.756722783008
3783,-19466,-6692,30229,-29142,-20222,-21250,-12003,-1560,21815,4,-1,55636,2020-11-02 14:20:50,2020-11-02 14:21:20,2,D7:F2:3B:06:4D:C8,4,4,14999.208131108568,-32716.10141416308,-6494.684341666105
3784,28660,-31020,-12287,28214,9981,29701,12069,27624,-26313,4,-1,55662,2020-11-02 14:20:50,2020-11-02 14:21:20,2,D7:F2:3B:06:4D:C8,4,4,-17403.617320836813,-16691.528822527063,36784.68891694772
3785,32503,25041,-17682,-1736,-6151,-12787,-11984,4839,18484,4,-1,55687,2020-11-02 14:20:50,2020-11-02 14:21:20,2,D7:F2:3B:06:4D:C8,4,4,-28438.19689687188,30820.565524667654,-15411.408501315324
3786,31231,19923,21221,11828,7425,-20203,-27329,-24091,25389,4,-1,55713,2020-11-02 14:20:50,2020-11-02 14:21:20,2,D7:F2:3B:06:4D:C8,4,4,-9263.357218522615,33767.81329912832,-24424.519013427016
3787,-20726,-10014,9160,-22747,8713,-26601,-25405,14821,-8158,4,-1,55738,2020-11-02 14:20:50,2020-11-02 14:21:20,2,D7:F2:3B:06:4D:C8,4,4,-2330.189892832358,2913.301551970035,24491.54468649601
3788,27904,10729,31201,15344,20767,3363,-21552,7910,-12267,4,1,55764,2020-11-02 14:20:50,2020-11-02 14:21:20,2,D7:F2:3B:06:4D:C8,4,4,-581.9060332553308,13671.660976839685,-40987.73145104301
3789,-23799,28128,24566,20219,19711,23058,-28971,3561,29454,4,1,55790,2020-11-02 14:20:50,2020-11-02 14:21:20,2,D7:F2:3B:06:4D:C8,4,4,-21689.07903993729,18402.525522722673,33941.067245814374
3790,-20725,-25638,-14871,24576,28662,15127,10709,29676,-6386,4,1,55815,2020-11-02 14:20:50,2020-11-02 14:21:20,2,D7:F2:3B:06:4D:C8,4,4,11037.507527533007,-19667.689210973484,-28272.508531791256
3791,-13792,-12581,-16652,27140,-9218,-20712,-4907,31984,7694,4,1,55841,2020-11-02 14:20:50,2020-11-02 14:21:20,2,D7:F2:3B:06:4D:C8,4,4,17100.28958654076,3347.0105517706343,-17949.02630848765
3792,-15580,-23833,25314,2825,9742,-11247,-32040,16883,-4853,4,1,55866,2020-11-02 14:20:50,2020-11-02 14:21:20,2,D7:F2:3B:06:4D:C8,4,4,-7768.230648246748,-31034.72995496776,20689.297093373345
3793,-986,-2317,5085,-27656,-31965,9,-5158,-30988,-14074,4,1,55892,2020-11-02 14:20:50,2020-11-02 14:21:20,2,D7:F2:3B:06:4D:C8,4,4,-4019.635696257068,-3215.317954799907,2387.92154789836
3794,-17384,29677,761,-32022,-23769,-26113,-29989,28148,-1537,4,1,55917,2020-11-02 14:20:50,2020-11-02 14:21:20,2,D7:F2:3B:06:4D:C8,4,4,-10337.510077592055,7688.501304973518,-31898.741967029095
3795,15374,29936,17927,-790,23582,12796,20955,-16141,506,4,1,55943,2020-11-02 14:20:50,2020-11-02 14:21:20,2,D7:F2:3B:06:4D:C8,4,4,5898.61212097211,-32166.27376272017,19607.103515513467
3796,2327,-21780,15625,32755,-6124,6389,22235,18930,-31243,4,1,55969,2020-11-02 14:20:50,2020-11-02 14:21:20,2,D7:F2:3B:06:4D:C8,4,4,-19957.661199754883,772.576223781065,18028.278881086975
3797,-31224,-25107,29180,6893,-26604,-1035,17371,23536,-15119,4,1,55994,2020-11-02 14:20:50,2020-11-02 14:21:20,2,D7:F2:3B:06:4D:C8,4,4,149.71247684522496,-49505.90704458609,-2432.0318392401678
3798,-27359,-4878,-12047,-13856,26400,-15370,-20518,-10258,-16916,4,1,56020,2020-11-02 14:20:50,2020-11-02 14:21:20,2,D7:F2:3B:06:4D:C8,4,4,13414.231043542775,21791.383023985993,-16205.986715173764
3799,-14066,18655,-30473,25057,-30931,-14107,-18212,21739,17379,4,-1,56045,2020-11-02 14:20:50,2020-11-02 14:21:20,2,D7:F2:3B:06:4D:C8,4,4,-14419.679543549273,25054.296278274298,-25274.89247972773
3800,-22010,20958,10505,1514,-22004,-1566,-28449,31719,8411,4,-1,56071,2020-11-02 14:20:50,2020-11-02 14:21:20,2,D7:F2:3B:06:4D:C8,4,4,10183.756965485427,-24208.553386537296,-18554.512281358962
3801,22018,-286,-26612,11766,3592,27108,-8223,27875,22486,4,-1,56097,2020-11-02 14:20:50,2020-11-02 14:21:20,2,D7:F2:3B:06:4D:C8,4,4,6837.342031476543,21801.04053183213,25904.402129252412
3802,-16632,-29470,25628,-20476,12811,-27417,8432,17633,19143,4,-1,56122,2020-11-02 14:20:50,2020-11-02 14:21:20,2,D7:F2:3B:06:4D:C8,4,4,-9480.500475940575,39218.29285524071,13188.795405429046
3803,-3,21472,21524,-26602,-1794,8171,-28924,-4640,-22975,4,-1,56148,2020-11-02 14:20:50,2020-11-02 14:21:20,2,D7:F2:3B:06:4D:C8,4,4,11012.749789676323,9507.650533394897,26695.56690547739
3804,24066,-8225,-22513,11552,-28415,-9742,-19439,6882,-24520,4,-1,56173,2020-11-02 14:20:50,2020-11-02 14:21:20,2,D7:F2:3B:06:4D:C8,4,4,-25154.43803419104,21527.461570979904,-7581.60903067592
3805,-13593,-28196,28664,1063,29950,15099,5658,13795,-12491,4,-1,56199,2020-11-02 14:20:50,2020-11-02 14:21:20,2,D7:F2:3B:06:4D:C8,4,4,-38839.05474033061,-17109.952330294396,431.64700005420127
3806,-15877,4574,-25345,21291,2562,-27901,-14050,-6686,24887,4,-1,56224,2020-11-02 14:20:50,2020-11-02 14:21:20,2,D7:F2:3B:06:4D:C8,4,4,-9761.110769867657,26868.41172326705,-9908.521484428404
3807,30962,-10277,14832,-208,23293,20488,-26842,-15135,-15306,4,-1,56250,2020-11-02 14:20:50,2020-11-02 14:21:20,2,D7:F2:3B:06:4D:C8,4,4,-5348.239655325633,-854.8459500364747,35424.79312559085
3808,244,-23078,-2338,-25301,2051,-13035,-11210,-25889,-25299,4,-1,56276,2020-11-02 14:20:50,2020-11-02 14:21:20,2,D7:F2:3B:06:4D:C8,4,4,2048.2815707405275,19714.58262906378,-12052.370653476488
3809,-16623,-15130,-13100,-6377,1040,-8161,28889,11232,9987,4,-1,56301,2020-11-02 14:20:50,2020-11-02 14:21:20,2,D7:F2:3B:06:4D:C8,4,4,14236.036970344498,-9021.810127417704,19819.011640437777
3810,29212,15600,-25128,11525,12549,12567,-26400,-31004,-23811,4,-1,56327,2020-11-02 14:20:50,2020-11-02 14:21:20,2,D7:F2:3B:06:4D:C8,4,4,-29786.345563238887,20993.53163365671,-20004.063975451932
3811,27667,21742,-8224,-9733,-22277,14351,28894,9959,-19457,4,1,56352,2020-11-02 14:20:50,2020-11-02 14:21:20,2,D7:F2:3B:06:4D:C8,4,4,4270.067316846212,2344.8682092331055,-35806.14119380822
3812,5909,4077,-17434,-28424,24322,-13809,29404,32233,-17408,4,1,56378,2020-11-02 14:20:50,2020-11-02 14:21:20,2,D7:F2:3B:06:4D:C8,4,4,-12261.613706357513,13970.849371858974,3154.483023395941
3813,-16863,-23313,-1563,24309,11793,-18159,12253,8684,-3,4,1,56404,2020-11-02 14:20:50,2020-11-02 14:21:20,2,D7:F2:3B:06:4D:C8,4,4,-26401.67486050092,11122.863078552073,3087.586192509766
3814,29741,-8463,-13849,-13843,22039,24330,14046,21998,23801,4,1,56429,2020-11-02 14:20:50,2020-11-02 14:21:20,2,D7:F2:3B:06:4D:C8,4,4,31619.34949621444,11955.89095877046,-2284.21973948087
3815,-18134,-7955,-12816,11240,26896,-2051,-26915,-13842,20725,4,1,56455,2020-11-02 14:20:50,2020-11-02 14:21:20,2,D7:F2:3B:06:4D:C8,4,4,-7451.895882588718,-13987.281948474109,-17469.94643520545
3816,-31722,-4378,4127,-17434,-20983,5878,28635,-27923,-9742,4,1,56480,2020-11-02 14:20:50,2020-11-02 14:21:20,2,D7:F2:3B:06:4D:C8,4,4,16491.04706768958,-14606.197050381246,23604.84423453544
3817,30231,-27674,32029,24817,11785,11763,21722,-20757,-13072,4,1,56506,2020-11-02 14:20:50,2020-11-02 14:21:20,2,D7:F2:3B:06:4D:C8,4,4,31165.260823621808,13123.665448987766,39523.618267798665
3818,14363,17384,-10486,-4624,-14830,18415,219,17129,-26643,4,1,56532,2020-11-02 14:20:50,2020-11-02 14:21:20,2,D7:F2:3B:06:4D:C8,4,4,-3016.928305612705,-23102.468452450612,-8696.52321346393
3819,-24306,-16922,12555,-7696,18450,22768,-26658,-20506,-5914,4,1,56557,2020-11-02 14:20:50,2020-11-02 14:21:20,2,D7:F2:3B:06:4D:C8,4,4,15915.46703186912,-21900.89060291623,17372.755825043492
3820,-27375,4074,6921,-24585,-9983,19689,-32032,740,-798,4,1,56583,2020-11-02 14:20:50,2020-11-02 14:21:20,2,D7:F2:3B:06:4D:C8,4,4,-27375.0,-5481.075161366398,5869.883480568615
3821,19209,19437,-28164,-2315,-7931,-7191,-30492,-16160,31197,4,1,56608,2020-11-02 14:20:50,2020-11-02 14:21:20,2,D7:F2:3B:06:4D:C8,4,4,26170.47235306182,26176.150125841952,13034.918005381207
3822,-27896,30705,-6405,-25611,17163,32746,-30214,-32545,-25147,4,1,56634,2020-11-02 14:20:50,2020-11-02 14:21:20,2,D7:F2:3B:06:4D:C8,4,4,-23383.942678959866,4352.935904047194,34586.862242799296
3823,5382,-5390,23036,15352,13833,-12567,-12533,-24607,24383,4,1,56659,2020-11-02 14:20:50,2020-11-02 14:21:20,2,D7:F2:3B:06:4D:C8,4,4,22167.104916706638,-9811.901246975529,-1010.630264399656
3824,27140,8179,-28663,-774,11275,-1555,-27633,-7452,28218,4,1,56685,2020-11-02 14:20:50,2020-11-02 14:21:20,2,D7:F2:3B:06:4D:C8,4,4,16495.30383501325,-5909.0175769849975,36304.70593002345
3825,-7938,-5904,1559,-24055,20224,-1296,-25838,14055,-31689,4,1,56711,2020-11-02 14:20:50,2020-11-02 14:21:20,2,D7:F2:3B:06:4D:C8,4,4,-3047.4918591515134,-856.8539820986828,9501.480706803906
3826,27641,-789,32015,32023,-28679,6133,26392,19176,10292,4,1,56736,2020-11-02 14:20:50,2020-11-02 14:21:20,2,D7:F2:3B:06:4D:C8,4,4,-37157.09014568563,-12070.754580367859,16225.139838100626
3827,32760,30182,7183,27170,-8708,-31232,-23266,30440,9778,4,1,56762,2020-11-02 14:20:50,2020-11-02 14:21:20,2,D7:F2:3B:06:4D:C8,4,4,16794.04208992536,-20419.466718100863,36561.88920488364
3828,-519,-28954,-8,20518,-29694,10247,-12765,-21785,-12238,4,1,56787,2020-11-02 14:20:50,2020-11-02 14:21:20,2,D7:F2:3B:06:4D:C8,4,4,12282.135102886477,-2099.5648753233404,-26140.859313510566
3829,-15368,16104,2029,23589,32003,-14578,14633,-17435,14387,4,1,56815,2020-11-02 14:20:50,2020-11-02 14:21:20,2,D7:F2:3B:06:4D:C8,4,4,2250.4188434233356,15620.191000642752,-15829.60293666914
3830,-2056,-31776,-3095,17701,-29694,23835,16435,-32542,-20690,4,1,56839,2020-11-02 14:20:50,2020-11-02 14:21:20,2,D7:F2:3B:06:4D:C8,4,4,29047.633339520205,-12059.238028722802,-5859.190433788613
3831,21777,-23078,22238,-731,-12277,-6364,28358,-25888,24340,4,1,56864,2020-11-02 14:20:50,2020-11-02 14:21:20,2,D7:F2:3B:06:4D:C8,4,4,32007.950890388212,-11766.142931598324,-18395.90762402593
3832,-15308,7913,15319,2838,-27623,-1501,-7714,10469,-9985,4,1,56890,2020-11-02 14:20:50,2020-11-02 14:21:20,2,D7:F2:3B:06:4D:C8,4,4,10711.572012652314,15088.643938286476,13755.625871670634
3833,2103,-29451,11485,-3071,-14836,17166,1508,15593,-25349,4,1,56915,2020-11-02 14:20:50,2020-11-02 14:21:20,2,D7:F2:3B:06:4D:C8,4,4,16034.446975143523,26491.6385100649,-6691.698906358339
3834,-222,-16656,-29708,-22791,6662,-513,9700,-1303,-29958,4,-1,56941,2020-11-02 14:20:50,2020-11-02 14:21:20,2,D7:F2:3B:06:4D:C8,4,4,-15404.941337460383,4325.471193409816,-30066.84162569102
3835,26648,13041,-4354,19445,-31724,-1527,11237,30187,30711,4,-1,56966,2020-11-02 14:20:50,2020-11-02 14:21:20,2,D7:F2:3B:06:4D:C8,4,4,10069.100300374448,3716.894216658704,27998.9074344548
3836,-31451,30716,8423,18414,-10741,31238,13285,30701,-16396,4,-1,56992,2020-11-02 14:20:50,2020-11-02 14:21:20,2,D7:F2:3B:06:4D:C8,4,4,-5127.868596004468,37915.99347241514,-23230.742318356595
3837,-24529,25840,-11524,29149,-3327,5367,-31519,14573,-23309,4,-1,57018,2020-11-02 14:20:50,2020-11-02 14:21:20,2,D7:F2:3B:06:4D:C8,4,4,-33366.981806049866,10512.977804397253,13352.971198912552
3838,-5621,25570,17433,14306,16899,-24848,16861,6379,-17678,4,-1,57043,2020-11-02 14:20:50,2020-11-02 14:21:20,2,D7:F2:3B:06:4D:C8,4,4,-14057.504505553148,24756.613395958775,13372.609701901401
3839,-11520,-14879,-16077,-32536,2568,15087,-6694,-15640,-13328,4,-1,57069,2020-11-02 14:20:50,2020-11-02 14:21:20,2,D7:F2:3B:06:4D:C8,4,4,-20155.5559998479,7785.934050946294,-12070.532850347176
3840,25858,20968,28193,-24579,-10236,-18202,-17957,-11291,24558,4,-1,57094,2020-11-02 14:20:50,2020-11-02 14:21:20,2,D7:F2:3B:06:4D:C8,4,4,-38810.07025760881,-19264.307537968725,5079.698680239762
3841,20249,7150,17683,-9479,-17917,10217,-25380,-26398,-12308,4,-1,57120,2020-11-02 14:20:50,2020-11-02 14:21:20,2,D7:F2:3B:06:4D:C8,4,4,-8974.372711335975,23779.386338772478,-11306.388008087682
3842,31484,10213,20510,-3832,-32010,8162,-12586,23774,-3854,4,-1,57145,2020-11-02 14:20:50,2020-11-02 14:21:20,2,D7:F2:3B:06:4D:C8,4,4,-7091.713191594499,14399.582582538766,35476.29279472153
3843,4356,18919,12559,22,-23298,4586,28719,16095,-18903,4,-1,57171,2020-11-02 14:20:50,2020-11-02 14:21:20,2,D7:F2:3B:06:4D:C8,4,4,17375.77537141835,-15108.867333010656,2106.261179316314
3844,15867,30439,2815,23062,-17910,11253,16679,225,-30411,4,-1,57197,2020-11-02 14:20:50,2020-11-02 14:21:20,2,D7:F2:3B:06:4D:C8,4,4,19102.183260566097,10895.99379769503,26506.65103026672
3845,18678,-2840,-29447,5907,27917,11265,31520,21473,-26817,4,-1,57222,2020-11-02 14:20:50,2020-11-02 14:21:20,2,D7:F2:3B:06:4D:C8,4,4,34585.716111943744,4388.457831808151,2937.477128843102
3846,-14095,12009,-2829,26391,13573,-17654,8474,-29984,-20036,4,-1,57248,2020-11-02 14:20:50,2020-11-02 14:21:20,2,D7:F2:3B:06:4D:C8,4,4,-2932.3080556737586,-9376.656061050136,15948.925906762579
3847,7920,19687,31718,14878,-17161,-19438,-19684,-1315,28094,4,-1,57273,2020-11-02 14:20:50,2020-11-02 14:21:20,2,D7:F2:3B:06:4D:C8,4,4,-16539.443117817093,3819.888946615406,-34178.811605847535
3848,-7934,-21279,-26921,16154,-9987,-22499,-24873,-4897,-5369,4,-1,57299,2020-11-02 14:20:50,2020-11-02 14:21:20,2,D7:F2:3B:06:4D:C8,4,4,-7934.0,34282.76258454153,1492.7396196118916
3849,4388,30955,3795,21515,20233,-11233,7646,229,-5629,4,-1,57325,2020-11-02 14:20:50,2020-11-02 14:21:20,2,D7:F2:3B:06:4D:C8,4,4,4388.0,13531.675490802298,28098.181585498027
3850,-23255,25077,-6957,7418,-8439,-10991,-8737,-19224,1026,4,-1,57350,2020-11-02 14:20:50,2020-11-02 14:21:20,2,D7:F2:3B:06:4D:C8,4,4,26530.582557879916,7695.047282946804,21329.914192343364
3851,-29671,23535,-2582,-1300,522,22284,5599,-10518,7936,4,-1,57376,2020-11-02 14:20:50,2020-11-02 14:21:20,2,D7:F2:3B:06:4D:C8,4,4,-27291.87025582676,1054.3783589166287,-26362.346143986633
3852,8220,5102,-6,27625,-20213,-16628,-28963,-8212,-14595,4,-1,57401,2020-11-02 14:20:50,2020-11-02 14:21:20,2,D7:F2:3B:06:4D:C8,4,4,1185.5943259890817,-900.9804066067528,9559.364016559533
3853,-20445,-24339,-26111,19946,32012,22792,9948,27630,2811,4,-1,57427,2020-11-02 14:20:50,2020-11-02 14:21:20,2,D7:F2:3B:06:4D:C8,4,4,39540.32808456941,8821.231061794333,7135.657259078993
3854,3878,19948,32514,5100,26379,-9473,-10790,-16146,29176,4,-1,57453,2020-11-02 14:20:50,2020-11-02 14:21:20,2,D7:F2:3B:06:4D:C8,4,4,35911.59882697207,13047.329993280291,3200.942632579742
3855,29468,4326,5910,-5393,-19447,-27144,-32039,-18963,26614,4,-1,57478,2020-11-02 14:20:50,2020-11-02 14:21:20,2,D7:F2:3B:06:4D:C8,4,4,16245.803916328096,25602.613193095844,-1607.9343260634157
3856,22299,23018,-30455,6392,-24312,-12296,12249,21996,-13580,4,1,57504,2020-11-02 14:20:50,2020-11-02 14:21:20,2,D7:F2:3B:06:4D:C8,4,4,23684.162582654746,8223.450335437945,-36414.50339272749
3857,28684,31986,-24572,2811,30989,-28425,-16166,-4374,-10767,4,1,57529,2020-11-02 14:20:50,2020-11-02 14:21:20,2,D7:F2:3B:06:4D:C8,4,4,-14503.88377273855,-43400.761886984816,-18859.227426809874
3858,-21233,-9231,-4609,-3081,-32246,30707,27100,14057,-32018,4,1,57555,2020-11-02 14:20:50,2020-11-02 14:21:20,2,D7:F2:3B:06:4D:C8,4,4,2644.3305701030595,17913.541520965784,15146.190181450029
3859,-12023,-26894,17404,22520,-508,-28687,-10532,5863,-19732,4,1,57580,2020-11-02 14:20:50,2020-11-02 14:21:20,2,D7:F2:3B:06:4D:C8,4,4,-20238.731125483668,-3000.185067389817,27425.018377237055
3860,19722,-21515,-25863,-16141,-28407,-31757,-17955,9957,1514,4,1,57606,2020-11-02 14:20:50,2020-11-02 14:21:20,2,D7:F2:3B:06:4D:C8,4,4,34755.88487668665,17649.90179590624,-1121.031236571931
3861,-21498,20212,8190,24563,29705,-27662,-10784,23523,-23836,4,1,57632,2020-11-02 14:20:50,2020-11-02 14:21:20,2,D7:F2:3B:06:4D:C8,4,4,-28889.78262302538,6198.518392748339,-8045.115147038057
3862,11011,5620,8195,-20490,-31484,-28684,-21276,-9759,-4386,4,1,57657,2020-11-02 14:20:50,2020-11-02 14:21:20,2,D7:F2:3B:06:4D:C8,4,4,13443.479084785833,-4407.279364843891,4453.459856914296
3863,-3327,-18700,10246,-12036,-29442,25848,4583,-21280,-27685,4,1,57683,2020-11-02 14:20:50,2020-11-02 14:21:20,2,D7:F2:3B:06:4D:C8,4,4,12944.410886281017,13621.547364307915,-10612.969386983343
3864,12035,27383,-20478,28672,14589,-20738,10213,-801,25053,4,1,57708,2020-11-02 14:20:50,2020-11-02 14:21:20,2,D7:F2:3B:06:4D:C8,4,4,16371.316428755053,-30042.19289676701,11977.689357426863
3865,-7417,27128,31486,32260,-19715,-5374,-23070,8416,24288,4,1,57734,2020-11-02 14:20:50,2020-11-02 14:21:20,2,D7:F2:3B:06:4D:C8,4,4,-28806.28849705809,30230.627008663112,6214.129278293694
3866,-24051,32503,-2307,-26107,-1539,-10236,-25376,-17696,16611,4,1,57759,2020-11-02 14:20:50,2020-11-02 14:21:20,2,D7:F2:3B:06:4D:C8,4,4,9355.337150352956,26415.318558132683,-29239.12569273569
3867,-3313,-23562,-16640,31749,-22787,-7931,-12578,-29983,-3099,4,1,57785,2020-11-02 14:20:50,2020-11-02 14:21:20,2,D7:F2:3B:06:4D:C8,4,4,26245.29820882707,-5325.457419655573,11218.611242091147
3868,-26091,6393,17665,-17916,-1790,18439,26335,-25118,8422,4,1,57811,2020-11-02 14:20:50,2020-11-02 14:21:20,2,D7:F2:3B:06:4D:C8,4,4,-5218.632666463964,8881.77672039131,30455.588491796218
3869,10256,29946,28158,-20735,-15863,24584,-19230,-541,14563,4,1,57838,2020-11-02 14:20:50,2020-11-02 14:21:20,2,D7:F2:3B:06:4D:C8,4,4,19076.080009251535,20009.349870356782,-32102.188480636127
3870,19487,16889,-2804,-29952,-22522,20233,-22811,-7195,2528,4,1,57862,2020-11-02 14:20:50,2020-11-02 14:21:20,2,D7:F2:3B:06:4D:C8,4,4,10198.540538781544,-17115.68377768479,16609.847853039686
3871,11309,28410,32520,-23286,-27396,27130,-11290,-3867,-33,4,1,57887,2020-11-02 14:20:50,2020-11-02 14:21:20,2,D7:F2:3B:06:4D:C8,4,4,11309.0,42714.624935666645,-6335.5596915604365
3872,-27873,-13064,1282,-30706,23030,16878,7913,-27421,-17185,4,1,57913,2020-11-02 14:20:50,2020-11-02 14:21:20,2,D7:F2:3B:06:4D:C8,4,4,-11736.996774332065,-6091.950284209794,27827.087477025598
3873,-24038,21243,17406,-25845,-19975,-5910,10735,24032,-25637,4,-1,57939,2020-11-02 14:20:50,2020-11-02 14:21:20,2,D7:F2:3B:06:4D:C8,4,4,5622.8557950312825,-1662.0512826111553,-36023.331428981604
3874,32011,-14345,-505,2824,-25093,-5906,11015,-8482,-11324,4,-1,57964,2020-11-02 14:20:50,2020-11-02 14:21:20,2,D7:F2:3B:06:4D:C8,4,4,8792.574938168185,-27252.133227359504,20266.968977006527
3875,-23033,-2832,25364,4365,24060,-9741,-11495,-6177,17472,4,-1,57990,2020-11-02 14:20:50,2020-11-02 14:21:20,2,D7:F2:3B:06:4D:C8,4,4,2251.4642119862583,-24807.93996639979,-23693.22334604663
3876,-26363,2023,13073,-13801,18170,-19471,5410,-24863,-7878,4,-1,58015,2020-11-02 14:20:50,2020-11-02 14:21:20,2,D7:F2:3B:06:4D:C8,4,4,16358.366387173914,-21732.445977251242,11406.501128252912
3877,22512,-24351,-26367,-17379,-4365,28655,-2263,9956,6455,4,-1,58041,2020-11-02 14:20:50,2020-11-02 14:21:20,2,D7:F2:3B:06:4D:C8,4,4,15074.788532326078,-21591.621433464446,-33189.345708820605
3878,-27173,-21796,-14322,-23516,3574,-8701,3122,-10267,-25037,4,-1,58067,2020-11-02 14:20:50,2020-11-02 14:21:20,2,D7:F2:3B:06:4D:C8,4,4,18214.40685141799,12256.359870395894,-30603.50069482847
3879,-24620,-20775,-22302,-14054,-29172,11043,-31938,996,-9685,4,-1,58092,2020-11-02 14:20:50,2020-11-02 14:21:20,2,D7:F2:3B:06:4D:C8,4,4,-265.461320254999,29087.836750705435,-26247.885866327575
3880,10539,10205,32723,32767,-10188,24380,-29992,31715,-4859,4,-1,58118,2020-11-02 14:20:50,2020-11-02 14:21:20,2,D7:F2:3B:06:4D:C8,4,4,-15295.34811033208,-28484.106437149654,15515.001826003449
3881,-5326,25834,-22574,-21275,32557,-16094,-26653,32747,-24330,4,-1,58169,2020-11-02 14:20:50,2020-11-02 14:21:20,2,D7:F2:3B:06:4D:C8,4,4,22340.98439547607,-26169.524829481365,4624.25068959861
3882,-32230,-31776,-8215,26078,-15077,-11249,-32286,3056,4849,4,-1,58171,2020-11-02 14:20:50,2020-11-02 14:21:20,2,D7:F2:3B:06:4D:C8,4,4,-32230.0,-1136.086688921795,-32801.06260527629
3883,8246,-22047,-510,16095,-29139,16651,-21280,22003,19947,4,-1,58194,2020-11-02 14:20:50,2020-11-02 14:21:20,2,D7:F2:3B:06:4D:C8,4,4,4506.5950942771615,-22616.700814756823,-4743.655753953368
3884,-12253,-808,-18948,2789,-26832,16373,-11296,7412,20962,4,-1,58220,2020-11-02 14:20:50,2020-11-02 14:21:20,2,D7:F2:3B:06:4D:C8,4,4,16827.79827251317,14147.599606593118,5146.475266736356
3885,-18405,-3116,21510,-7963,-24286,-4117,-26400,-25870,-294,4,-1,58246,2020-11-02 14:20:50,2020-11-02 14:21:20,2,D7:F2:3B:06:4D:C8,4,4,-394.92615311351256,-14242.068151462521,24660.517210770013
3886,23,-23853,9737,-7445,14363,31455,25057,23535,4052,4,1,58271,2020-11-02 14:20:50,2020-11-02 14:21:20,2,D7:F2:3B:06:4D:C8,4,4,-8860.149332812356,22960.347185273033,-7622.041585558914
3887,-17390,2761,29969,-10509,25357,-6443,-8989,-31766,-28211,4,1,58297,2020-11-02 14:20:50,2020-11-02 14:21:20,2,D7:F2:3B:06:4D:C8,4,4,-25682.736018667685,-11126.950027199691,20609.80921036462
3888,-16115,21702,28958,24574,-2299,-14379,8170,16101,30917,4,1,58322,2020-11-02 14:20:50,2020-11-02 14:21:20,2,D7:F2:3B:06:4D:C8,4,4,-1474.1940015278378,-39582.41985675055,542.7553129899388
3889,-516,14280,-26858,-32755,-4091,-17444,-20741,-5150,-6592,4,1,58348,2020-11-02 14:20:50,2020-11-02 14:21:20,2,D7:F2:3B:06:4D:C8,4,4,-15364.093750447802,-9251.959273103823,24574.02475859986
3890,-28157,2511,-2282,-16101,-7421,-17948,-20981,-24348,-32717,4,1,58374,2020-11-02 14:20:50,2020-11-02 14:21:20,2,D7:F2:3B:06:4D:C8,4,4,8322.18916135005,18234.514337376302,20064.22060391895
3891,1270,-13866,30976,-10720,-25597,-11796,25109,9703,13870,4,1,58399,2020-11-02 14:20:50,2020-11-02 14:21:20,2,D7:F2:3B:06:4D:C8,4,4,-26427.88347884528,-20366.200949914368,-6338.475029238802
3892,-23569,30173,7938,16160,-13302,30459,-27367,-280,-1234,4,1,58425,2020-11-02 14:20:50,2020-11-02 14:21:20,2,D7:F2:3B:06:4D:C8,4,4,-23569.0,-25729.887180072095,17646.378628510767
3893,27371,-5155,-3851,8995,-8952,-2296,-7909,-2328,22066,4,1,58450,2020-11-02 14:20:50,2020-11-02 14:21:20,2,D7:F2:3B:06:4D:C8,4,4,-26246.72888026242,9828.056044651112,2257.0787467865002
3894,-3335,6882,-16405,-19424,5895,5397,-8931,-24346,-1995,4,1,58476,2020-11-02 14:20:50,2020-11-02 14:21:20,2,D7:F2:3B:06:4D:C8,4,4,-8910.783782214281,-10085.971036789004,12102.863075804846
3895,22271,10207,-28437,14372,2301,-10729,-31200,1763,-20424,4,1,58502,2020-11-02 14:20:50,2020-11-02 14:21:20,2,D7:F2:3B:06:4D:C8,4,4,-17791.340933213185,-33005.28419529741,1721.2385034688896
3896,14328,19941,-17979,-19167,-2322,17944,24374,8160,17448,4,1,58527,2020-11-02 14:20:50,2020-11-02 14:21:20,2,D7:F2:3B:06:4D:C8,4,4,-1122.416945371736,27070.15971048912,-13860.957378527422
3897,-30963,-24092,7391,-26854,21236,26648,-13628,31970,7441,4,1,58553,2020-11-02 14:20:50,2020-11-02 14:21:20,2,D7:F2:3B:06:4D:C8,4,4,-28593.662519544683,-13537.440822265497,-24349.51485557865
3898,-499,-26910,-6702,12565,-5130,-17131,13261,4326,10764,4,1,58578,2020-11-02 14:20:50,2020-11-02 14:21:20,2,D7:F2:3B:06:4D:C8,4,4,-14820.851125845164,8923.34991198391,-21680.177657340148
3899,-22251,18921,3283,-12794,16895,-22759,-29999,-13591,25865,4,1,58604,2020-11-02 14:20:50,2020-11-02 14:21:20,2,D7:F2:3B:06:4D:C8,4,4,6964.220493660984,4668.469992891354,-28170.80673039282
3900,18717,12268,14558,-31239,-247,-5099,11476,-13588,-24315,4,1,58629,2020-11-02 14:20:50,2020-11-02 14:21:20,2,D7:F2:3B:06:4D:C8,4,4,22002.583575842782,2587.390319567503,14898.221515411222
3901,-27367,16875,32235,-8205,-16627,28434,25557,-5650,-25855,4,-1,58655,2020-11-02 14:20:50,2020-11-02 14:21:20,2,D7:F2:3B:06:4D:C8,4,4,7773.378383148924,-29447.5519643046,-33841.24422685982
3902,10523,27375,-29202,-6157,11531,14351,-14891,-19216,9470,4,-1,58680,2020-11-02 14:20:50,2020-11-02 14:21:20,2,D7:F2:3B:06:4D:C8,4,4,27272.555534762276,-27755.311761036504,14097.210420894497
3903,-29417,25584,21744,12529,-9466,-25334,1493,1522,-5381,4,-1,58706,2020-11-02 14:20:50,2020-11-02 14:21:20,2,D7:F2:3B:06:4D:C8,4,4,-29417.0,25584.0,21744.0
3904,-14573,-21010,20213,-22036,29703,27400,20691,-7182,9722,4,-1,58732,2020-11-02 14:20:50,2020-11-02 14:21:20,2,D7:F2:3B:06:4D:C8,4,4,-8910.514929469604,19339.80985149666,-24676.553175021265
3905,23570,-26901,-6659,7915,16904,-30458,15057,17907,12792,4,-1,58757,2020-11-02 14:20:50,2020-11-02 14:21:20,2,D7:F2:3B:06:4D:C8,4,4,-4700.982500075423,-31179.346290298865,18146.628073656302
3906,-24551,3306,-29175,-12306,29190,-19197,17103,19187,-28682,4,-1,58783,2020-11-02 14:20:50,2020-11-02 14:21:20,2,D7:F2:3B:06:4D:C8,4,4,-16618.94882589476,32491.667940964595,-11530.998063324121
3907,-24292,23530,-16116,-19462,23306,-9733,-30514,20722,19189,4,-1,58808,2020-11-02 14:20:50,2020-11-02 14:21:20,2,D7:F2:3B:06:4D:C8,4,4,-29444.635984495206,-18155.054334945093,-14383.846281011256
3908,-32747,-4115,-30977,10489,20753,27129,-7474,13296,-31757,4,-1,58834,2020-11-02 14:20:50,2020-11-02 14:21:20,2,D7:F2:3B:06:4D:C8,4,4,27569.317078994773,-6531.372163980775,35300.81722075884
3909,11274,-18195,-23031,-1543,-18939,-23307,-28210,-1043,29426,4,-1,58860,2020-11-02 14:20:50,2020-11-02 14:21:20,2,D7:F2:3B:06:4D:C8,4,4,31316.509416646688,-2493.096233937891,1284.0448299820928
3910,-9976,30960,24592,-5119,25077,-10253,-22836,7661,-6924,4,-1,58885,2020-11-02 14:20:50,2020-11-02 14:21:20,2,D7:F2:3B:06:4D:C8,4,4,-38838.450501137784,10182.60458138095,-7120.250459773885
3911,-10232,2031,-15346,-5625,-32265,22772,-54,-11796,24312,4,-1,58911,2020-11-02 14:20:50,2020-11-02 14:21:20,2,D7:F2:3B:06:4D:C8,4,4,-10367.152376471504,-15110.50742712296,-2917.7419176279273
3912,3596,-11287,-14065,-2290,16380,-26376,10699,26604,-22022,4,-1,58936,2020-11-02 14:20:50,2020-11-02 14:21:20,2,D7:F2:3B:06:4D:C8,4,4,-9673.020040060015,-7173.745220689484,13896.829595747087
3913,12818,-7963,-23282,23320,-20226,8188,-23091,2796,-23301,4,-1,58962,2020-11-02 14:20:50,2020-11-02 14:21:20,2,D7:F2:3B:06:4D:C8,4,4,-25652.29968472684,-5218.616579476769,9191.71251080958
3914,-10988,10465,3080,-17376,18686,11516,-7983,-21269,10492,4,-1,58987,2020-11-02 14:20:50,2020-11-02 14:21:20,2,D7:F2:3B:06:4D:C8,4,4,-516.7872053475994,14456.96740632593,5519.763889589731
3915,22037,-16418,25858,-16604,24314,-1800,23766,12011,27389,4,-1,59013,2020-11-02 14:20:50,2020-11-02 14:21:20,2,D7:F2:3B:06:4D:C8,4,4,31586.909584146415,-9784.946558818814,-18175.20896067001
3916,18953,28123,3836,31013,-32009,-22538,7642,11754,-11265,4,-1,59039,2020-11-02 14:20:50,2020-11-02 14:21:20,2,D7:F2:3B:06:4D:C8,4,4,18453.040801375402,-6590.124319210345,-27944.40517599412
3917,2068,-39,29684,16422,-3084,-2051,32477,-19223,-21502,4,-1,59064,2020-11-02 14:20:50,2020-11-02 14:21:20,2,D7:F2:3B:06:4D:C8,4,4,7223.79067813587,-27711.547349452772,-8081.15045878458
3918,27432,-31004,26334,12065,-28184,30186,29918,-21273,-761,4,-1,59115,2020-11-02 14:20:50,2020-11-02 14:21:20,2,D7:F2:3B:06:4D:C8,4,4,-32407.20171707241,16457.64945087722,-32956.96053068334
3919,10517,-16417,-17702,5135,-17681,-15392,-32296,22755,3602,4,-1,59117,2020-11-02 14:20:50,2020-11-02 14:21:20,2,D7:F2:3B:06:4D:C8,4,4,-13341.973683055543,12317.995411337091,19072.09242025981
3920,-24040,-5149,28119,3836,19459,-27,22478,-9505,-6116,4,1,59141,2020-11-02 14:20:50,2020-11-02 14:21:20,2,D7:F2:3B:06:4D:C8,4,4,6919.061755989959,-8685.640983632093,-35662.27961194079
3921,22803,-15904,24794,-30737,-8445,-29470,7730,9951,6980,4,1,59167,2020-11-02 14:20:50,2020-11-02 14:21:20,2,D7:F2:3B:06:4D:C8,4,4,31449.645448576244,-5538.446365823122,-19180.768337367208
3922,-1780,13792,-15649,-15129,3843,-10527,-11740,10211,-21567,4,1,59192,2020-11-02 14:20:50,2020-11-02 14:21:20,2,D7:F2:3B:06:4D:C8,4,4,3156.323506129851,20620.876492276122,-1759.528236473117
3923,-8185,-28193,-25632,-8224,-11779,-11296,2593,-24857,10689,4,1,59218,2020-11-02 14:20:50,2020-11-02 14:21:20,2,D7:F2:3B:06:4D:C8,4,4,16133.268792230572,-27053.970087624577,22948.621714071494
3924,-22268,-16677,25322,-25895,15096,26595,21278,-16661,-1603,4,1,59243,2020-11-02 14:20:50,2020-11-02 14:21:20,2,D7:F2:3B:06:4D:C8,4,4,34201.55578039091,12936.66402171367,-8836.63641834992
3925,2825,3290,31475,-1577,21496,4324,-10470,15855,30906,4,1,59269,2020-11-02 14:20:50,2020-11-02 14:21:20,2,D7:F2:3B:06:4D:C8,4,4,30440.842277439195,-3269.9768084311854,-8493.687250681705
3926,-11259,9688,-27143,-16935,-7440,23782,-32745,-1551,-9150,4,1,59295,2020-11-02 14:20:50,2020-11-02 14:21:20,2,D7:F2:3B:06:4D:C8,4,4,18131.074398052573,25021.969485901416,1590.6156729081358
3927,-29173,-18218,-770,-22054,-5403,-20501,-7660,-14606,14141,4,1,59320,2020-11-02 14:20:50,2020-11-02 14:21:20,2,D7:F2:3B:06:4D:C8,4,4,10130.890456847805,3073.83675761375,-32733.30015655147
3928,-10742,20692,22022,32731,29414,-3852,10258,-14095,-14537,4,1,59346,2020-11-02 14:20:50,2020-11-02 14:21:20,2,D7:F2:3B:06:4D:C8,4,4,2546.567289986435,23228.64179058589,-21965.042854550004
3929,22540,9937,-1017,23007,29928,-1025,5135,23791,7220,4,1,59371,2020-11-02 14:20:50,2020-11-02 14:21:20,2,D7:F2:3B:06:4D:C8,4,4,-15906.186312984768,-6380.861647047192,17723.083806658997
3930,-9459,18128,-24052,-27167,-29973,-16119,-502,-4117,-11214,4,1,59397,2020-11-02 14:20:50,2020-11-02 14:21:20,2,D7:F2:3B:06:4D:C8,4,4,10143.466501390812,17754.07424607553,-24052.0
3931,13581,31442,6418,11496,-25619,-5614,26884,27368,-29387,4,1,59423,2020-11-02 14:20:50,2020-11-02 14:21:20,2,D7:F2:3B:06:4D:C8,4,4,18540.814588527828,7348.645591432269,28573.926075451316
3932,23053,-22057,-28652,23028,-31764,4633,-18439,-18203,26430,4,1,59448,2020-11-02 14:20:50,2020-11-02 14:21:20,2,D7:F2:3B:06:4D:C8,4,4,31286.950512452288,9003.60380483669,-27909.693802635877
3933,-28142,14040,-13549,-28414,13800,21531,-3605,31973,448,4,-1,59474,2020-11-02 14:20:50,2020-11-02 14:21:20,2,D7:F2:3B:06:4D:C8,4,4,5009.64377410475,14040.0,-30829.385888411292
3934,-18911,-18729,7690,2576,-27935,-24809,32481,-28697,20429,4,-1,59499,2020-11-02 14:20:50,2020-11-02 14:21:20,2,D7:F2:3B:06:4D:C8,4,4,-14100.71954848031,-72.24796605318988,23847.472621779154
3935,-1496,-27936,32256,-13034,-11808,2060,9692,-8983,11991,4,-1,59525,2020-11-02 14:20:50,2020-11-02 14:21:20,2,D7:F2:3B:06:4D:C8,4,4,36612.957182642145,21493.148000963498,-4543.523231006047
3936,-9444,7402,-30472,18966,-22808,-21240,218,-27669,6878,4,-1,59576,2020-11-02 14:20:50,2020-11-02 14:21:20,2,D7:F2:3B:06:4D:C8,4,4,-15353.342306325541,-10211.675964868096,27065.07118064406
3937,-15847,-26648,2300,-11499,11252,8717,-27686,-24851,-22559,4,-1,59578,2020-11-02 14:20:50,2020-11-02 14:21:20,2,D7:F2:3B:06:4D:C8,4,4,8194.077517624146,-14668.092166455785,26157.933382274772
3938,10264,-23838,3069,27930,2038,-30195,-3108,-13585,29411,4,-1,59601,2020-11-02 14:20:50,2020-11-02 14:21:20,2,D7:F2:3B:06:4D:C8,4,4,-24862.049266049657,9.950424238861615,8055.874147575616
3939,-8661,-25109,-6935,23844,5615,22283,-6945,31729,-21786,4,-1,59627,2020-11-02 14:20:50,2020-11-02 14:21:20,2,D7:F2:3B:06:4D:C8,4,4,16194.934392805546,21906.71265105613,-3374.769301268042
3940,4601,-22783,21652,23827,-30978,20230,9699,-7183,-16664,4,-1,59653,2020-11-02 14:20:50,2020-11-02 14:21:20,2,D7:F2:3B:06:4D:C8,4,4,-31411.39323844874,4726.5483723087855,-165.85928904298453
3941,5169,773,21454,-772,-25584,9468,-29724,-18446,-17946,4,-1,59678,2020-11-02 14:20:50,2020-11-02 14:21:20,2,D7:F2:3B:06:4D:C8,4,4,3147.551360013855,21007.90972049933,-6029.167074432802
3942,18203,-13315,-284,11002,-24819,-8207,24549,-15119,13795,4,-1,59704,2020-11-02 14:20:50,2020-11-02 14:21:20,2,D7:F2:3B:06:4D:C8,4,4,-682.7290090967595,-18905.656563964658,12281.2507907606
3943,26650,6393,1002,-4109,20757,-10510,17382,-13072,10207,4,-1,59729,2020-11-02 14:20:50,2020-11-02 14:21:20,2,D7:F2:3B:06:4D:C8,4,4,-503.33296356688936,-12759.457600878732,24270.14319403915
3944,-27105,8431,-27156,-16399,-20203,19181,-32025,-2321,-11815,4,-1,59755,2020-11-02 14:20:50,2020-11-02 14:21:20,2,D7:F2:3B:06:4D:C8,4,4,37132.898545847216,12814.576831034528,381.560251245548
3945,-28903,-6941,-18708,-3863,27670,-280,-24344,-29202,-14893,4,-1,59781,2020-11-02 14:20:50,2020-11-02 14:21:20,2,D7:F2:3B:06:4D:C8,4,4,17627.800803337286,-6407.083532551924,29694.44516142309
3946,-18156,-27934,2299,-7706,25370,22506,-18711,-30995,-9268,4,-1,59806,2020-11-02 14:20:50,2020-11-02 14:21:20,2,D7:F2:3B:06:4D:C8,4,4,21623.968430156572,18106.425202959035,17882.825523424475
3947,7173,-9502,-20234,14826,-29405,18161,-2581,13294,-10300,4,-1,59832,2020-11-02 14:20:50,2020-11-02 14:21:20,2,D7:F2:3B:06:4D:C8,4,4,-19549.344241549214,12859.848784322417,1897.924648074265
3948,-2052,24555,-16692,-32281,13093,-28167,15341,-10000,-9283,4,-1,59857,2020-11-02 14:20:50,2020-11-02 14:21:20,2,D7:F2:3B:06:4D:C8,4,4,-9735.193631820233,24340.79941356407,14090.176785959991
3949,24325,10978,6918,-4866,25876,-11277,-1299,18419,-4540,4,-1,59883,2020-11-02 14:20:50,2020-11-02 14:21:20,2,D7:F2:3B:06:4D:C8,4,4,-23105.299264047673,10978.0,-10281.512287538151
3950,10232,-25367,-7194,15102,-13295,9714,14576,-13069,14913,4,-1,59908,2020-11-02 14:20:50,2020-11-02 14:21:20,2,D7:F2:3B:06:4D:C8,4,4,-21370.51778522534,5609.256482953262,17656.991824764897
3951,-12806,32214,19472,13082,-5893,-2315,18163,-32525,8767,4,-1,59934,2020-11-02 14:20:50,2020-11-02 14:21:20,2,D7:F2:3B:06:4D:C8,4,4,19553.13758720659,-33659.13664132272,8101.329956034066
3952,24558,13535,10495,1823,-21515,15093,19192,-17167,574,4,-1,59960,2020-11-02 14:20:50,2020-11-02 14:21:20,2,D7:F2:3B:06:4D:C8,4,4,-2508.9719026907205,-14880.602926075335,25859.414737151084
3953,23022,-2328,30727,11292,8437,32256,-21508,6640,-7619,4,1,59985,2020-11-02 14:20:50,2020-11-02 14:21:20,2,D7:F2:3B:06:4D:C8,4,4,-1371.9658146505153,14427.78674133693,-35630.56660439086
3954,-2565,-13852,-8427,-3292,22509,-15101,-21760,8942,-962,4,1,60011,2020-11-02 14:20:50,2020-11-02 14:21:20,2,D7:F2:3B:06:4D:C8,4,4,7279.139335534055,12524.15775498887,7722.115064024429
3955,-15884,22249,8701,1828,24299,18437,5894,-11030,19263,4,1,60036,2020-11-02 14:20:50,2020-11-02 14:21:20,2,D7:F2:3B:06:4D:C8,4,4,27345.653515759677,-8645.081491407765,-710.3927103646729
3956,10233,16104,32263,-4578,-16393,30992,3849,19688,30529,4,1,60062,2020-11-02 14:20:50,2020-11-02 14:21:20,2,D7:F2:3B:06:4D:C8,4,4,13860.351421566556,9916.62868952535,-33384.20896029679
3957,-8453,737,19198,12323,30458,-31978,-20216,17638,-8518,4,1,60088,2020-11-02 14:20:50,2020-11-02 14:21:20,2,D7:F2:3B:06:4D:C8,4,4,4730.163152221147,-3702.922566743624,20111.526620773224
3958,-6139,14043,-19209,7205,30199,13848,-29179,-3869,7364,4,1,60113,2020-11-02 14:20:50,2020-11-02 14:21:20,2,D7:F2:3B:06:4D:C8,4,4,-22168.76433064337,6938.842326722599,8017.30666853134
3959,12297,10713,7656,8741,22261,18198,9982,-5663,-23855,4,1,60139,2020-11-02 14:20:50,2020-11-02 14:21:20,2,D7:F2:3B:06:4D:C8,4,4,-7542.874036880524,9733.911487458743,13151.233113973472
3960,-17901,-15650,4567,-29924,28918,13080,6128,-20511,6117,4,1,60164,2020-11-02 14:20:50,2020-11-02 14:21:20,2,D7:F2:3B:06:4D:C8,4,4,20740.142381593058,9538.176877036603,8068.1761169183565
3961,-26333,753,20952,14601,32257,-4843,-29721,9444,-27408,4,1,60190,2020-11-02 14:20:50,2020-11-02 14:21:20,2,D7:F2:3B:06:4D:C8,4,4,20677.358776377012,6470.0502288406715,25759.764868283706
3962,4384,-23308,20197,-21510,19984,17679,14055,10727,-16400,4,1,60216,2020-11-02 14:20:50,2020-11-02 14:21:20,2,D7:F2:3B:06:4D:C8,4,4,1499.5172548706196,24099.755095833683,-19681.320619388927
3963,-6120,18676,-27155,-23310,-27625,-26353,21992,-21782,30701,4,1,60241,2020-11-02 14:20:50,2020-11-02 14:21:20,2,D7:F2:3B:06:4D:C8,4,4,-13517.950095653901,-5972.934159235871,-30087.0484385033
3964,-29655,-12556,-18958,-7695,-30191,29710,-6681,8686,8683,4,1,60267,2020-11-02 14:20:50,2020-11-02 14:21:20,2,D7:F2:3B:06:4D:C8,4,4,10621.747702396868,-25538.943722959302,25128.047163720163
3965,-11212,3833,-24083,11759,9227,7681,-16154,-11025,18665,4,1,60292,2020-11-02 14:20:50,2020-11-02 14:21:20,2,D7:F2:3B:06:4D:C8,4,4,14758.096906516206,21627.475030220936,-5902.763887794145
3966,5932,12785,-17924,-27413,-10745,-22797,6117,4079,13543,4,1,60318,2020-11-02 14:20:50,2020-11-02 14:21:20,2,D7:F2:3B:06:4D:C8,4,4,-22464.29797602829,-3757.23766194216,1073.828010388419
3967,16163,16363,-6144,14315,23819,27116,16100,-2068,3300,4,1,60369,2020-11-02 14:20:50,2020-11-02 14:21:20,2,D7:F2:3B:06:4D:C8,4,4,16163.0,-1222.6872960039036,17435.639958894273
3968,-6112,-6941,29699,15589,24079,2278,-18716,26090,-17442,4,1,60371,2020-11-02 14:20:50,2020-11-02 14:21:20,2,D7:F2:3B:06:4D:C8,4,4,-23688.71171538483,-14551.233747674229,13952.460703615538
3969,20513,-32302,19212,23266,25096,728,32742,20710,-29993,4,-1,60395,2020-11-02 14:20:50,2020-11-02 14:21:20,2,D7:F2:3B:06:4D:C8,4,4,-13182.0640018312,-11917.71087148389,-38955.16234384527
3970,-18420,13001,-16093,-28950,-9465,-11055,19698,-25631,3015,4,-1,60420,2020-11-02 14:20:50,2020-11-02 14:21:20,2,D7:F2:3B:06:4D:C8,4,4,25485.960907218017,-10599.848158594948,2327.2442180584094
3971,5364,-26415,8236,-16894,15625,30431,-13303,2275,23354,4,-1,60446,2020-11-02 14:20:50,2020-11-02 14:21:20,2,D7:F2:3B:06:4D:C8,4,4,10480.695103352802,-16139.798127321388,20591.70618379812
3972,10485,-4908,27416,534,13318,20208,18449,-12827,-11980,4,-1,60471,2020-11-02 14:20:50,2020-11-02 14:21:20,2,D7:F2:3B:06:4D:C8,4,4,-7816.59490041705,-19458.388123338096,21117.1191407424
3973,18159,-10539,1550,27424,-5882,2558,-2028,17895,26421,4,-1,60497,2020-11-02 14:20:50,2020-11-02 14:21:20,2,D7:F2:3B:06:4D:C8,4,4,3631.8134071704953,20328.45578984389,-4097.086596089819
3974,7922,25554,30976,-29398,14083,-12274,-13545,32230,-19144,4,-1,60523,2020-11-02 14:20:50,2020-11-02 14:21:20,2,D7:F2:3B:06:4D:C8,4,4,-34046.6719892306,-22562.643186146815,-2651.194997046259
3975,15860,13773,-28443,4401,32003,-29922,11801,10979,-9410,4,-1,60548,2020-11-02 14:20:50,2020-11-02 14:21:20,2,D7:F2:3B:06:4D:C8,4,4,32645.417859162328,-13582.425068840117,-183.84789916989575
3976,-29428,-2879,-30504,27436,-11002,18997,-5127,9951,2265,4,-1,60574,2020-11-02 14:20:50,2020-11-02 14:21:20,2,D7:F2:3B:06:4D:C8,4,4,-41568.24717766769,-2879.0,8281.426602725045
3977,21846,26348,2000,32538,5392,-4565,18153,20454,28143,4,-1,60599,2020-11-02 14:20:50,2020-11-02 14:21:20,2,D7:F2:3B:06:4D:C8,4,4,-5978.02327159256,33416.34292818371,-4803.757182698143
3978,-13515,27898,-30763,5635,26369,12546,-16919,-13336,-12816,4,-1,60625,2020-11-02 14:20:50,2020-11-02 14:21:20,2,D7:F2:3B:06:4D:C8,4,4,-43087.519926532885,968.4326649647337,-7059.9973621851495
3979,31014,-27399,-19229,29689,24571,19710,10984,1000,-11535,4,1,60650,2020-11-02 14:20:50,2020-11-02 14:21:20,2,D7:F2:3B:06:4D:C8,4,4,-11654.363917130793,-28773.944093578397,-33444.93655229002
3980,21559,-1,-17434,25587,22530,-31236,24550,-31001,2034,4,1,60676,2020-11-02 14:20:50,2020-11-02 14:21:20,2,D7:F2:3B:06:4D:C8,4,4,17043.738183108395,-13193.441059577555,-17440.726468616664
3981,-26315,-16386,19186,-27410,18942,18162,-10268,486,-1552,4,1,60702,2020-11-02 14:20:50,2020-11-02 14:21:20,2,D7:F2:3B:06:4D:C8,4,4,-26315.0,7291.068730568964,24154.58359744832
3982,25381,24059,16899,-4373,-14088,20458,-18463,-8734,11249,4,1,60727,2020-11-02 14:20:50,2020-11-02 14:21:20,2,D7:F2:3B:06:4D:C8,4,4,34594.854541678455,14208.941508458545,10483.742816824237
3983,5640,-24595,-776,23787,2301,10480,17628,-10017,-16141,4,1,60753,2020-11-02 14:20:50,2020-11-02 14:21:20,2,D7:F2:3B:06:4D:C8,4,4,20025.422107833056,-15017.078678870976,3285.668631452336
3984,25374,32230,-2041,-7970,-7416,-1304,12277,-29475,19158,4,1,60778,2020-11-02 14:20:50,2020-11-02 14:21:20,2,D7:F2:3B:06:4D:C8,4,4,-34122.69672940503,16537.430119380824,-15777.624344610536
3985,25334,4572,16416,14821,-30966,14570,8723,-16928,10304,4,1,60804,2020-11-02 14:20:50,2020-11-02 14:21:20,2,D7:F2:3B:06:4D:C8,4,4,-2398.8568266392504,-24730.403360083983,17744.08159282506
3986,28414,5349,8218,-28936,-20472,10475,-14318,7908,5438,4,1,60830,2020-11-02 14:20:50,2020-11-02 14:21:20,2,D7:F2:3B:06:4D:C8,4,4,8381.63410627744,5246.636824962787,-28385.27316647545
3987,-14859,26089,2313,-28673,-4867,5614,8470,-25114,5178,4,1,60855,2020-11-02 14:20:50,2020-11-02 14:21:20,2,D7:F2:3B:06:4D:C8,4,4,27272.46969691866,12149.624469933235,-3921.070373029937
3988,-7690,24296,29709,-10495,-4356,18929,-2024,30440,-6346,4,1,60881,2020-11-02 14:20:50,2020-11-02 14:21:20,2,D7:F2:3B:06:4D:C8,4,4,3873.2838323950164,38935.13651642282,1053.192195767453
3989,-5143,2793,-13039,19979,24061,24829,18715,28137,20533,4,1,60907,2020-11-02 14:20:50,2020-11-02 14:21:20,2,D7:F2:3B:06:4D:C8,4,4,6769.223038503399,-30.593718582926613,-12587.434308840624
3990,31978,1503,-30964,3102,13308,29457,22302,-3865,-27851,4,1,60932,2020-11-02 14:20:50,2020-11-02 14:21:20,2,D7:F2:3B:06:4D:C8,4,4,-23083.07923624878,22317.43765652427,30866.23103685017
3991,3324,-309,-28420,6442,1280,26920,19748,-2590,22837,4,1,60957,2020-11-02 14:20:50,2020-11-02 14:21:20,2,D7:F2:3B:06:4D:C8,4,4,-3899.8849798699134,-3804.257631903219,28091.980670894158
3992,19235,-17481,2539,8755,-30715,-23754,3288,4831,16892,4,1,60983,2020-11-02 14:20:50,2020-11-02 14:21:20,2,D7:F2:3B:06:4D:C8,4,4,7890.843917355458,24764.998854672584,2539.0
3993,-18092,20449,-10032,-18139,-14316,-218,-28700,-3610,27638,4,1,61009,2020-11-02 14:20:50,2020-11-02 14:21:20,2,D7:F2:3B:06:4D:C8,4,4,23496.020780326595,3612.5355270508935,16763.343448019434
3994,25140,-19211,5072,-31219,-6659,29961,31719,-791,-6922,4,1,61034,2020-11-02 14:20:50,2020-11-02 14:21:20,2,D7:F2:3B:06:4D:C8,4,4,13090.29123824996,-21471.073614751804,19860.628845223036
3995,20010,24567,6622,28159,12275,-1530,-25116,3050,-7430,4,1,61060,2020-11-02 14:20:50,2020-11-02 14:21:20,2,D7:F2:3B:06:4D:C8,4,4,-6918.01545871938,-28221.792709583475,14263.938844871032
3996,20537,5884,-20250,-31495,-25602,25089,-10527,17642,19197,4,1,61085,2020-11-02 14:20:50,2020-11-02 14:21:20,2,D7:F2:3B:06:4D:C8,4,4,24304.306066939167,10536.266529690323,12835.112746675477
3997,-30934,19446,-22295,-13069,-17143,-29449,-20511,32489,-29701,4,1,61111,2020-11-02 14:20:50,2020-11-02 14:21:20,2,D7:F2:3B:06:4D:C8,4,4,13731.255329107296,-32540.22243689248,-24180.836376031773
3998,-4048,-5622,-10516,-16652,-5883,-13070,27874,21224,-5384,4,1,61137,2020-11-02 14:20:50,2020-11-02 14:21:20,2,D7:F2:3B:06:4D:C8,4,4,5577.937983458818,-4283.750604162947,-10445.838052258943
3999,23842,9460,32242,32739,6400,-18457,-19232,18405,4855,4,1,61162,2020-11-02 14:20:50,2020-11-02 14:21:20,2,D7:F2:3B:06:4D:C8,4,4,-28296.252894556474,-4815.337717973975,29556.957265408113
4000,-13801,-18205,1032,9948,-17670,-13340,16346,21729,25080,4,1,61188,2020-11-02 14:20:50,2020-11-02 14:21:20,2,D7:F2:3B:06:4D:C8,4,4,-2340.7681959106603,-12864.896341142246,18760.860758096307
4001,-25334,6116,25383,-13597,15864,1253,-14661,-8482,2066,4,-1,61213,2020-11-02 14:20:50,2020-11-02 14:21:20,2,D7:F2:3B:06:4D:C8,4,4,-119.87268951690749,20535.542532793956,-30029.83224099193
4002,-13822,29679,-1525,-22301,19729,-16894,-20170,4319,32,4,-1,61239,2020-11-02 14:20:50,2020-11-02 14:21:20,2,D7:F2:3B:06:4D:C8,4,4,-13822.0,-29597.195318895916,-2678.56216189312
4003,-32493,-13598,29459,25324,290,-21,-7156,17121,4934,4,-1,61264,2020-11-02 14:20:50,2020-11-02 14:21:20,2,D7:F2:3B:06:4D:C8,4,4,38399.40755135594,17441.862986260858,18160.403334545525
4004,11238,11742,24344,-12546,22013,10724,19729,-29211,-4545,4,-1,61316,2020-11-02 14:20:50,2020-11-02 14:21:20,2,D7:F2:3B:06:4D:C8,4,4,-18333.673838108363,-15059.917371291838,-17142.719631602315
4005,28659,21226,28949,6672,32499,-5133,17689,-22298,-19656,4,-1,61318,2020-11-02 14:20:50,2020-11-02 14:21:20,2,D7:F2:3B:06:4D:C8,4,4,20960.86541716399,28340.47878051917,29451.406442723255
4006,-11279,-2070,-7930,22040,19198,-23296,-24290,-1306,23094,4,-1,61341,2020-11-02 14:20:50,2020-11-02 14:21:20,2,D7:F2:3B:06:4D:C8,4,4,12938.33981902703,3728.762431708329,3616.8127481610313
4007,-19727,-15644,12289,3615,-32253,18703,-29151,-30491,-12233,4,-1,61367,2020-11-02 14:20:50,2020-11-02 14:21:20,2,D7:F2:3B:06:4D:C8,4,4,-7826.500634817462,21879.812491140903,15650.191026492821
4008,26615,-18480,25080,29993,13309,-19423,12584,27361,-13002,4,-1,61392,2020-11-02 14:20:50,2020-11-02 14:21:20,2,D7:F2:3B:06:4D:C8,4,4,-15083.4811277644,3362.792229680871,37948.059904142305
4009,16406,-26193,11750,-6092,-3081,-29390,-8242,481,-23030,4,-1,61418,2020-11-02 14:20:50,2020-11-02 14:21:20,2,D7:F2:3B:06:4D:C8,4,4,-7496.0249234427465,15203.796496832805,28389.201599023876
4010,-6112,-6698,-21085,-21213,28413,23344,-15654,-4376,-16891,4,-1,61444,2020-11-02 14:20:50,2020-11-02 14:21:20,2,D7:F2:3B:06:4D:C8,4,4,-12355.516851192242,12376.268665814638,14864.930213474912
4011,-966,8688,-23598,16142,22257,-20201,6108,-23570,-23545,4,-1,61469,2020-11-02 14:20:50,2020-11-02 14:21:20,2,D7:F2:3B:06:4D:C8,4,4,-16302.381993886247,-18685.251367260622,4286.470187426772
4012,-2785,25834,-27431,-4860,23555,-25596,6108,-3089,30217,4,-1,61495,2020-11-02 14:20:50,2020-11-02 14:21:20,2,D7:F2:3B:06:4D:C8,4,4,34729.093284120914,13177.610405752866,6917.528869258258
4013,-4325,-1556,20702,32506,-19946,25347,-17699,-30224,14854,4,-1,61520,2020-11-02 14:20:50,2020-11-02 14:21:20,2,D7:F2:3B:06:4D:C8,4,4,4544.258020716196,-20651.308869582903,-1603.9719493317452
4014,-5604,17905,-13861,-18705,10262,29182,-31778,-15376,-5119,4,-1,61546,2020-11-02 14:20:50,2020-11-02 14:21:20,2,D7:F2:3B:06:4D:C8,4,4,-9704.917479252079,18370.62080182483,-10604.528753153925
4015,12315,-18707,8677,-21281,2067,11002,-9252,12528,5118,4,-1,61571,2020-11-02 14:20:50,2020-11-02 14:21:20,2,D7:F2:3B:06:4D:C8,4,4,13451.735165368646,-2805.9915006971733,-19699.71156486307
4016,-29160,2528,-3588,5590,-23022,15603,11993,27118,-26374,4,-1,61597,2020-11-02 14:20:50,2020-11-02 14:21:20,2,D7:F2:3B:06:4D:C8,4,4,-12255.808202410977,10808.16218416784,-24546.871969895474
4017,-3811,-4905,15626,25045,-10472,6633,-23595,-6678,-27658,4,-1,61623,2020-11-02 14:20:50,2020-11-02 14:21:20,2,D7:F2:3B:06:4D:C8,4,4,209.72143014419362,12944.29542280876,-10731.069607862511
4018,12816,14037,24582,-16932,-11749,13025,-24364,32485,10993,4,-1,61648,2020-11-02 14:20:50,2020-11-02 14:21:20,2,D7:F2:3B:06:4D:C8,4,4,28160.285603206765,-7556.605149333573,10745.137614888476
4019,16145,18388,29959,-16671,-7917,-12581,727,-23329,-23319,4,1,61674,2020-11-02 14:20:50,2020-11-02 14:21:20,2,D7:F2:3B:06:4D:C8,4,4,-21838.225161937164,-2846.7755898712203,-31801.08552419945
4020,28676,23256,-1517,-276,15632,-7973,-8172,5600,-23756,4,1,61699,2020-11-02 14:20:50,2020-11-02 14:21:20,2,D7:F2:3B:06:4D:C8,4,4,-27287.24540760248,14323.243085991962,-20388.88782069441
4021,-7950,-15134,17945,13055,-30703,-28441,-3564,14821,12851,4,1,61725,2020-11-02 14:20:50,2020-11-02 14:21:20,2,D7:F2:3B:06:4D:C8,4,4,5594.130261362338,24143.573531352227,-238.8404385743006
4022,-22290,-25,272,32017,-12787,18167,2581,30440,-13260,4,1,61751,2020-11-02 14:20:50,2020-11-02 14:21:20,2,D7:F2:3B:06:4D:C8,4,4,2717.0358128070898,5996.906509935712,-21297.265967795356
4023,27378,17130,8195,-31971,-29428,-14330,-10219,32745,16952,4,1,61776,2020-11-02 14:20:50,2020-11-02 14:21:20,2,D7:F2:3B:06:4D:C8,4,4,-21903.308062704684,9048.220747291625,23420.602174550026
4024,-23567,2791,20983,14119,-17923,18963,792,1256,-1989,4,1,61802,2020-11-02 14:20:50,2020-11-02 14:21:20,2,D7:F2:3B:06:4D:C8,4,4,-23567.0,2791.0,20983.0
4025,23279,31962,21732,23084,-12047,-12256,-21729,32227,-7878,4,1,61827,2020-11-02 14:20:50,2020-11-02 14:21:20,2,D7:F2:3B:06:4D:C8,4,4,-6993.701810614177,-41995.60646830493,14940.491335410512
4026,23821,21189,-24094,-7129,-26623,-30154,-18231,10206,30730,4,1,61853,2020-11-02 14:20:50,2020-11-02 14:21:20,2,D7:F2:3B:06:4D:C8,4,4,-14745.115876335325,-36090.982382456816,-8772.522240646384
4027,-10938,-14103,2778,25878,-1520,18992,-17184,-32282,-12297,4,1,61878,2020-11-02 14:20:50,2020-11-02 14:21:20,2,D7:F2:3B:06:4D:C8,4,4,4268.620874750838,-10845.933967659665,13798.417633801628
4028,13884,-9217,2258,-766,-7670,-26615,30435,27626,28406,4,1,61904,2020-11-02 14:20:50,2020-11-02 14:21:20,2,D7:F2:3B:06:4D:C8,4,4,10280.956133329604,12590.831371086879,4311.614009788779
4029,2580,18673,10976,13549,-14315,19968,-20508,16107,-21006,4,1,61931,2020-11-02 14:20:50,2020-11-02 14:21:20,2,D7:F2:3B:06:4D:C8,4,4,10826.567516294333,18651.698916024754,3272.5324079497445
4030,13856,-4367,11767,1766,-7147,-6911,-22044,-19220,-10003,4,1,61955,2020-11-02 14:20:50,2020-11-02 14:21:20,2,D7:F2:3B:06:4D:C8,4,4,-1535.030727932034,13465.684130568088,12877.916972867592
4031,18726,-30224,26104,-19998,32022,4857,-2077,16621,4841,4,1,61981,2020-11-02 14:20:50,2020-11-02 14:21:20,2,D7:F2:3B:06:4D:C8,4,4,15943.53436867581,-30224.0,-27890.60063596432
4032,25627,8163,26095,-24873,-6380,29679,-14110,19180,28131,4,1,62006,2020-11-02 14:20:50,2020-11-02 14:21:20,2,D7:F2:3B:06:4D:C8,4,4,33656.291552533476,7863.69749420251,14482.50750562681
4033,16676,-7466,25118,-5408,15378,13791,11746,19945,-7204,4,1,62032,2020-11-02 14:20:50,2020-11-02 14:21:20,2,D7:F2:3B:06:4D:C8,4,4,-26839.102668261643,5277.685542529916,14715.728295829653
4034,23314,-30508,-4587,3826,-20982,29657,4071,-24604,16852,4,1,62057,2020-11-02 14:20:50,2020-11-02 14:21:20,2,D7:F2:3B:06:4D:C8,4,4,35527.161458756644,-4317.602199685116,-14645.83008670765
4035,27148,-18472,16665,24060,-4341,11995,-30984,11234,-10304,4,-1,62083,2020-11-02 14:20:50,2020-11-02 14:21:20,2,D7:F2:3B:06:4D:C8,4,4,-15835.104625475378,-14613.115209117695,-29860.63024092595
4036,23303,-26146,12828,-31987,6405,-21028,-24565,15588,-26822,4,-1,62109,2020-11-02 14:20:50,2020-11-02 14:21:20,2,D7:F2:3B:06:4D:C8,4,4,17496.433711878708,-31551.211906851404,-9465.545075419206
4037,20219,-23069,10251,-32486,-32255,7909,-2539,-19993,-1998,4,-1,62134,2020-11-02 14:20:50,2020-11-02 14:21:20,2,D7:F2:3B:06:4D:C8,4,4,-21463.279491386107,-23069.0,-7295.107639688711
4038,-15373,7404,-15112,-19943,-12029,-22796,-28133,12522,14641,4,-1,62160,2020-11-02 14:20:50,2020-11-02 14:21:20,2,D7:F2:3B:06:4D:C8,4,4,-14519.221260994003,15871.966363409098,7536.165253834995
4039,-9226,11763,8959,2325,11020,9475,18717,-8982,20275,4,-1,62185,2020-11-02 14:20:50,2020-11-02 14:21:20,2,D7:F2:3B:06:4D:C8,4,4,750.9956610974241,12933.022644049233,-11658.638720087461
4040,8692,6124,-8712,1826,-6913,-8695,-13793,-4119,31029,4,-1,62211,2020-11-02 14:20:50,2020-11-02 14:21:20,2,D7:F2:3B:06:4D:C8,4,4,-7574.616249020859,-11304.992986073627,-1943.0662018817702
4041,-1046,6630,-22548,-8153,22001,4372,17448,-23321,27442,4,-1,62237,2020-11-02 14:20:50,2020-11-02 14:21:20,2,D7:F2:3B:06:4D:C8,4,4,-14511.399961192576,-11628.029629162054,-14410.81254161712
4042,7682,8667,-24607,-18388,-27404,25123,29497,19941,-6618,4,-1,62262,2020-11-02 14:20:50,2020-11-02 14:21:20,2,D7:F2:3B:06:4D:C8,4,4,-23061.77350135005,-3205.4947513976877,14053.962728397659
4043,-20176,-31254,29112,4629,15133,-22228,4806,-23837,-11247,4,-1,62288,2020-11-02 14:20:50,2020-11-02 14:21:20,2,D7:F2:3B:06:4D:C8,4,4,-7269.915075756511,-46523.17254383133,-3759.62594524871
4044,21300,25338,27864,30185,-25547,25369,20446,-26651,-4362,4,-1,62313,2020-11-02 14:20:50,2020-11-02 14:21:20,2,D7:F2:3B:06:4D:C8,4,4,-32093.02243085685,-29016.597783442227,-426.2679045559307
4045,-19429,-31760,-9482,-32289,27174,-3065,-32539,15849,-27159,4,-1,62339,2020-11-02 14:20:50,2020-11-02 14:21:20,2,D7:F2:3B:06:4D:C8,4,4,14351.976240726013,-16744.62970993964,31459.97645998234
4046,-28635,-6673,-13051,-5152,9746,1538,27621,24811,-14877,4,-1,62364,2020-11-02 14:20:50,2020-11-02 14:21:20,2,D7:F2:3B:06:4D:C8,4,4,-8526.907741168585,-5378.461607817933,-30548.072772383326
4047,-7637,15852,-26865,4326,-25842,-269,-30748,24043,27615,4,-1,62390,2020-11-02 14:20:50,2020-11-02 14:21:20,2,D7:F2:3B:06:4D:C8,4,4,23386.315500694804,-19214.28019019031,-10734.504277088061
4048,-3546,23015,-1777,22508,20490,27111,7141,3817,-20262,4,-1,62416,2020-11-02 14:20:50,2020-11-02 14:21:20,2,D7:F2:3B:06:4D:C8,4,4,5476.364710250911,-13290.53192088968,18406.337517826054
4049,27677,23524,30994,10226,30986,15328,32745,-10523,-558,4,-1,62441,2020-11-02 14:20:50,2020-11-02 14:21:20,2,D7:F2:3B:06:4D:C8,4,4,26537.559805493707,36393.76821974625,15851.640146597862
4050,9233,14819,4354,-15114,19467,-4388,-30987,-28701,-28988,4,-1,62467,2020-11-02 14:20:50,2020-11-02 14:21:20,2,D7:F2:3B:06:4D:C8,4,4,4916.962619401618,16722.103582843054,-4472.482125629409
4051,4586,-13599,-25345,7411,14098,-20505,-11775,5605,21314,4,-1,62492,2020-11-02 14:20:50,2020-11-02 14:21:20,2,D7:F2:3B:06:4D:C8,4,4,-2086.4573079490942,17860.138723801618,22912.77727968977
4052,20993,32488,8241,-6405,15897,-6660,9217,-7448,-15552,4,-1,62518,2020-11-02 14:20:50,2020-11-02 14:21:20,2,D7:F2:3B:06:4D:C8,4,4,16067.653332726186,9591.558922929817,34841.39474543605
4053,-17927,28140,-18703,-17904,-19971,-20232,10500,-12567,19775,4,-1,62544,2020-11-02 14:20:50,2020-11-02 14:21:20,2,D7:F2:3B:06:4D:C8,4,4,466.8695248111708,-31321.473095578862,-21949.63539491561
4054,-6928,234,12559,27928,4859,-25601,-21497,-14871,31806,4,-1,62569,2020-11-02 14:20:50,2020-11-02 14:21:20,2,D7:F2:3B:06:4D:C8,4,4,5510.684084669173,-13197.602618961157,-1111.785514819947
4055,-31252,19943,-23048,-24540,-16143,-16119,-28148,-14105,-30658,4,1,62595,2020-11-02 14:20:50,2020-11-02 14:21:20,2,D7:F2:3B:06:4D:C8,4,4,-8315.771006291565,-12574.906640001207,-40967.557073447446
4056,-32008,-5404,-24072,11046,16371,23576,30991,18404,32065,4,1,62620,2020-11-02 14:20:50,2020-11-02 14:21:20,2,D7:F2:3B:06:4D:C8,4,4,-14682.315089833945,-37145.97074274347,6146.783319922738
4057,1023,-5416,12010,7980,-5132,-32735,27913,-1825,-24127,4,1,62646,2020-11-02 14:20:50,2020-11-02 14:21:20,2,D7:F2:3B:06:4D:C8,4,4,-10226.587259020316,-7480.873226719672,-3751.4175719842397
4058,23583,27096,21463,17182,18957,22318,-15894,-31774,28646,4,1,62672,2020-11-02 14:20:50,2020-11-02 14:21:20,2,D7:F2:3B:06:4D:C8,4,4,22905.24004207229,13913.402564188376,-32136.874174410375
4059,-21441,21492,-29471,13311,11804,-21725,4586,746,-10520,4,1,62697,2020-11-02 14:20:50,2020-11-02 14:21:20,2,D7:F2:3B:06:4D:C8,4,4,6500.272665372528,29654.156542984172,-29471.0
4060,27701,-4360,-12304,-17933,1289,-15867,17897,27629,-7193,4,1,62722,2020-11-02 14:20:50,2020-11-02 14:21:20,2,D7:F2:3B:06:4D:C8,4,4,-9419.042078675395,25871.73574204216,13404.415429778368
4061,17955,10743,-8717,19698,-7423,32249,-12313,-3604,5351,4,1,62748,2020-11-02 14:20:50,2020-11-02 14:21:20,2,D7:F2:3B:06:4D:C8,4,4,17955.0,-12397.01113466542,-6141.030282206859
4062,14631,6392,15090,-26645,-5359,13818,16871,-19220,18404,4,1,62774,2020-11-02 14:20:50,2020-11-02 14:21:20,2,D7:F2:3B:06:4D:C8,4,4,16586.053035099514,14182.617403898337,2527.4756757496457
4063,-30434,-14867,28408,-13598,19735,20981,-29721,7661,-30242,4,1,62799,2020-11-02 14:20:50,2020-11-02 14:21:20,2,D7:F2:3B:06:4D:C8,4,4,24022.301978765372,-29692.917973649615,22260.506257745375
4064,-6141,7903,-16637,-3362,-29690,-21771,29925,18924,-13094,4,1,62825,2020-11-02 14:20:50,2020-11-02 14:21:20,2,D7:F2:3B:06:4D:C8,4,4,-14275.923939826764,1756.0628548196346,13041.215354183973
4065,-18641,7657,20517,-11555,-17885,-11542,2788,-11029,23253,4,1,62850,2020-11-02 14:20:50,2020-11-02 14:21:20,2,D7:F2:3B:06:4D:C8,4,4,23662.992645841216,15683.182017873289,-4600.478218307375
4066,-29428,19416,-13792,-26886,24319,-24615,8936,6888,26317,4,1,62876,2020-11-02 14:20:50,2020-11-02 14:21:20,2,D7:F2:3B:06:4D:C8,4,4,22227.73077310854,-8068.7321205960725,29564.01614537959
4067,-26363,7902,5394,25350,-28416,-5920,20207,-14109,10182,4,1,62902,2020-11-02 14:20:50,2020-11-02 14:21:20,2,D7:F2:3B:06:4D:C8,4,4,15226.549916968339,7826.318481931996,-22213.633778502815
4068,30469,-16411,1545,-11000,-14588,12264,31229,-16670,20549,4,1,62927,2020-11-02 14:20:50,2020-11-02 14:21:20,2,D7:F2:3B:06:4D:C8,4,4,27561.39605160797,-723.0583202597275,20974.13982388579
4069,-28677,21737,12297,-29173,-19708,-13331,-21496,-285,14907,4,1,62955,2020-11-02 14:20:50,2020-11-02 14:21:20,2,D7:F2:3B:06:4D:C8,4,4,29923.486928913735,-17842.825787720078,-15241.463345893011
4070,-7688,29675,-3576,-30446,-31485,-778,26126,32229,-26569,4,1,62978,2020-11-02 14:20:50,2020-11-02 14:21:20,2,D7:F2:3B:06:4D:C8,4,4,5541.680622993796,27399.093140395606,-13079.68715056524
4071,32246,4590,-18693,-5353,-25855,30464,-2287,2534,24119,4,1,63004,2020-11-02 14:20:50,2020-11-02 14:21:20,2,D7:F2:3B:06:4D:C8,4,4,-17603.66874490464,-27404.077483463432,-18693.0
4072,-3081,2029,-15876,-14052,-512,6155,-23277,20709,-11463,4,1,63030,2020-11-02 14:20:50,2020-11-02 14:21:20,2,D7:F2:3B:06:4D:C8,4,4,7750.340081593106,-8750.250862828168,-11358.790272613816
4073,-18440,-16667,1266,-20700,26107,-16619,-24812,-7198,12606,4,1,63055,2020-11-02 14:20:50,2020-11-02 14:21:20,2,D7:F2:3B:06:4D:C8,4,4,-9595.544631621226,-2909.9397640444136,-22779.00390254583
4074,-2816,27098,-21270,17959,-30983,-12256,-26869,-7202,-20544,4,1,63081,2020-11-02 14:20:50,2020-11-02 14:21:20,2,D7:F2:3B:06:4D:C8,4,4,29944.265254322556,5900.025239642506,16222.670573933014
4075,28702,30171,-17441,25631,-12798,28712,-8220,-10015,2285,4,1,63106,2020-11-02 14:20:50,2020-11-02 14:21:20,2,D7:F2:3B:06:4D:C8,4,4,44800.56809639263,1625.3654243131205,5343.2023616867755
4076,21044,25330,15072,19471,29444,22045,28388,18407,-6928,4,1,63132,2020-11-02 14:20:50,2020-11-02 14:21:20,2,D7:F2:3B:06:4D:C8,4,4,-17802.951996301996,18194.26223959304,25761.361411507067
4077,21551,6396,9953,-254,-23553,-3833,-9501,28137,-12814,4,1,63157,2020-11-02 14:20:50,2020-11-02 14:21:20,2,D7:F2:3B:06:4D:C8,4,4,16618.570863089975,7882.5288939346365,16312.739399154962
4078,-18399,25082,28137,-4106,-10486,-17664,-3357,-7959,-16143,4,1,63183,2020-11-02 14:20:50,2020-11-02 14:21:20,2,D7:F2:3B:06:4D:C8,4,4,36796.810685663244,20130.503313140856,-279.73866926863957
4079,-19678,-7944,-9486,7407,19474,29439,2277,-25366,-16403,4,1,63209,2020-11-02 14:20:50,2020-11-02 14:21:20,2,D7:F2:3B:06:4D:C8,4,4,-9588.575496792131,-1862.0038844608325,21092.822890181633
4080,-29660,-3596,-23812,-22038,16136,4346,-12316,-15638,16362,4,-1,63234,2020-11-02 14:20:50,2020-11-02 14:21:20,2,D7:F2:3B:06:4D:C8,4,4,18178.08117571551,8714.337217441078,-32454.211616211214
4081,-31965,-1552,268,18155,-11272,31730,-19231,5097,1258,4,-1,63260,2020-11-02 14:20:50,2020-11-02 14:21:20,2,D7:F2:3B:06:4D:C8,4,4,-31965.0,1574.2885168839357,-46.29973658000546
4082,11554,-11025,28177,-11537,-26883,-17939,2782,28902,6635,4,-1,63285,2020-11-02 14:20:50,2020-11-02 14:21:20,2,D7:F2:3B:06:4D:C8,4,4,-3550.7350457641805,-25935.185475908213,19072.16046925523
4083,-31477,-21525,4886,-6923,9484,27887,-26145,-11805,27111,4,-1,63311,2020-11-02 14:20:50,2020-11-02 14:21:20,2,D7:F2:3B:06:4D:C8,4,4,-12292.969401473587,-30100.946810738234,-20513.80155874435
4084,-17641,-19213,25863,26103,-16372,-13844,20712,13282,3293,4,-1,63337,2020-11-02 14:20:50,2020-11-02 14:21:20,2,D7:F2:3B:06:4D:C8,4,4,-18405.97827099135,15370.93906873201,27824.327755277794
4085,-10486,-6165,-18936,-18953,-18428,-5405,16889,-26400,26314,4,-1,63362,2020-11-02 14:20:50,2020-11-02 14:21:20,2,D7:F2:3B:06:4D:C8,4,4,9367.370785749512,-19421.518594156503,6449.224531609964
4086,-21757,8686,-30456,-22277,21506,17893,-31731,-11295,31297,4,-1,63388,2020-11-02 14:20:50,2020-11-02 14:21:20,2,D7:F2:3B:06:4D:C8,4,4,27107.509406090772,20005.622700985678,-18475.37753726583
4087,-21760,-6162,-26873,7423,-13310,-27160,-6380,-15388,26425,4,-1,63413,2020-11-02 14:20:50,2020-11-02 14:21:20,2,D7:F2:3B:06:4D:C8,4,4,-31100.051978010644,3680.286268469993,-15901.831119312883
4088,-6,25582,-13050,-10750,-513,17901,26648,29927,-16843,4,-1,63439,2020-11-02 14:20:50,2020-11-02 14:21:20,2,D7:F2:3B:06:4D:C8,4,4,-28506.5236838983,1626.529339507846,-3077.9489545905685
4089,-9489,28399,-13814,23049,20481,-9482,-27110,23017,18740,4,-1,63464,2020-11-02 14:20:50,2020-11-02 14:21:20,2,D7:F2:3B:06:4D:C8,4,4,17871.759227114344,5642.7626792430165,-27131.72256738955
4090,21227,-26387,11014,7448,15356,-4860,18973,29417,15412,4,-1,63490,2020-11-02 14:20:50,2020-11-02 14:21:20,2,D7:F2:3B:06:4D:C8,4,4,-30683.098087954655,8005.409645869548,16205.813837224337
4091,-10770,-21019,9976,22306,-10249,28181,-18397,999,17714,4,-1,63516,2020-11-02 14:20:50,2020-11-02 14:21:20,2,D7:F2:3B:06:4D:C8,4,4,7527.03139987721,-23513.996619373032,-6909.963696675693
4092,29181,-20523,21237,-30172,29700,26922,12846,-4383,3629,4,1,63541,2020-11-02 14:20:50,2020-11-02 14:21:20,2,D7:F2:3B:06:4D:C8,4,4,29181.0,-10770.16792704,-27499.22145849513
4093,-26850,-13116,-29203,6688,-10730,4667,27356,12769,15351,4,1,63567,2020-11-02 14:20:50,2020-11-02 14:21:20,2,D7:F2:3B:06:4D:C8,4,4,-3328.2711077430668,39779.47310769483,12340.311815653067
4094,-12467,10468,-25623,-17389,16138,29232,-10525,21226,21235,4,1,63592,2020-11-02 14:20:50,2020-11-02 14:21:20,2,D7:F2:3B:06:4D:C8,4,4,-6809.434373188846,17036.567446166846,24185.330578047557
4095,-2509,-9480,29132,-22519,-28183,13318,-30750,-18452,-14601,4,1,63618,2020-11-02 14:20:50,2020-11-02 14:21:20,2,D7:F2:3B:06:4D:C8,4,4,-28929.0063487858,10379.577771015638,464.60947832441434
4096,-13524,-17420,-14118,13807,-4877,-762,-25123,-4628,-32516,4,1,63643,2020-11-02 14:20:50,2020-11-02 14:21:20,2,D7:F2:3B:06:4D:C8,4,4,-25000.67417610428,-6707.781099202863,-3955.358828911636
4097,-16594,28914,-6422,-6680,26887,26878,-16167,3565,8701,4,1,63669,2020-11-02 14:20:50,2020-11-02 14:21:20,2,D7:F2:3B:06:4D:C8,4,4,6072.974217996976,-23619.64028741757,-23618.930814932013
4098,26664,-3345,-5902,5097,-31978,1783,10713,-25621,11257,4,1,63695,2020-11-02 14:20:50,2020-11-02 14:21:20,2,D7:F2:3B:06:4D:C8,4,4,-14529.923648604909,-16782.194938069988,-16255.176923870436
4099,-23816,-8980,-25630,-1309,275,-15365,31961,-11287,9716,4,1,63746,2020-11-02 14:20:50,2020-11-02 14:21:20,2,D7:F2:3B:06:4D:C8,4,4,15262.340835192743,-26432.792266294782,-19315.993405396344
4100,-29656,-16154,-18432,23262,3339,4845,-18985,6632,4080,4,1,63748,2020-11-02 14:20:50,2020-11-02 14:21:20,2,D7:F2:3B:06:4D:C8,4,4,1249.83322648192,13391.214801524122,36045.553942829385
4101,-20980,730,27410,-15135,8458,-25111,22483,25572,-31249,4,1,63771,2020-11-02 14:20:50,2020-11-02 14:21:20,2,D7:F2:3B:06:4D:C8,4,4,14095.48267207562,31465.972594590996,1792.0203452149835
4102,3861,22241,14869,-13071,-22515,19684,-11055,13280,-9747,4,1,63797,2020-11-02 14:20:50,2020-11-02 14:21:20,2,D7:F2:3B:06:4D:C8,4,4,14524.334479261242,22777.784744420747,934.2339489531751
4103,2047,-9245,-10740,16379,-15614,7140,31018,16606,-18912,4,1,63823,2020-11-02 14:20:50,2020-11-02 14:21:20,2,D7:F2:3B:06:4D:C8,4,4,-6218.127508687118,12165.54817506584,-4282.775021625663
4104,16900,-26388,-27638,-29442,12295,-9748,7970,23265,-18648,4,1,63848,2020-11-02 14:20:50,2020-11-02 14:21:20,2,D7:F2:3B:06:4D:C8,4,4,-15618.589305849455,-11316.422415390218,37064.72500655656
4105,31739,17900,20490,-29180,-24056,6125,23070,21988,-8660,4,1,63874,2020-11-02 14:20:50,2020-11-02 14:21:20,2,D7:F2:3B:06:4D:C8,4,4,-15827.944591634136,31695.99361766824,22191.313156117954
4106,-5899,13296,-21750,-4339,17924,15094,-21218,29926,7726,4,1,63899,2020-11-02 14:20:50,2020-11-02 14:21:20,2,D7:F2:3B:06:4D:C8,4,4,2570.9562902205435,-26038.969546995057,-81.02891113411806
4107,-31250,30702,10758,10264,-2049,-4865,9249,8167,-16594,4,1,63925,2020-11-02 14:20:50,2020-11-02 14:21:20,2,D7:F2:3B:06:4D:C8,4,4,2796.5590321995987,-11997.958820694892,43395.139240660734
4108,-25619,-12569,-28675,-29663,-778,-31476,-27353,-795,-21204,4,1,63950,2020-11-02 14:20:50,2020-11-02 14:21:20,2,D7:F2:3B:06:4D:C8,4,4,29584.49915604648,-26002.210675976934,9230.980264738724
4109,10999,18907,-8465,-2265,26100,28443,9014,-2077,22819,4,1,63979,2020-11-02 14:20:50,2020-11-02 14:21:20,2,D7:F2:3B:06:4D:C8,4,4,-13335.743444830838,-15612.85304091259,11336.032890589096
4110,-20458,15830,24801,-27866,27648,-2265,194,-1565,11024,4,1,64002,2020-11-02 14:20:50,2020-11-02 14:21:20,2,D7:F2:3B:06:4D:C8,4,4,-24373.990262959407,-8661.827905307297,24801.0
4111,-29644,10728,6360,6684,31754,22304,13011,26599,3331,4,1,64027,2020-11-02 14:20:50,2020-11-02 14:21:20,2,D7:F2:3B:06:4D:C8,4,4,13997.070981082561,-10247.55489708908,-27080.91472941197
4112,4904,-24074,-3886,4108,1286,6669,17113,-23,15615,4,1,64053,2020-11-02 14:20:50,2020-11-02 14:21:20,2,D7:F2:3B:06:4D:C8,4,4,-14363.445277786717,-1180.3644028948656,-20273.279646579263
4113,15389,-8460,-16937,20220,-7168,14088,218,18923,-28674,4,1,64078,2020-11-02 14:20:50,2020-11-02 14:21:20,2,D7:F2:3B:06:4D:C8,4,4,3112.9124672409644,-19300.960617363948,14595.807110888447
4114,-8414,-4106,20449,20978,7170,-29946,-32552,22764,20990,4,1,64104,2020-11-02 14:20:50,2020-11-02 14:21:20,2,D7:F2:3B:06:4D:C8,4,4,-5575.155851659078,21778.473613544324,-657.2345805457762
4115,28968,-26635,11496,2795,-28154,16385,29142,-24596,17149,4,1,64129,2020-11-02 14:20:50,2020-11-02 14:21:20,2,D7:F2:3B:06:4D:C8,4,4,-4345.125204419461,1159.5907346155104,-40749.25154264938
4116,27177,11761,-28939,-26650,8716,31226,8916,-22549,28923,4,1,64155,2020-11-02 14:20:50,2020-11-02 14:21:20,2,D7:F2:3B:06:4D:C8,4,4,22042.36700541381,33733.306540382255,9517.050890441229
4117,-5341,-24339,20731,-2077,-2030,-27918,20434,10729,-23304,4,1,64181,2020-11-02 14:20:50,2020-11-02 14:21:20,2,D7:F2:3B:06:4D:C8,4,4,-957.583854790666,-31278.76718185401,-8450.403525537498
4118,31486,3046,-27382,9444,18449,-1289,22737,12262,-2828,4,1,64206,2020-11-02 14:20:50,2020-11-02 14:21:20,2,D7:F2:3B:06:4D:C8,4,4,11937.275105271296,848.6309160503274,-40089.917992300674
4119,3110,-529,23309,26346,-27114,-2586,-18733,1507,-28434,4,1,64232,2020-11-02 14:20:50,2020-11-02 14:21:20,2,D7:F2:3B:06:4D:C8,4,4,-4918.574291232451,-138.734623443773,-23001.082618996115
4120,19976,-28703,32512,-25619,-19449,6629,11722,-25890,23285,4,1,64257,2020-11-02 14:20:50,2020-11-02 14:21:20,2,D7:F2:3B:06:4D:C8,4,4,14804.887224179145,44095.57435514128,10785.572102097485
4121,-31239,-12568,-14840,-20494,-20719,15341,-3304,9951,-13264,4,1,64283,2020-11-02 14:20:50,2020-11-02 14:21:20,2,D7:F2:3B:06:4D:C8,4,4,792.4901212684608,31932.500889139425,18268.625875330687
4122,31495,-29200,27411,-28419,-9972,6899,-8942,15074,-14539,4,-1,64309,2020-11-02 14:20:50,2020-11-02 14:21:20,2,D7:F2:3B:06:4D:C8,4,4,-2820.013367216252,-23676.654167061453,-45026.67562747769
4123,-512,-5136,22534,13066,-22527,-1039,26389,25316,52,4,-1,64334,2020-11-02 14:20:50,2020-11-02 14:21:20,2,D7:F2:3B:06:4D:C8,4,4,8540.120811767292,20410.901066024366,6699.496264151849
4124,-15871,-30478,-21495,-21487,3582,30451,18714,742,5681,4,-1,64360,2020-11-02 14:20:50,2020-11-02 14:21:20,2,D7:F2:3B:06:4D:C8,4,4,-15871.0,33206.36588463522,16978.833108777944
4125,-19208,10228,-9984,-10469,-2307,15353,30239,18151,24623,4,-1,64385,2020-11-02 14:20:50,2020-11-02 14:21:20,2,D7:F2:3B:06:4D:C8,4,4,-16313.445592972063,-8679.73468327674,15224.099405648372
4126,13811,-30222,-27146,-19935,-28931,2055,-8668,3047,-17874,4,-1,64411,2020-11-02 14:20:50,2020-11-02 14:21:20,2,D7:F2:3B:06:4D:C8,4,4,-19200.681134240964,36830.56941373857,10763.889707767727
4127,29423,-20763,14832,-6360,-17419,-28907,-7378,5349,10282,4,-1,64436,2020-11-02 14:20:50,2020-11-02 14:21:20,2,D7:F2:3B:06:4D:C8,4,4,14835.041042315486,25440.678886956153,25485.225858202604
4128,18184,-20017,-20760,-12755,-30464,1065,6725,8931,-1255,4,-1,64462,2020-11-02 14:20:50,2020-11-02 14:21:20,2,D7:F2:3B:06:4D:C8,4,4,-13787.155774126399,6653.706388049377,-30462.40752077229
4129,24118,20961,29390,-6625,30993,-23765,31443,-12059,3588,4,-1,64488,2020-11-02 14:20:50,2020-11-02 14:21:20,2,D7:F2:3B:06:4D:C8,4,4,659.5999836891351,34128.62750184433,26825.645522556813
4130,25144,31742,-2355,32515,-11512,26639,-4646,29673,1278,4,-1,64513,2020-11-02 14:20:50,2020-11-02 14:21:20,2,D7:F2:3B:06:4D:C8,4,4,9390.668658119052,31742.0,23443.167515364054
4131,-1515,-4113,17374,-3090,2053,-24830,10714,4842,-4,4,-1,64539,2020-11-02 14:20:50,2020-11-02 14:21:20,2,D7:F2:3B:06:4D:C8,4,4,-1515.0,-16841.98027408805,5926.242101638181
4132,5401,27888,-16651,10473,8969,-22779,-28968,-25110,-12806,4,-1,64564,2020-11-02 14:20:50,2020-11-02 14:21:20,2,D7:F2:3B:06:4D:C8,4,4,16246.420082649665,-21879.275173345006,-18480.2136997148
4133,-27100,15860,15096,32235,-14583,12034,21975,-8214,16632,4,-1,64590,2020-11-02 14:20:50,2020-11-02 14:21:20,2,D7:F2:3B:06:4D:C8,4,4,17857.959041298345,3829.0148889869342,-29669.35725389458
4134,27945,-12301,-30219,-15125,-14327,-18183,10454,-1047,-3595,4,-1,64616,2020-11-02 14:20:50,2020-11-02 14:21:20,2,D7:F2:3B:06:4D:C8,4,4,27945.0,18782.15302542584,-26678.32996515125
4135,20774,3056,10999,-22298,-25339,28914,25555,232,2293,4,-1,64641,2020-11-02 14:20:50,2020-11-02 14:21:20,2,D7:F2:3B:06:4D:C8,4,4,20774.0,6326.535740532705,-9502.214611539897
4136,2847,25578,-4608,-2845,27392,-6676,-4660,-25371,-28937,4,-1,64667,2020-11-02 14:20:50,2020-11-02 14:21:20,2,D7:F2:3B:06:4D:C8,4,4,-26044.466851723686,2126.9261330602303,857.3731007978522
4137,-17657,9699,-510,995,26375,-11025,-25917,-30237,-6916,4,-1,64692,2020-11-02 14:20:50,2020-11-02 14:21:20,2,D7:F2:3B:06:4D:C8,4,4,-3740.299712123098,-5194.06727203031,19108.43199315725
4138,-28896,1773,-10751,11739,-32480,-8961,30912,26848,4347,4,-1,64718,2020-11-02 14:20:50,2020-11-02 14:21:20,2,D7:F2:3B:06:4D:C8,4,4,22482.365401205585,-9806.4618220771,-18763.87216165198
4139,32464,17888,-29187,-32548,31274,19708,4095,11232,-23741,4,1,64743,2020-11-02 14:20:50,2020-11-02 14:21:20,2,D7:F2:3B:06:4D:C8,4,4,-8949.340406529378,-17004.857837200183,-43087.31745217695
4140,-19705,-17690,11559,-23549,-23798,20981,11519,-11548,3905,4,1,64769,2020-11-02 14:20:50,2020-11-02 14:21:20,2,D7:F2:3B:06:4D:C8,4,4,27200.591262332266,-3148.9314181591053,-9222.021031382677
4141,-23792,-16156,-8689,-32744,21999,29158,-20470,-3101,-14025,4,1,64795,2020-11-02 14:20:50,2020-11-02 14:21:20,2,D7:F2:3B:06:4D:C8,4,4,23329.585438037484,15488.295035837942,10881.979653176486
4142,21757,17637,21774,5406,11251,13540,11547,-26139,-17366,4,1,64820,2020-11-02 14:20:50,2020-11-02 14:21:20,2,D7:F2:3B:06:4D:C8,4,4,5022.508381213291,28128.90041767755,-21025.6335184703
4143,-27913,-8474,2312,-13016,14333,-9746,-14557,-29464,18983,4,1,64846,2020-11-02 14:20:50,2020-11-02 14:21:20,2,D7:F2:3B:06:4D:C8,4,4,642.7393827395574,-5777.243110664085,28679.259703244777
4144,745,27616,11764,15668,-32262,27131,12587,-279,11303,4,1,64871,2020-11-02 14:20:50,2020-11-02 14:21:20,2,D7:F2:3B:06:4D:C8,4,4,19074.16553292877,-11362.026489997983,20215.60635407744
4145,18154,22238,9952,-2508,32750,10508,15671,-9238,-22750,4,1,64897,2020-11-02 14:20:50,2020-11-02 14:21:20,2,D7:F2:3B:06:4D:C8,4,4,1101.5035589055997,18645.641858299074,23963.835118815266
4146,524,-29211,-4912,549,18450,-13539,32579,32745,15388,4,1,64922,2020-11-02 14:20:50,2020-11-02 14:21:20,2,D7:F2:3B:06:4D:C8,4,4,22377.555717593525,-17665.78777083091,8052.936330429942
4147,-13278,-30985,-30512,6155,-23002,9246,13510,29925,-12786,4,1,64948,2020-11-02 14:20:50,2020-11-02 14:21:20,2,D7:F2:3B:06:4D:C8,4,4,32343.961585565332,-26982.090907575977,-17122.86693888556
4148,-9437,-19461,-29740,25594,-23539,-22514,13010,31973,-5119,4,1,64999,2020-11-02 14:20:50,2020-11-02 14:21:20,2,D7:F2:3B:06:4D:C8,4,4,2424.202587043077,35141.13905983971,-10558.346338038991
4149,18966,30708,-1059,-14609,13053,-3834,-8239,-27930,8704,4,1,65001,2020-11-02 14:20:50,2020-11-02 14:21:20,2,D7:F2:3B:06:4D:C8,4,4,-30709.585517492946,-18768.640486303357,2910.56569066602
4150,-21731,-2572,17386,-18199,-27389,-2552,-24369,-15385,9471,4,1,65025,2020-11-02 14:20:50,2020-11-02 14:21:20,2,D7:F2:3B:06:4D:C8,4,4,21082.840557427902,11593.513016346467,-14220.718370387556
4151,27172,22772,-22797,18405,16917,14343,27856,-23577,-5639,4,1,65050,2020-11-02 14:20:50,2020-11-02 14:21:20,2,D7:F2:3B:06:4D:C8,4,4,-19526.267876914317,-32137.599019841007,-19039.02227108572
4152,-4827,-26897,-9219,-21533,11540,28927,-5678,24038,26610,4,1,65076,2020-11-02 14:20:50,2020-11-02 14:21:20,2,D7:F2:3B:06:4D:C8,4,4,-26978.499222510734,9913.053936302234,2372.8548958902693
4153,9755,12011,13095,-1815,15874,-19466,5073,-3612,12272,4,1,65102,2020-11-02 14:20:50,2020-11-02 14:21:20,2,D7:F2:3B:06:4D:C8,4,4,-14981.083784120638,3871.8567449167986,13095.0
4154,29988,-6922,4104,-27914,-27904,25063,7371,-1822,4085,4,1,65127,2020-11-02 14:20:50,2020-11-02 14:21:20,2,D7:F2:3B:06:4D:C8,4,4,29988.0,-7193.36948287087,-3607.2614935574143
4155,-1789,-21014,3856,-21004,-11264,32745,30651,30945,27395,4,1,65153,2020-11-02 14:20:50,2020-11-02 14:21:20,2,D7:F2:3B:06:4D:C8,4,4,11934.886936155403,17281.003005582,4310.784376682853
4156,21261,-24845,-20219,7416,-21743,-32009,-14022,19936,-26609,4,-1,65178,2020-11-02 14:20:50,2020-11-02 14:21:20,2,D7:F2:3B:06:4D:C8,4,4,16987.18973704439,-7358.797529354868,-33695.63162725422
4157,24071,14837,-27644,-31750,-31725,-26377,-31456,-13089,1833,4,-1,65204,2020-11-02 14:20:50,2020-11-02 14:21:20,2,D7:F2:3B:06:4D:C8,4,4,-15823.84569631486,30717.198494505687,19230.183827211724
4158,14861,-4364,-15610,-15871,-30201,-25869,27928,-12063,49,4,-1,65229,2020-11-02 14:20:50,2020-11-02 14:21:20,2,D7:F2:3B:06:4D:C8,4,4,-18465.38648056111,-8961.186190307957,7892.563663737213
4159,-22013,-31245,-4604,-12025,-4098,-1808,-29925,-5149,-23506,4,-1,65255,2020-11-02 14:20:50,2020-11-02 14:21:20,2,D7:F2:3B:06:4D:C8,4,4,17755.018679575725,-13751.996546399369,-31267.569663722454
4160,-16380,-13839,-1266,16404,-11778,-22799,28191,-2331,-11988,4,-1,65281,2020-11-02 14:20:50,2020-11-02 14:21:20,2,D7:F2:3B:06:4D:C8,4,4,14170.575528365942,11528.636849236147,11300.902556579751
4161,6397,-23570,3074,29729,30975,-20236,13348,-12313,22572,4,-1,65306,2020-11-02 14:20:50,2020-11-02 14:21:20,2,D7:F2:3B:06:4D:C8,4,4,-18799.007326780746,-4404.563263716393,15268.042801340449
4162,5624,-8983,-3337,-13016,-23039,-6405,-23767,-13848,-11732,4,-1,65332,2020-11-02 14:20:50,2020-11-02 14:21:20,2,D7:F2:3B:06:4D:C8,4,4,6862.308777254453,-5183.869419070395,7035.300284397479
4163,-20751,-27931,-5654,-4565,23807,-17914,29232,25832,-23764,4,-1,65358,2020-11-02 14:20:50,2020-11-02 14:21:20,2,D7:F2:3B:06:4D:C8,4,4,13689.422683370442,4566.000508160388,-32163.081692454496
4164,-32513,14317,2000,-21982,-7681,21266,24890,12775,25384,4,-1,65383,2020-11-02 14:20:50,2020-11-02 14:21:20,2,D7:F2:3B:06:4D:C8,4,4,-7563.807301827247,3243.8203656541245,34617.02047456124
4165,5908,1531,10434,26634,-9983,-8941,5700,11750,18721,4,-1,65409,2020-11-02 14:20:50,2020-11-02 14:21:20,2,D7:F2:3B:06:4D:C8,4,4,-7174.725693607191,-523.7440223752333,-9714.205290219012
4166,-9195,17654,-13360,12529,-28407,15889,-68,-11547,24346,4,-1,65434,2020-11-02 14:20:50,2020-11-02 14:21:20,2,D7:F2:3B:06:4D:C8,4,4,2918.8411011522157,-23629.10503254707,-2801.26810339232
4167,-31720,24303,-6428,20195,8726,25619,-24382,5860,26896,4,-1,65460,2020-11-02 14:20:50,2020-11-02 14:21:20,2,D7:F2:3B:06:4D:C8,4,4,-9565.456887833989,5785.435236925366,38899.153803731155
4168,-9439,-14,13811,-4896,4372,-10481,-32565,-1310,14082,4,-1,65485,2020-11-02 14:20:50,2020-11-02 14:21:20,2,D7:F2:3B:06:4D:C8,4,4,15974.086258945155,-3069.880607001799,3904.233503587334
4169,-25051,-26890,-2053,-14365,-12530,-11769,8658,-6430,-22282,4,1,65511,2020-11-02 14:20:50,2020-11-02 14:21:20,2,D7:F2:3B:06:4D:C8,4,4,-8180.44680754854,11764.497603328464,-33904.518816378266
4170,-6108,-20749,-2560,741,22788,30977,-14637,-10270,-24080,4,1,0,2020-11-02 14:20:50,2020-11-02 14:21:20,2,D7:F2:3B:06:4D:C8,4,4,8347.34146461665,-19313.45728085405,5629.7889244373355
4171,16172,29681,-14834,28903,-29709,-8969,4044,-5918,-28172,4,1,26,2020-11-02 14:20:50,2020-11-02 14:21:20,2,D7:F2:3B:06:4D:C8,4,4,-36333.0702040467,-3341.334234232565,5593.424361065317
4172,-22237,-21520,-2791,5617,31479,-2832,11200,25571,-4099,4,1,52,2020-11-02 14:20:50,2020-11-02 14:21:20,2,D7:F2:3B:06:4D:C8,4,4,29380.84343019411,-9278.760103683528,-4006.8566568708698
4173,-29682,-23314,-14823,-11781,20994,-8719,3396,6371,-17147,4,1,77,2020-11-02 14:20:50,2020-11-02 14:21:20,2,D7:F2:3B:06:4D:C8,4,4,-9334.856824187773,35626.460200906484,16967.640691184548
4174,-5875,-23820,-12789,32260,-13820,-11532,4414,-25886,13324,4,1,103,2020-11-02 14:20:50,2020-11-02 14:21:20,2,D7:F2:3B:06:4D:C8,4,4,24089.17581491331,4603.602019526248,12805.66292715881
4175,15,24823,15102,11525,-17148,24566,11577,-9502,11538,4,1,128,2020-11-02 14:20:50,2020-11-02 14:21:20,2,D7:F2:3B:06:4D:C8,4,4,27579.596801577907,-2441.0464091521535,8812.439542530727
4176,-29681,22776,20733,1282,25607,4598,18995,-2846,-13544,4,1,154,2020-11-02 14:20:50,2020-11-02 14:21:20,2,D7:F2:3B:06:4D:C8,4,4,-10811.706767477946,37589.74408217902,-17311.3651284455
4177,-17906,-17674,11780,16130,11781,-9997,7470,-12829,30750,4,1,180,2020-11-02 14:20:50,2020-11-02 14:21:20,2,D7:F2:3B:06:4D:C8,4,4,-14354.365436293778,-20084.03651476997,-12741.553366631604
4178,-16123,4848,23823,23047,-12544,7410,1835,23013,-32734,4,1,205,2020-11-02 14:20:50,2020-11-02 14:21:20,2,D7:F2:3B:06:4D:C8,4,4,-6773.667614721655,-5807.733242856675,-27773.678611683554
4179,8442,-785,-31473,5142,8958,-26634,15404,-1306,-18397,4,1,231,2020-11-02 14:20:50,2020-11-02 14:21:20,2,D7:F2:3B:06:4D:C8,4,4,-4272.798985280858,-29846.6611715549,12383.590906590052
4180,32503,-8984,-29444,-14812,31225,19452,-15823,9960,-1246,4,1,256,2020-11-02 14:20:50,2020-11-02 14:21:20,2,D7:F2:3B:06:4D:C8,4,4,34746.09718000551,-23034.690255915848,-16316.193691288057
4181,-5642,10728,23280,29990,24830,-23291,13113,30696,21025,4,1,282,2020-11-02 14:20:50,2020-11-02 14:21:20,2,D7:F2:3B:06:4D:C8,4,4,5265.36342291981,25141.42209740849,-5391.23278522809
4182,24324,19940,-11788,11552,-9211,-4593,-15551,19687,-19427,4,1,307,2020-11-02 14:20:50,2020-11-02 14:21:20,2,D7:F2:3B:06:4D:C8,4,4,23003.69883906095,22488.09786962599,9660.890948970939
