id,accelerationx,accelerationy,accelerationz,angularvelocityx,angularvelocityy,angularvelocityz,pitch,roll,yaw,mdlcircle_id,hallsensor,timestamp,starttime,endtime,train_mode,blemac,training_id,training_handle_id,accelerationWorldx,accelerationWorldy,accelerationWorldz
50685,25866,10750,-31758,13824,-1793,4864,-11457,8174,29626,44,1,17484,2020-11-02 15:08:19,2020-11-02 15:08:49,1,D7:F2:3B:06:4D:C8,44,44,-22346.66952316244,1810.5272486357235,-35923.96654469702
50686,-8438,3073,28659,21248,256,3072,-5825,8686,27066,44,1,17509,2020-11-02 15:08:19,2020-11-02 15:08:49,1,D7:F2:3B:06:4D:C8,44,44,15392.83711438392,-21612.27915426366,14069.520579189095
50687,-17650,-23294,19184,29952,12800,0,1088,7662,25530,44,1,17535,2020-11-02 15:08:19,2020-11-02 15:08:49,1,D7:F2:3B:06:4D:C8,44,44,-21947.217089795988,10226.201446816105,25217.122317633766
50688,-759,-10755,21235,-28928,2816,-18433,5440,8174,27066,44,1,17561,2020-11-02 15:08:19,2020-11-02 15:08:49,1,D7:F2:3B:06:4D:C8,44,44,-19551.078655771707,-6182.734725246945,12111.99594257914
50689,-10996,25858,2803,-16896,9472,24063,10304,8686,31930,44,1,17586,2020-11-02 15:08:19,2020-11-02 15:08:49,1,D7:F2:3B:06:4D:C8,44,44,15005.385918503282,-9788.17443955481,21827.39158895605
50690,27912,2813,-32523,-24319,-29185,-30722,13888,15342,-21830,44,1,17612,2020-11-02 15:08:19,2020-11-02 15:08:49,1,D7:F2:3B:06:4D:C8,44,44,1021.2459061068221,-28543.995058528726,-32077.026746535405
50691,-2811,31235,-11019,2819,12542,4350,26176,30190,-1350,44,1,17637,2020-11-02 15:08:19,2020-11-02 15:08:49,1,D7:F2:3B:06:4D:C8,44,44,14963.722538303922,-28755.76519347298,-7357.872174379159
50692,-24320,768,-2318,-28926,4602,-30465,-10688,11503,-582,44,1,17663,2020-11-02 15:08:19,2020-11-02 15:08:49,1,D7:F2:3B:06:4D:C8,44,44,8394.23489994483,-1535.5775718779728,22904.239126530567
50693,-13056,29444,-26383,-32766,3064,30979,-21695,20976,19130,44,1,17689,2020-11-02 15:08:19,2020-11-02 15:08:49,1,D7:F2:3B:06:4D:C8,44,44,-11225.540885568716,34804.967493305456,-19901.568546634087
50694,22526,-9987,-2835,-18173,-262,18185,9539,10225,22853,44,1,17714,2020-11-02 15:08:19,2020-11-02 15:08:49,1,D7:F2:3B:06:4D:C8,44,44,-3347.4271573960114,3518.024476110663,-24323.163963831143
50695,-4096,23039,23790,-1276,32764,-6899,21061,-23823,-4286,44,1,17740,2020-11-02 15:08:19,2020-11-02 15:08:49,1,D7:F2:3B:06:4D:C8,44,44,-12686.264078532906,-26165.682120921905,16369.25837894293
50696,9473,8955,-3092,11269,-32007,25359,11707,29682,6464,44,1,17765,2020-11-02 15:08:19,2020-11-02 15:08:49,1,D7:F2:3B:06:4D:C8,44,44,-2663.6514554012992,-5841.975236112531,11758.677828088772
50697,-19709,11262,20968,-14334,-26639,28686,8893,27124,-24259,44,1,17791,2020-11-02 15:08:19,2020-11-02 15:08:49,1,D7:F2:3B:06:4D:C8,44,44,10619.417844240557,5388.6812402031255,-28515.33671799981
50698,21760,13308,32737,-20226,-25365,-4082,-1859,-25865,-13765,44,-1,17816,2020-11-02 15:08:19,2020-11-02 15:08:49,1,D7:F2:3B:06:4D:C8,44,44,7709.682944592194,-15133.132307560056,-37866.35351411258
50699,-16638,-5125,-29474,-26886,-27668,-29932,-67,12027,-27591,44,-1,17842,2020-11-02 15:08:19,2020-11-02 15:08:49,1,D7:F2:3B:06:4D:C8,44,44,16870.944083132053,-11692.874123389689,27394.402447916167
50700,-26104,-15371,32222,32249,-10255,5657,30909,20222,29238,44,-1,17868,2020-11-02 15:08:19,2020-11-02 15:08:49,1,D7:F2:3B:06:4D:C8,44,44,33734.73980966413,-20484.83962711619,-19957.014216199586
50701,-18673,-15374,-1314,-31751,25849,-12266,-24900,16896,307,44,-1,17894,2020-11-02 15:08:19,2020-11-02 15:08:49,1,D7:F2:3B:06:4D:C8,44,44,-2028.0554554332894,11043.555505991788,21463.789829752008
50702,-22001,-21774,2528,16120,30720,-26098,-30533,-16896,18992,44,-1,17919,2020-11-02 15:08:19,2020-11-02 15:08:49,1,D7:F2:3B:06:4D:C8,44,44,-26000.553632916664,12393.850835230049,-11614.884125805618
50703,-25079,16117,-19486,-19467,32517,21511,10170,7936,-15570,44,-1,17944,2020-11-02 15:08:19,2020-11-02 15:08:49,1,D7:F2:3B:06:4D:C8,44,44,27404.449556106185,-447.34308266414837,22742.3427705508
50704,-16637,9974,23266,-19470,13320,-31739,2117,-2306,-7379,44,-1,17970,2020-11-02 15:08:19,2020-11-02 15:08:49,1,D7:F2:3B:06:4D:C8,44,44,-596.1778602542818,19388.5279729778,23266.0
50705,28423,2037,15588,-20752,1036,-765,-5822,24829,20269,44,-1,17996,2020-11-02 15:08:19,2020-11-02 15:08:49,1,D7:F2:3B:06:4D:C8,44,44,21412.165658475962,-17413.3951092963,17125.853981087137
50706,-4090,-9739,13287,-16398,-18926,22525,-17600,-6150,-16339,44,-1,18021,2020-11-02 15:08:19,2020-11-02 15:08:49,1,D7:F2:3B:06:4D:C8,44,44,7266.680711783278,-11796.37562410915,-9806.195162646944
50707,25858,-3082,-30486,26100,-6125,-22537,29758,21496,-24785,44,-1,18047,2020-11-02 15:08:19,2020-11-02 15:08:49,1,D7:F2:3B:06:4D:C8,44,44,40043.66174253945,-301.58763697857285,1986.2736836357344
50708,-510,-18184,-27410,13557,1813,9203,-19397,10230,-27854,44,-1,18072,2020-11-02 15:08:19,2020-11-02 15:08:49,1,D7:F2:3B:06:4D:C8,44,44,-26853.13377208713,9467.841971922044,16477.11233842583
50709,-20990,-7435,30708,-24584,7958,5357,27960,-22028,-9418,44,-1,18098,2020-11-02 15:08:19,2020-11-02 15:08:49,1,D7:F2:3B:06:4D:C8,44,44,35973.974061138855,-4018.7206496455965,11338.591781549449
50710,-513,-29710,-27908,17921,-13549,-32284,23605,30452,27452,44,-1,18123,2020-11-02 15:08:19,2020-11-02 15:08:49,1,D7:F2:3B:06:4D:C8,44,44,24334.875099207984,30777.912640993796,11060.63652640758
50711,28408,2799,515,-17908,-20213,32221,1844,21750,6722,44,-1,18149,2020-11-02 15:08:19,2020-11-02 15:08:49,1,D7:F2:3B:06:4D:C8,44,44,-17511.313498673837,-22091.82171789938,-4518.783324713937
50712,240,26606,-11264,17180,28685,-17698,28725,-9480,-13894,44,-1,18175,2020-11-02 15:08:19,2020-11-02 15:08:49,1,D7:F2:3B:06:4D:C8,44,44,-13065.951317389967,-20729.77187604808,-15309.213112978787
50713,14826,-6157,22511,27687,-499,23787,-18631,-19719,-26177,44,-1,18200,2020-11-02 15:08:19,2020-11-02 15:08:49,1,D7:F2:3B:06:4D:C8,44,44,601.2257444302495,-14881.42029716594,23294.761289683393
50714,31721,-19717,-16407,-7394,3839,-26629,-20930,-3591,32705,44,-1,18226,2020-11-02 15:08:19,2020-11-02 15:08:49,1,D7:F2:3B:06:4D:C8,44,44,25495.69409551107,-25537.82018039763,19025.27009063991
50715,17397,28928,-4884,-26600,18430,19204,-14014,29690,6849,44,-1,18251,2020-11-02 15:08:19,2020-11-02 15:08:49,1,D7:F2:3B:06:4D:C8,44,44,29108.562086994556,14833.74399551188,9797.443610615914
50716,21750,-26113,23015,-18407,-4606,19721,21178,18682,192,44,-1,18277,2020-11-02 15:08:19,2020-11-02 15:08:49,1,D7:F2:3B:06:4D:C8,44,44,-25267.747298933322,22603.797078229585,23135.487850561247
50717,-12806,-5891,29660,11026,-25860,-18157,15038,-15366,-26691,44,-1,18302,2020-11-02 15:08:19,2020-11-02 15:08:49,1,D7:F2:3B:06:4D:C8,44,44,4552.22005606349,32239.44745316796,-4278.835995407542
50718,-8707,252,13525,-27894,11257,-10728,-10816,-24068,27578,44,-1,18328,2020-11-02 15:08:19,2020-11-02 15:08:49,1,D7:F2:3B:06:4D:C8,44,44,1486.053005614157,-15899.187716490222,1951.5261772037838
50719,18945,-3337,-20781,-21246,4348,-28897,3010,-3842,12355,44,-1,18354,2020-11-02 15:08:19,2020-11-02 15:08:49,1,D7:F2:3B:06:4D:C8,44,44,-4849.576305068314,18615.321744770354,-20781.0
50720,-26355,-23049,-20245,4351,-9989,288,-3903,20225,-16578,44,-1,18379,2020-11-02 15:08:19,2020-11-02 15:08:49,1,D7:F2:3B:06:4D:C8,44,44,-30627.267548864525,-11535.100477305738,23761.615906093815
50721,16128,-22552,225,-19964,10245,22048,-9279,-14078,14650,44,-1,18405,2020-11-02 15:08:19,2020-11-02 15:08:49,1,D7:F2:3B:06:4D:C8,44,44,20927.422299126436,-16901.929796447588,6717.401139576433
50722,5893,-20508,20169,-3076,12808,26401,23233,15107,-16844,44,-1,18430,2020-11-02 15:08:19,2020-11-02 15:08:49,1,D7:F2:3B:06:4D:C8,44,44,26204.684378912956,-11632.963182368127,-6331.094549856536
50723,20237,-19224,-7972,-28183,25868,17679,5310,5634,-15056,44,-1,18456,2020-11-02 15:08:19,2020-11-02 15:08:49,1,D7:F2:3B:06:4D:C8,44,44,-25901.89726450143,-10401.445240889057,-7972.0
50724,-4347,31984,-13597,-5923,-25584,22274,-955,-17153,25903,44,-1,18482,2020-11-02 15:08:19,2020-11-02 15:08:49,1,D7:F2:3B:06:4D:C8,44,44,14941.671220349624,-31632.077903630277,1705.632622120257
50725,-7426,3319,13292,-27932,-22763,-9731,18241,-12036,-3537,44,-1,18507,2020-11-02 15:08:19,2020-11-02 15:08:49,1,D7:F2:3B:06:4D:C8,44,44,14629.839022831624,-5161.552243348633,-1471.288416734028
50726,-18177,-516,-7962,-28182,-14062,15868,-28355,-3079,23601,44,-1,18533,2020-11-02 15:08:19,2020-11-02 15:08:49,1,D7:F2:3B:06:4D:C8,44,44,16696.770158658797,9597.302786127151,4813.800421737187
50727,-6142,5887,-30233,5611,-15595,10236,-12487,-31753,23603,44,-1,18558,2020-11-02 15:08:19,2020-11-02 15:08:49,1,D7:F2:3B:06:4D:C8,44,44,-26051.023888353582,15643.334259778523,7940.11773245653
50728,-1810,28672,779,-12815,-21735,-773,-16843,-780,-31946,44,1,18584,2020-11-02 15:08:19,2020-11-02 15:08:49,1,D7:F2:3B:06:4D:C8,44,44,10248.980753597787,-4919.312613077001,-26395.55420761617
50729,-20739,-1799,30197,8959,27919,23554,25396,24562,-1480,44,1,18609,2020-11-02 15:08:19,2020-11-02 15:08:49,1,D7:F2:3B:06:4D:C8,44,44,27463.36325932273,24029.06982474715,-3683.586953488206
50730,19208,-15364,20478,-7683,-28913,31483,-27854,-6160,15675,44,1,18635,2020-11-02 15:08:19,2020-11-02 15:08:49,1,D7:F2:3B:06:4D:C8,44,44,-8117.285379943511,30845.47685923704,2648.486244409759
50731,23553,-13578,12540,1795,9484,-12567,22320,-28175,10559,44,1,18661,2020-11-02 15:08:19,2020-11-02 15:08:49,1,D7:F2:3B:06:4D:C8,44,44,-23999.973002148065,-15774.146449395917,-8457.842082302925
50732,31487,-22028,19453,9734,16645,4321,-3794,32756,3651,44,1,18686,2020-11-02 15:08:19,2020-11-02 15:08:49,1,D7:F2:3B:06:4D:C8,44,44,-9722.282681341429,-22028.0,35711.72913013438
50733,16379,-21262,-8190,-24560,-18175,5086,30767,-21256,14406,44,1,18712,2020-11-02 15:08:19,2020-11-02 15:08:49,1,D7:F2:3B:06:4D:C8,44,44,20434.207471617905,-11284.375282814603,-15573.259918317606
50734,1008,-11276,8185,-32479,258,-1056,-8910,-23556,-11844,44,1,18737,2020-11-02 15:08:19,2020-11-02 15:08:49,1,D7:F2:3B:06:4D:C8,44,44,-3384.0098635742825,-9304.558706036609,-9855.563379591767
50735,-22550,2040,9964,19243,3588,-11025,-13256,-14850,-19777,44,1,18763,2020-11-02 15:08:19,2020-11-02 15:08:49,1,D7:F2:3B:06:4D:C8,44,44,-13533.915428361484,-10223.5181614227,-18007.170948847546
50736,-1035,26107,-6430,-14547,27397,-11013,-15553,-7938,2497,44,1,18789,2020-11-02 15:08:19,2020-11-02 15:08:49,1,D7:F2:3B:06:4D:C8,44,44,17164.86192720524,-16711.12791622538,-12251.420031471165
50737,6652,27901,-12324,-29151,-30970,1025,-11963,5118,15553,44,1,18814,2020-11-02 15:08:19,2020-11-02 15:08:49,1,D7:F2:3B:06:4D:C8,44,44,17979.31644584324,15543.90812647407,-20241.71389225636
50738,13049,-17151,-12578,-12268,-10235,-29947,7869,8445,-22848,44,-1,18840,2020-11-02 15:08:19,2020-11-02 15:08:49,1,D7:F2:3B:06:4D:C8,44,44,10890.02644766917,221.7223078475272,-22449.887509456898
50739,-2056,-3585,30938,-28915,28673,-19442,-13633,8189,-1858,44,-1,18865,2020-11-02 15:08:19,2020-11-02 15:08:49,1,D7:F2:3B:06:4D:C8,44,44,-9201.537366755221,29623.73020015445,-3464.898860957537
50740,28156,6142,-10536,26630,-8703,-18408,28865,-3075,-9285,44,-1,18891,2020-11-02 15:08:19,2020-11-02 15:08:49,1,D7:F2:3B:06:4D:C8,44,44,8177.235527361454,-28209.91004741412,-8878.37768102155
50741,-26882,-15367,-3880,30210,24324,-481,16834,10495,10820,44,-1,18916,2020-11-02 15:08:19,2020-11-02 15:08:49,1,D7:F2:3B:06:4D:C8,44,44,-21816.275976606492,-15611.187822009462,15943.08408992708
50742,-2049,21235,23257,20734,12805,-22236,15810,30208,-9922,44,-1,18943,2020-11-02 15:08:19,2020-11-02 15:08:49,1,D7:F2:3B:06:4D:C8,44,44,-30534.74869017568,-7940.5607416133025,767.0023054491694
50743,15626,1757,8691,26385,31507,-21721,-10814,-4096,-17608,44,-1,18968,2020-11-02 15:08:19,2020-11-02 15:08:49,1,D7:F2:3B:06:4D:C8,44,44,-14303.613678292995,-10384.989374410434,3217.3028199925284
50744,-22512,14828,7131,-17922,20,23834,-10045,-14081,-18126,44,-1,18993,2020-11-02 15:08:19,2020-11-02 15:08:49,1,D7:F2:3B:06:4D:C8,44,44,-15060.8489703096,-16300.648103466807,-16881.0719061459
50745,-22516,13545,980,16615,-23027,-19964,-9023,15614,-1489,44,-1,19019,2020-11-02 15:08:19,2020-11-02 15:08:49,1,D7:F2:3B:06:4D:C8,44,44,-512.4897915178292,8143.036298095692,24996.519658974245
50746,-17915,14313,-6684,-29740,9486,-3591,9660,13820,-10449,44,-1,19044,2020-11-02 15:08:19,2020-11-02 15:08:49,1,D7:F2:3B:06:4D:C8,44,44,19411.14490186651,-5508.353782969157,12780.866253912181
50747,24057,17136,12020,-9759,22549,-28421,-8894,-28167,-1488,44,-1,19070,2020-11-02 15:08:19,2020-11-02 15:08:49,1,D7:F2:3B:06:4D:C8,44,44,-21722.37426075179,19373.101550747357,-13026.263385186805
50748,-16380,-11272,-26130,-8216,-26352,-27653,-20930,-4874,15666,44,-1,19095,2020-11-02 15:08:19,2020-11-02 15:08:49,1,D7:F2:3B:06:4D:C8,44,44,22.46067335363523,-18003.628492589512,27459.208667020463
50749,26373,10489,24303,10989,8209,23286,-24262,3061,-30924,44,-1,19121,2020-11-02 15:08:19,2020-11-02 15:08:49,1,D7:F2:3B:06:4D:C8,44,44,31692.55563994542,18127.62578188427,-7947.399544563503
50750,-8703,-5641,-3599,23022,5393,-30991,16694,3572,1080,44,-1,19147,2020-11-02 15:08:19,2020-11-02 15:08:49,1,D7:F2:3B:06:4D:C8,44,44,-8703.0,5620.045744108059,-3631.634319990505
50751,-11778,2553,28406,-7695,31249,28142,-13263,7156,10812,44,-1,19172,2020-11-02 15:08:19,2020-11-02 15:08:49,1,D7:F2:3B:06:4D:C8,44,44,-30708.96129866179,-1987.0729072347704,2269.618077700764
50752,-1284,8952,17147,2808,-495,-23828,6702,3061,-30912,44,-1,19198,2020-11-02 15:08:19,2020-11-02 15:08:49,1,D7:F2:3B:06:4D:C8,44,44,8833.699550999627,-3952.1228323199894,16797.41189472128
50753,-31748,29174,7940,-13567,4879,-13591,-2517,-8458,-27580,44,-1,19223,2020-11-02 15:08:19,2020-11-02 15:08:49,1,D7:F2:3B:06:4D:C8,44,44,-6499.492836710946,-37107.63301092812,-22425.02051708807
50754,29686,-30731,-26872,27406,19976,2280,21036,-25863,2491,44,1,19249,2020-11-02 15:08:19,2020-11-02 15:08:49,1,D7:F2:3B:06:4D:C8,44,44,-2552.8584449877853,34215.63626961304,-37020.67651225994
50755,25330,27125,8711,16415,-23035,-3091,27695,5884,23997,44,1,19275,2020-11-02 15:08:19,2020-11-02 15:08:49,1,D7:F2:3B:06:4D:C8,44,44,-2951.8521222518975,13621.50159996082,-35482.352081149045
50756,-11794,-26124,-16395,-32464,-16124,-31497,-21963,11773,14271,44,1,19300,2020-11-02 15:08:19,2020-11-02 15:08:49,1,D7:F2:3B:06:4D:C8,44,44,-30992.243343929964,11131.324975523654,2435.630062204047
50757,-14356,23028,14053,31797,29443,-15869,-19139,-3076,-23361,44,1,19326,2020-11-02 15:08:19,2020-11-02 15:08:49,1,D7:F2:3B:06:4D:C8,44,44,25136.088399883523,2740.535144778838,-17162.076100328683
50758,23282,23286,6360,4144,-9212,24336,-6331,23804,-323,44,1,19351,2020-11-02 15:08:19,2020-11-02 15:08:49,1,D7:F2:3B:06:4D:C8,44,44,-2989.586885477687,17933.234957823726,28181.56089008678
50759,25855,2551,-27946,-2528,18698,-3814,-2113,-17413,15290,44,1,19377,2020-11-02 15:08:19,2020-11-02 15:08:49,1,D7:F2:3B:06:4D:C8,44,44,6691.008406706622,-20750.167894425707,31314.988118383913
50760,13831,-24587,-7209,19475,-19964,20508,31172,16892,22594,44,1,19428,2020-11-02 15:08:19,2020-11-02 15:08:49,1,D7:F2:3B:06:4D:C8,44,44,-11725.290266266045,15699.068791208516,-21537.029002643554
50761,13836,24563,-4907,29190,19709,-16615,-25146,25598,-8386,44,1,19430,2020-11-02 15:08:19,2020-11-02 15:08:49,1,D7:F2:3B:06:4D:C8,44,44,-24184.4205068445,14822.571806792062,-3776.199647875135
50762,30986,6897,-26154,20477,-26882,9238,-16954,-21760,8252,44,1,19454,2020-11-02 15:08:19,2020-11-02 15:08:49,1,D7:F2:3B:06:4D:C8,44,44,5500.872006888385,-40760.709715165794,-193.57603111136268
50763,-24053,-18,-19500,6901,5891,-7148,24261,9218,15929,44,1,19479,2020-11-02 15:08:19,2020-11-02 15:08:49,1,D7:F2:3B:06:4D:C8,44,44,14348.46787130116,4082.3526934860984,27133.982369571655
50764,30988,-3092,216,6125,26634,13840,-26686,19970,12342,44,1,19505,2020-11-02 15:08:19,2020-11-02 15:08:49,1,D7:F2:3B:06:4D:C8,44,44,11223.111641658821,-28986.747498908328,-1916.6372931240735
50765,-3575,8175,17375,-7705,14095,-15606,1215,-6400,-20941,44,1,19530,2020-11-02 15:08:19,2020-11-02 15:08:49,1,D7:F2:3B:06:4D:C8,44,44,17540.149582046874,-5757.350655871329,6379.493793770698
50766,-2820,-22037,2286,9452,16145,-27644,-15941,25342,19250,44,1,19556,2020-11-02 15:08:19,2020-11-02 15:08:49,1,D7:F2:3B:06:4D:C8,44,44,10888.109677394732,-12915.059380802377,-14610.197597684011
50767,2045,-25361,-5402,-19469,-32487,19469,-583,4091,-25296,44,1,19581,2020-11-02 15:08:19,2020-11-02 15:08:49,1,D7:F2:3B:06:4D:C8,44,44,17856.566878838283,18124.716971626774,-5402.0
50768,31496,29685,-20499,-14099,-14575,-12031,-25788,-521,21295,44,1,19607,2020-11-02 15:08:19,2020-11-02 15:08:49,1,D7:F2:3B:06:4D:C8,44,44,-30631.886844296256,8295.50595643518,35864.72265729903
50769,-17675,-13067,-1811,11763,-27372,24570,322,13557,29744,44,1,19633,2020-11-02 15:08:19,2020-11-02 15:08:49,1,D7:F2:3B:06:4D:C8,44,44,-10910.933178917401,-9180.784217874785,16825.4739401308
50770,-29188,-11785,17131,16368,7444,18425,-3266,-30734,21554,44,1,19658,2020-11-02 15:08:19,2020-11-02 15:08:49,1,D7:F2:3B:06:4D:C8,44,44,-6403.161449970516,12816.879157165482,32848.498628038215
50771,12546,10230,-27413,-23061,28181,14833,826,-30736,-8907,44,-1,19684,2020-11-02 15:08:19,2020-11-02 15:08:49,1,D7:F2:3B:06:4D:C8,44,44,-3671.8319789366087,24652.384279506638,-19806.695440027157
50772,26359,-26645,28400,8931,-31213,-10019,-3791,26608,-15556,44,-1,19709,2020-11-02 15:08:19,2020-11-02 15:08:49,1,D7:F2:3B:06:4D:C8,44,44,-8113.9494906349155,46298.57760456504,1385.0781412951
50773,-21506,-32008,-10484,8171,-30960,-12304,-6102,21746,-1983,44,-1,19735,2020-11-02 15:08:19,2020-11-02 15:08:49,1,D7:F2:3B:06:4D:C8,44,44,24292.298737073892,-26115.978010953404,-18021.494682743614
50774,29432,-30992,-14834,13317,23057,28390,-8921,-6668,-4027,44,-1,19761,2020-11-02 15:08:19,2020-11-02 15:08:49,1,D7:F2:3B:06:4D:C8,44,44,701.8251019426525,-29227.429652105726,34526.20803762693
50775,3569,18937,8963,26138,20242,-5907,-2776,27127,9149,44,-1,19786,2020-11-02 15:08:19,2020-11-02 15:08:49,1,D7:F2:3B:06:4D:C8,44,44,-20860.372300314066,2560.7922860374147,-3157.5796680465587
50776,-4623,15105,-26120,-8672,-23043,29680,10029,31481,4287,44,-1,19812,2020-11-02 15:08:19,2020-11-02 15:08:49,1,D7:F2:3B:06:4D:C8,44,44,33.30717530370566,30140.488453320504,-4830.879881276957
50777,7410,-12542,-16140,17696,-17418,-2318,5682,11260,7103,44,-1,19837,2020-11-02 15:08:19,2020-11-02 15:08:49,1,D7:F2:3B:06:4D:C8,44,44,5378.874827570224,-14835.829524744497,-14955.779214138289
50778,-19465,15868,32497,23592,22013,-8458,-24265,-1795,-26177,44,-1,19863,2020-11-02 15:08:19,2020-11-02 15:08:49,1,D7:F2:3B:06:4D:C8,44,44,39185.39870815937,8124.029630853658,-9232.514751658591
50779,-15121,6393,-14879,32050,15106,-1029,-6082,25086,-26432,44,-1,19888,2020-11-02 15:08:19,2020-11-02 15:08:49,1,D7:F2:3B:06:4D:C8,44,44,-6237.146180498263,21091.58797622491,-2672.574632121751
50780,-11796,-30470,18646,32293,17660,-10482,-13243,-28418,-28225,44,-1,19914,2020-11-02 15:08:19,2020-11-02 15:08:49,1,D7:F2:3B:06:4D:C8,44,44,-37334.77130082974,-2110.7921869434176,-4110.8685527852185
50781,2810,-13314,24280,10522,-28930,-3304,-8003,32511,18620,44,-1,19940,2020-11-02 15:08:19,2020-11-02 15:08:49,1,D7:F2:3B:06:4D:C8,44,44,20432.27611129127,-16283.692690269341,9593.776174209244
50782,8702,250,6365,-7664,8194,24093,-6976,15104,-17852,44,-1,19967,2020-11-02 15:08:19,2020-11-02 15:08:49,1,D7:F2:3B:06:4D:C8,44,44,1453.5360182093286,-5339.348932760295,-9256.301368149141
50783,-9,-25614,31191,25611,5372,-26587,-16702,30210,576,44,-1,19991,2020-11-02 15:08:19,2020-11-02 15:08:49,1,D7:F2:3B:06:4D:C8,44,44,-9889.741448989245,39021.08111143834,2916.1277349756037
50784,23045,22768,7384,7939,16896,-25301,-22078,23557,6714,44,-1,20016,2020-11-02 15:08:19,2020-11-02 15:08:49,1,D7:F2:3B:06:4D:C8,44,44,14254.280612107346,-17589.329853806223,24318.886991910258
50785,-9978,-7953,29397,1015,-13045,12062,-27968,11782,22836,44,-1,20042,2020-11-02 15:08:19,2020-11-02 15:08:49,1,D7:F2:3B:06:4D:C8,44,44,21010.835416138783,14226.618911691732,19574.02389539318
50786,22802,10234,-16906,5363,30734,32018,-25667,-16380,13616,44,-1,20068,2020-11-02 15:08:19,2020-11-02 15:08:49,1,D7:F2:3B:06:4D:C8,44,44,5509.728939349399,-26709.554274254057,12912.063873973533
50787,-11519,-7183,-4381,7667,6922,-23543,-22597,9987,22318,44,-1,20093,2020-11-02 15:08:19,2020-11-02 15:08:49,1,D7:F2:3B:06:4D:C8,44,44,787.6821847835167,-6670.784967273673,12583.965817506429
50788,18435,-32526,-25117,11506,-17398,6,7494,-16639,7725,44,-1,20119,2020-11-02 15:08:19,2020-11-02 15:08:49,1,D7:F2:3B:06:4D:C8,44,44,12972.067441794225,26794.207858751855,33800.1402586963
50789,-11268,9463,29678,-13579,32528,-4608,16708,-27393,-12244,44,-1,20144,2020-11-02 15:08:19,2020-11-02 15:08:49,1,D7:F2:3B:06:4D:C8,44,44,-30004.57480235673,8749.42103851381,10976.01928845754
50790,-11524,19703,17892,15098,-10990,-28928,27971,-16388,1837,44,-1,20170,2020-11-02 15:08:19,2020-11-02 15:08:49,1,D7:F2:3B:06:4D:C8,44,44,28988.690110819665,661.9699841737056,593.3720577507702
50791,-23810,4343,15079,19186,-5358,12539,-20927,1786,-8659,44,-1,20196,2020-11-02 15:08:19,2020-11-02 15:08:49,1,D7:F2:3B:06:4D:C8,44,44,-14691.92687827952,18862.109706186664,-15540.98105124212
50792,-9221,18165,-28185,-25107,-3565,15607,-22210,28663,-10961,44,-1,20221,2020-11-02 15:08:19,2020-11-02 15:08:49,1,D7:F2:3B:06:4D:C8,44,44,-33021.13676030384,10782.199664860205,-1654.3846119929212
50793,-14850,-26635,-12823,7141,9749,30959,-15047,-30475,14899,44,-1,20247,2020-11-02 15:08:19,2020-11-02 15:08:49,1,D7:F2:3B:06:4D:C8,44,44,-9517.586261252121,22180.071549468506,22623.771388079454
50794,-26113,23286,-8723,23006,3349,-29975,-16078,12021,15160,44,-1,20272,2020-11-02 15:08:19,2020-11-02 15:08:49,1,D7:F2:3B:06:4D:C8,44,44,18140.231157914102,2708.9745184092635,31045.301811965877
50795,-32260,-18702,-13572,-20003,12050,-16411,23339,2039,4157,44,-1,20298,2020-11-02 15:08:19,2020-11-02 15:08:49,1,D7:F2:3B:06:4D:C8,44,44,-32260.0,1953.1195310720686,23024.971489609816
50796,-1031,-7436,25607,-7954,3862,28648,8742,4346,13377,44,-1,20323,2020-11-02 15:08:19,2020-11-02 15:08:49,1,D7:F2:3B:06:4D:C8,44,44,23675.45020336898,9701.406212878828,7578.342903333935
50797,6393,-2054,25610,1542,-19433,1517,-13276,-6404,11589,44,-1,20349,2020-11-02 15:08:19,2020-11-02 15:08:49,1,D7:F2:3B:06:4D:C8,44,44,-26467.558183606987,-180.20118375260154,630.3620632248994
50798,-13070,-16384,-9727,32534,-1011,-16402,3879,23295,-19013,44,-1,20374,2020-11-02 15:08:19,2020-11-02 15:08:49,1,D7:F2:3B:06:4D:C8,44,44,-18057.485470516687,13975.588251800416,-3533.4171135342676
50799,497,10499,-4615,20763,-12798,-4367,3115,31489,21437,44,-1,20400,2020-11-02 15:08:19,2020-11-02 15:08:49,1,D7:F2:3B:06:4D:C8,44,44,-6002.336178387664,-9749.518610769192,-832.5156214052093
50800,21239,17152,-3337,-9187,18432,-12300,-31441,14851,7870,44,-1,20426,2020-11-02 15:08:19,2020-11-02 15:08:49,1,D7:F2:3B:06:4D:C8,44,44,-3946.687688067264,8780.789721757777,-25763.213738878374
50801,-15373,1279,-28944,-8154,30471,-2573,11061,13316,-13889,44,-1,20451,2020-11-02 15:08:19,2020-11-02 15:08:49,1,D7:F2:3B:06:4D:C8,44,44,25622.90560158386,-4199.817344927873,20038.67133323877
50802,-4887,-4355,22248,-29400,-6907,-12803,-11205,6148,23745,44,-1,20477,2020-11-02 15:08:19,2020-11-02 15:08:49,1,D7:F2:3B:06:4D:C8,44,44,5486.048203294187,-18689.350845614263,12587.046439918702
50803,23533,-10747,-31257,-11486,-27136,779,27457,30467,-23104,44,-1,20502,2020-11-02 15:08:19,2020-11-02 15:08:49,1,D7:F2:3B:06:4D:C8,44,44,26126.733358013247,-4807.068097779638,30668.97532267074
50804,-27142,14597,-17695,12064,18435,-19694,8006,6915,14782,44,-1,20528,2020-11-02 15:08:19,2020-11-02 15:08:49,1,D7:F2:3B:06:4D:C8,44,44,-15561.261712342395,-20730.198680152054,24310.071875694008
50805,32766,28161,3803,26134,25604,-27112,10173,-27646,-7750,44,1,20554,2020-11-02 15:08:19,2020-11-02 15:08:49,1,D7:F2:3B:06:4D:C8,44,44,9068.566049140956,8114.723606662099,-41629.65117076828
50806,19708,3319,15576,19471,12541,-23011,25279,-29949,24899,44,1,20579,2020-11-02 15:08:19,2020-11-02 15:08:49,1,D7:F2:3B:06:4D:C8,44,44,11581.068936464246,-1306.4162068811265,-22498.998199547932
50807,28679,-18188,-26663,6152,-23554,18972,10176,5381,-1986,44,1,20605,2020-11-02 15:08:19,2020-11-02 15:08:49,1,D7:F2:3B:06:4D:C8,44,44,28679.0,12609.122528803216,-29710.75465304823
50808,-9214,-2064,-14895,-24322,-24316,18447,-9793,31493,-15301,44,1,20630,2020-11-02 15:08:19,2020-11-02 15:08:49,1,D7:F2:3B:06:4D:C8,44,44,-13841.664784566345,2553.675801678821,-10625.722229176517
50809,-22509,26869,12773,28150,6154,269,4542,-13052,9017,44,1,20681,2020-11-02 15:08:19,2020-11-02 15:08:49,1,D7:F2:3B:06:4D:C8,44,44,-23823.763015156608,12626.254968216124,-25782.81932363592
50810,-32534,-6418,26617,-19716,28938,18185,-10820,17923,-18377,44,1,20683,2020-11-02 15:08:19,2020-11-02 15:08:49,1,D7:F2:3B:06:4D:C8,44,44,-31978.389304777014,-23679.53660305673,-14992.62261035806
50811,3586,-16651,-7706,-16130,-28662,30231,22972,1538,24116,44,1,20707,2020-11-02 15:08:19,2020-11-02 15:08:49,1,D7:F2:3B:06:4D:C8,44,44,1479.324427581465,-6016.03589246073,17638.496091747307
50812,-24566,17654,-27419,22517,2829,-12024,16571,23040,-13519,44,1,20733,2020-11-02 15:08:19,2020-11-02 15:08:49,1,D7:F2:3B:06:4D:C8,44,44,17957.33632412544,-3020.112304559427,-36542.66857811692
50813,24060,-25356,3049,-26383,-10225,-6146,-4283,3582,-32463,44,1,20758,2020-11-02 15:08:19,2020-11-02 15:08:49,1,D7:F2:3B:06:4D:C8,44,44,31139.39609060376,15879.179673789547,3049.0
50814,26110,9975,-12308,-23056,-753,-25092,-25021,-19973,1330,44,1,20784,2020-11-02 15:08:19,2020-11-02 15:08:49,1,D7:F2:3B:06:4D:C8,44,44,-28049.35074124988,2794.629994135451,-11753.448650937438
50815,-18176,-23560,-14104,1260,30224,-9738,-22720,28153,32307,44,-1,20809,2020-11-02 15:08:19,2020-11-02 15:08:49,1,D7:F2:3B:06:4D:C8,44,44,20116.40098648426,7204.91311908691,-25055.598781457695
50816,-18950,-8710,1777,29673,9233,26354,26428,-24073,17718,44,-1,20835,2020-11-02 15:08:19,2020-11-02 15:08:49,1,D7:F2:3B:06:4D:C8,44,44,-17324.282194272524,-4639.702972264959,10791.975342001459
50817,-31489,-12548,-11277,31719,-12784,7920,-30153,-26122,-15815,44,-1,20861,2020-11-02 15:08:19,2020-11-02 15:08:49,1,D7:F2:3B:06:4D:C8,44,44,2828.0308378595155,-11252.938547338505,33786.887539842115
50818,22268,-23814,4093,-11544,-24817,7403,15410,-4362,-7107,44,-1,20886,2020-11-02 15:08:19,2020-11-02 15:08:49,1,D7:F2:3B:06:4D:C8,44,44,17238.782513958562,-15394.287255556552,-23357.297924414237
50819,-18185,14078,10504,10483,20746,21486,13870,24312,26177,44,-1,20912,2020-11-02 15:08:19,2020-11-02 15:08:49,1,D7:F2:3B:06:4D:C8,44,44,-15261.610334247558,5904.9770084380325,-19272.592496480756
50820,-16133,-16127,-15098,3840,6661,-15631,-12500,4346,28483,44,-1,20937,2020-11-02 15:08:19,2020-11-02 15:08:49,1,D7:F2:3B:06:4D:C8,44,44,5234.467503856507,16796.355437906223,20947.224540606527
50821,15615,-21760,-28414,26889,-509,-23057,21037,-8965,4421,44,-1,20963,2020-11-02 15:08:19,2020-11-02 15:08:49,1,D7:F2:3B:06:4D:C8,44,44,-12649.496074258006,25552.020635038756,26678.937601296733
50822,12796,-23300,13306,-22514,3583,11752,6447,-30210,9402,44,-1,20989,2020-11-02 15:08:19,2020-11-02 15:08:49,1,D7:F2:3B:06:4D:C8,44,44,15542.7321814083,-19816.496022690506,-15792.63162743012
50823,-270,24571,-29452,-28147,-5127,-4892,25905,23042,-11077,44,-1,21014,2020-11-02 15:08:19,2020-11-02 15:08:49,1,D7:F2:3B:06:4D:C8,44,44,-32443.202702593295,-20451.53361657551,-632.9424369759417
50824,31726,-2305,-31752,-3827,-31494,22251,-19917,-11259,23997,44,-1,21040,2020-11-02 15:08:19,2020-11-02 15:08:49,1,D7:F2:3B:06:4D:C8,44,44,4599.782910390617,8689.807097339439,43856.25217444268
50825,-12820,-769,28405,15386,-14338,-10767,26167,-505,703,44,-1,21065,2020-11-02 15:08:19,2020-11-02 15:08:49,1,D7:F2:3B:06:4D:C8,44,44,-12820.0,21999.626823665818,-17984.7659317391
50826,-7702,14335,17127,20770,14589,-1799,-9412,1545,17856,44,-1,21091,2020-11-02 15:08:19,2020-11-02 15:08:49,1,D7:F2:3B:06:4D:C8,44,44,4498.1110746690465,-23022.27608875985,-2808.7289746175666
50827,15085,-7425,-6429,13853,-3076,-7675,-25279,-23287,-5185,44,-1,21116,2020-11-02 15:08:19,2020-11-02 15:08:49,1,D7:F2:3B:06:4D:C8,44,44,-10932.590812471202,9718.78712724699,-10490.163292453004
50828,28659,17661,11241,-485,-29182,-26355,6469,23561,4542,44,-1,21142,2020-11-02 15:08:19,2020-11-02 15:08:49,1,D7:F2:3B:06:4D:C8,44,44,-34576.249080737194,83.30368371165241,8005.33216069767
50829,26093,10746,26853,284,-1537,28688,-6469,21513,-32325,44,-1,21168,2020-11-02 15:08:19,2020-11-02 15:08:49,1,D7:F2:3B:06:4D:C8,44,44,-34344.179748431125,-15974.489912567953,-9093.831065107723
50830,-22541,27131,-24099,26393,-26110,20508,20414,-22775,7492,44,1,21193,2020-11-02 15:08:19,2020-11-02 15:08:49,1,D7:F2:3B:06:4D:C8,44,44,29685.804602027867,2815.29037675893,-30590.468911488577
50831,-20485,-2829,7642,-28909,21251,26913,28607,11530,-15810,44,1,21219,2020-11-02 15:08:19,2020-11-02 15:08:49,1,D7:F2:3B:06:4D:C8,44,44,4472.800978143361,-8567.975866454246,19814.703403325962
50832,4357,9973,-25640,-12280,-16126,-22499,959,-7670,22073,44,1,21244,2020-11-02 15:08:19,2020-11-02 15:08:49,1,D7:F2:3B:06:4D:C8,44,44,-25097.32935360326,-6496.276185347677,-10187.0620416511
50833,-23287,9978,-17432,-23810,-20732,26899,23485,-10230,9525,44,1,21270,2020-11-02 15:08:19,2020-11-02 15:08:49,1,D7:F2:3B:06:4D:C8,44,44,8044.012963267632,-23960.35237416892,-17518.985317433202
50834,-6398,-24331,-27679,-15875,-20208,14613,12476,26889,-2511,44,1,21295,2020-11-02 15:08:19,2020-11-02 15:08:49,1,D7:F2:3B:06:4D:C8,44,44,12208.346897314688,35293.71215713657,2090.2521867031746
50835,11268,-2826,-5650,27900,525,17677,-25158,-11513,4399,44,1,21321,2020-11-02 15:08:19,2020-11-02 15:08:49,1,D7:F2:3B:06:4D:C8,44,44,-6102.520472329637,6123.130971050362,9599.120324079779
50836,29699,-18694,-5658,10747,-12786,-29174,-17735,-32507,14893,44,1,21347,2020-11-02 15:08:19,2020-11-02 15:08:49,1,D7:F2:3B:06:4D:C8,44,44,-22896.071349588357,7475.428775485839,-26141.864554335014
50837,6147,20987,-13858,30704,20751,2814,-20412,19715,-13524,44,1,21372,2020-11-02 15:08:19,2020-11-02 15:08:49,1,D7:F2:3B:06:4D:C8,44,44,-18770.011726714445,13613.200283492033,-11517.43807539396
50838,-775,-6918,21727,-27419,-9966,-22536,29249,-16896,5422,44,1,21398,2020-11-02 15:08:19,2020-11-02 15:08:49,1,D7:F2:3B:06:4D:C8,44,44,-11313.734852813592,18872.172716571407,-6030.122605397724
50839,26362,-8709,13287,-5151,-8682,-14090,-1732,5374,21552,44,1,21423,2020-11-02 15:08:19,2020-11-02 15:08:49,1,D7:F2:3B:06:4D:C8,44,44,-24869.168045187558,12342.050305367498,13287.0
50840,-15877,4346,22252,10724,18200,-21773,13112,-10501,-25037,44,1,21449,2020-11-02 15:08:19,2020-11-02 15:08:49,1,D7:F2:3B:06:4D:C8,44,44,19369.16235131018,11296.109773254688,-16228.117660380958
50841,-12036,14325,-25613,5606,5400,-32528,20531,-24582,-14793,44,1,21475,2020-11-02 15:08:19,2020-11-02 15:08:49,1,D7:F2:3B:06:4D:C8,44,44,-21505.126082815495,-21596.75209325749,-8786.725282184867
50842,-11269,-29706,6910,30187,9752,493,-19154,-17414,28220,44,1,21500,2020-11-02 15:08:19,2020-11-02 15:08:49,1,D7:F2:3B:06:4D:C8,44,44,15458.057388195792,-28586.15820501611,1031.948574801725
50843,29433,-24582,13060,-18184,29974,-23830,-16597,764,9025,44,1,21526,2020-11-02 15:08:19,2020-11-02 15:08:49,1,D7:F2:3B:06:4D:C8,44,44,-2698.1211467129306,36710.476813568086,16917.471660923227
50844,-14096,-3844,21766,-1786,4618,26860,-32725,16126,-32444,44,1,21551,2020-11-02 15:08:19,2020-11-02 15:08:49,1,D7:F2:3B:06:4D:C8,44,44,23365.948330508123,1564.6493405018773,11782.047320278922
50845,-10513,-23040,-14335,7442,16642,-24333,-31187,10240,12614,44,1,21577,2020-11-02 15:08:19,2020-11-02 15:08:49,1,D7:F2:3B:06:4D:C8,44,44,4967.77419603178,-28181.848299109963,-5287.876698940105
50846,24051,-13060,-19202,-10212,13566,-17413,17713,18689,4026,44,1,21628,2020-11-02 15:08:19,2020-11-02 15:08:49,1,D7:F2:3B:06:4D:C8,44,44,-21387.729365702537,15639.088400367387,-20389.089032739044
50847,-4876,-25095,-1033,-30423,-13571,-13059,-9674,-6143,2234,44,1,21630,2020-11-02 15:08:19,2020-11-02 15:08:49,1,D7:F2:3B:06:4D:C8,44,44,-19933.964354032854,-14428.125893067525,7004.836782248538
50848,-10514,2041,32751,-22992,-5636,-6913,-1219,32514,-327,44,1,21654,2020-11-02 15:08:19,2020-11-02 15:08:49,1,D7:F2:3B:06:4D:C8,44,44,-34388.15313745281,2041.0,-791.9095877021155
50849,-30481,30966,3296,12331,27653,-245,9797,10242,-21179,44,1,21679,2020-11-02 15:08:19,2020-11-02 15:08:49,1,D7:F2:3B:06:4D:C8,44,44,-4916.47483800616,-14799.43116403713,40689.719160841836
50850,14840,-5377,6368,15642,29441,11283,18109,-18431,-1214,44,1,21705,2020-11-02 15:08:19,2020-11-02 15:08:49,1,D7:F2:3B:06:4D:C8,44,44,-13694.747518944741,4424.537442895361,9086.611679211008
50851,24824,23034,26075,-12277,-26633,-30701,-23617,15107,20544,44,1,21730,2020-11-02 15:08:19,2020-11-02 15:08:49,1,D7:F2:3B:06:4D:C8,44,44,14786.898367056649,33033.50795454148,-22734.04376479429
50852,-15620,15351,5599,13316,31479,-32236,6592,25093,-22979,44,1,21756,2020-11-02 15:08:19,2020-11-02 15:08:49,1,D7:F2:3B:06:4D:C8,44,44,-1498.6467214031782,-3746.0857827454433,-22242.016574778918
50853,3581,10232,19934,-7422,22267,13332,-11585,10247,-10182,44,1,21781,2020-11-02 15:08:19,2020-11-02 15:08:49,1,D7:F2:3B:06:4D:C8,44,44,4713.296170787631,18326.44132132457,-12522.30524713745
50854,-30453,-13064,11486,-5121,-21760,-1263,-1602,2824,-15305,44,1,21807,2020-11-02 15:08:19,2020-11-02 15:08:49,1,D7:F2:3B:06:4D:C8,44,44,793.8580293194227,33127.37681177435,11486.0
50855,-7690,29422,-18467,-23810,-14331,-24309,-1347,-12537,25397,44,1,21833,2020-11-02 15:08:19,2020-11-02 15:08:49,1,D7:F2:3B:06:4D:C8,44,44,9198.892058088253,-34361.62278566326,692.4864182265865
50856,-24066,16883,-23579,-11523,-2807,23316,-26180,-8698,16690,44,1,21858,2020-11-02 15:08:19,2020-11-02 15:08:49,1,D7:F2:3B:06:4D:C8,44,44,9090.774215216397,-36226.151597495125,-5020.064800703076
50857,-9984,7416,24291,6399,-22004,18447,-7749,10757,22575,44,1,21884,2020-11-02 15:08:19,2020-11-02 15:08:49,1,D7:F2:3B:06:4D:C8,44,44,-3844.4024042189485,-24146.174416578127,12120.760050369094
50858,22273,-25354,1514,-21766,16139,-20215,-8518,-28157,22061,44,-1,21909,2020-11-02 15:08:19,2020-11-02 15:08:49,1,D7:F2:3B:06:4D:C8,44,44,-431.11819009773785,12611.890531814955,-31336.215395603907
50859,-26116,17657,18658,28151,29195,-12794,-13895,-11775,9516,44,-1,21935,2020-11-02 15:08:19,2020-11-02 15:08:49,1,D7:F2:3B:06:4D:C8,44,44,9481.608381438296,32567.44390683151,-13834.622108190093
50860,15616,-19717,-4895,-24846,-6641,-12031,-23996,-17153,-28629,44,-1,21961,2020-11-02 15:08:19,2020-11-02 15:08:49,1,D7:F2:3B:06:4D:C8,44,44,-15276.682895222717,-7696.866597306562,19077.78221654908
50861,-6916,-24066,26338,32495,-6893,11773,20034,-1284,6700,44,-1,21987,2020-11-02 15:08:19,2020-11-02 15:08:49,1,D7:F2:3B:06:4D:C8,44,44,-20657.315957754196,5044.9694899349,-29470.616489431297
50862,28412,-10501,8939,-17940,-30955,24058,16191,5882,-26835,44,-1,22012,2020-11-02 15:08:19,2020-11-02 15:08:49,1,D7:F2:3B:06:4D:C8,44,44,108.07756587182848,5624.560967055994,-31076.85793589219
50863,6911,-6920,-17681,25834,15636,1270,25403,-20489,3632,44,-1,22037,2020-11-02 15:08:19,2020-11-02 15:08:49,1,D7:F2:3B:06:4D:C8,44,44,-9211.828180950502,-8857.811063163284,-15650.79827784986
50864,-18435,15865,-19981,5610,7699,23281,-20938,23030,-25293,44,-1,22063,2020-11-02 15:08:19,2020-11-02 15:08:49,1,D7:F2:3B:06:4D:C8,44,44,14821.877472032491,11181.499750538746,-25417.982267142244
50865,1017,9725,30457,-6933,25361,5616,-10191,12022,-24521,44,-1,22088,2020-11-02 15:08:19,2020-11-02 15:08:49,1,D7:F2:3B:06:4D:C8,44,44,-28012.709658323736,-14813.933510606847,-4367.405928211346
50866,-14342,-16896,-24831,29685,-29425,20981,9006,-29962,6459,44,-1,22114,2020-11-02 15:08:19,2020-11-02 15:08:49,1,D7:F2:3B:06:4D:C8,44,44,-26415.8185795209,-19364.208697922448,5914.244776566435
50867,-21253,-27137,-8187,-24066,-12020,12020,6956,12535,3390,44,-1,22140,2020-11-02 15:08:19,2020-11-02 15:08:49,1,D7:F2:3B:06:4D:C8,44,44,-15941.672539462772,-7773.06072172146,30668.817236094543
50868,28674,6653,1278,-6398,-15100,-17936,-21973,-25608,7488,44,-1,22165,2020-11-02 15:08:19,2020-11-02 15:08:49,1,D7:F2:3B:06:4D:C8,44,44,-5637.390484893583,-20636.168144308107,-20259.870726159006
50869,5893,-9478,-4105,-24319,-10752,30439,-24789,21755,-21695,44,-1,22191,2020-11-02 15:08:19,2020-11-02 15:08:49,1,D7:F2:3B:06:4D:C8,44,44,7715.582389255419,-8296.108769540313,3613.2154210021745
50870,-22271,-15369,-523,31485,-3841,-31268,25387,-15617,24899,44,-1,22216,2020-11-02 15:08:19,2020-11-02 15:08:49,1,D7:F2:3B:06:4D:C8,44,44,8361.523018443986,-5082.310165720845,-25233.552805569052
50871,-19462,23797,-30471,-29700,13827,27605,11051,23813,-12731,44,-1,22242,2020-11-02 15:08:19,2020-11-02 15:08:49,1,D7:F2:3B:06:4D:C8,44,44,30833.75701750083,-25137.714663988976,-17056.471606331477
50872,-785,-10252,17147,-4600,-22262,-29999,5933,32523,-1092,44,-1,22268,2020-11-02 15:08:19,2020-11-02 15:08:49,1,D7:F2:3B:06:4D:C8,44,44,-834.2796930029963,-19967.88221626117,-571.8349336685728
50873,216,3057,-16649,-31714,-29942,-22562,12596,-20977,31427,44,-1,22293,2020-11-02 15:08:19,2020-11-02 15:08:49,1,D7:F2:3B:06:4D:C8,44,44,12847.866783265112,5452.262314271476,-9580.514640448502
50874,-19476,-2054,28650,11818,-14320,-15622,3645,19727,-1849,44,-1,22319,2020-11-02 15:08:19,2020-11-02 15:08:49,1,D7:F2:3B:06:4D:C8,44,44,23324.182094705473,-2054.0,-25614.831750628786
50875,-16647,14847,8172,26651,-22520,4092,3651,16909,25033,44,-1,22344,2020-11-02 15:08:19,2020-11-02 15:08:49,1,D7:F2:3B:06:4D:C8,44,44,1850.986449252081,-20571.100837271868,11736.322316103877
50876,19935,-14340,-16672,-20965,16897,-15608,-18502,-8948,21705,44,-1,22370,2020-11-02 15:08:19,2020-11-02 15:08:49,1,D7:F2:3B:06:4D:C8,44,44,3100.904280704135,-12405.487219484245,26785.88599410376
50877,5865,20221,25061,18716,-246,-30189,15293,4620,15814,44,-1,22396,2020-11-02 15:08:19,2020-11-02 15:08:49,1,D7:F2:3B:06:4D:C8,44,44,25931.93182369331,18317.97924704707,7957.847397134174
50878,-32017,-11521,23519,-2278,-2551,32028,12223,16907,-30783,44,-1,22421,2020-11-02 15:08:19,2020-11-02 15:08:49,1,D7:F2:3B:06:4D:C8,44,44,14462.689259546463,-9598.440713267359,37545.51432935353
50879,-9996,-5893,14808,-6893,8965,14115,-9793,30219,-23109,44,-1,22447,2020-11-02 15:08:19,2020-11-02 15:08:49,1,D7:F2:3B:06:4D:C8,44,44,2955.918812660175,-17614.411309776475,-5909.2628290659295
50880,-19970,4600,-30762,-24311,-20990,804,-21570,21004,-4543,44,-1,22472,2020-11-02 15:08:19,2020-11-02 15:08:49,1,D7:F2:3B:06:4D:C8,44,44,23976.231594204415,-8895.099172299684,-26688.5569721562
50881,-12795,28405,-28709,-20228,20744,3356,-4677,1292,13884,44,-1,22498,2020-11-02 15:08:19,2020-11-02 15:08:49,1,D7:F2:3B:06:4D:C8,44,44,-20503.9946353628,-23455.11146835618,-28709.0
50882,6405,8951,5090,18680,17162,23058,-17083,-27894,17208,44,-1,22523,2020-11-02 15:08:19,2020-11-02 15:08:49,1,D7:F2:3B:06:4D:C8,44,44,11702.274174621201,-2580.6444020773993,1857.3043940130551
50883,-1542,-4618,-25625,-9736,-3316,15375,-23997,-28920,-8395,44,-1,22549,2020-11-02 15:08:19,2020-11-02 15:08:49,1,D7:F2:3B:06:4D:C8,44,44,25489.75212326753,1781.7865133702903,5238.519496494226
50884,3070,-14341,-6425,-24329,-3059,4622,-8895,2822,-9677,44,-1,22575,2020-11-02 15:08:19,2020-11-02 15:08:49,1,D7:F2:3B:06:4D:C8,44,44,-9410.760832446056,-9690.953015576462,8596.093077927246
50885,24578,-10246,-11034,27899,1042,-4087,-16832,22275,-24270,44,-1,22600,2020-11-02 15:08:19,2020-11-02 15:08:49,1,D7:F2:3B:06:4D:C8,44,44,18987.792606882038,-13158.028672538376,-17237.684571040674
50886,30203,26109,25573,3576,-237,-6655,-13505,21760,-18382,44,-1,22651,2020-11-02 15:08:19,2020-11-02 15:08:49,1,D7:F2:3B:06:4D:C8,44,44,36153.31379669493,-7359.984476088444,29776.634279740967
50887,30460,-5890,-28440,16372,23572,-23043,16446,30205,-15309,44,-1,22653,2020-11-02 15:08:19,2020-11-02 15:08:49,1,D7:F2:3B:06:4D:C8,44,44,24733.58884542693,-13988.656122379312,31046.809541645216
50888,-7431,-25858,-24085,4080,20500,11256,-18373,1019,-7115,44,-1,22677,2020-11-02 15:08:19,2020-11-02 15:08:49,1,D7:F2:3B:06:4D:C8,44,44,14665.964433228211,18247.871499168577,27493.050449033773
50889,32764,-24837,-270,18411,15893,-2830,56,14073,2617,44,1,22702,2020-11-02 15:08:19,2020-11-02 15:08:49,1,D7:F2:3B:06:4D:C8,44,44,-13880.145257873508,-24837.0,-29679.861246648907
50890,-15886,11002,19202,20208,-23276,-783,-2765,19960,1085,44,1,22728,2020-11-02 15:08:19,2020-11-02 15:08:49,1,D7:F2:3B:06:4D:C8,44,44,18436.807195760248,11002.0,-16768.003471682703
50891,31751,26873,11001,31987,1043,7146,-20688,21240,8257,44,1,22754,2020-11-02 15:08:19,2020-11-02 15:08:49,1,D7:F2:3B:06:4D:C8,44,44,2977.183406658097,-41729.21983572892,10055.58162736136
50892,10228,-26378,13318,-14854,-17395,-14109,3886,-21510,-27835,44,1,22779,2020-11-02 15:08:19,2020-11-02 15:08:49,1,D7:F2:3B:06:4D:C8,44,44,27809.979869121224,8156.337292088763,-11741.34462728841
50893,8181,-23558,775,14599,-21754,10984,-10707,-28163,-69,44,1,22805,2020-11-02 15:08:19,2020-11-02 15:08:49,1,D7:F2:3B:06:4D:C8,44,44,9971.819191051547,-12076.301708415516,-19422.525815874116
50894,12787,12539,5125,4888,-10748,19946,18992,9216,-32066,44,1,22830,2020-11-02 15:08:19,2020-11-02 15:08:49,1,D7:F2:3B:06:4D:C8,44,44,13768.239503270404,232.4706156178363,-12545.160556703075
50895,32492,17402,17142,9510,-30717,-27668,32565,21762,-832,44,1,22856,2020-11-02 15:08:19,2020-11-02 15:08:49,1,D7:F2:3B:06:4D:C8,44,44,-33835.53274368352,21374.169267706584,7121.056386979911
50896,13034,13818,2027,15656,-20223,26869,1084,-29437,-1598,44,1,22882,2020-11-02 15:08:19,2020-11-02 15:08:49,1,D7:F2:3B:06:4D:C8,44,44,5640.992430069872,13818.0,-11923.635746025388
50897,6118,2816,19944,-1762,-16896,-6137,29249,28419,3011,44,1,22907,2020-11-02 15:08:19,2020-11-02 15:08:49,1,D7:F2:3B:06:4D:C8,44,44,-6236.877742721159,19923.578448146076,2697.2752627269065
50898,-21523,29436,-6168,24856,19452,-5358,10053,-29693,-22336,44,1,22933,2020-11-02 15:08:19,2020-11-02 15:08:49,1,D7:F2:3B:06:4D:C8,44,44,-11329.675107575025,-22922.775304109433,26719.780749738675
50899,8180,-18956,-15629,-9956,-31234,13082,-9029,18948,7869,44,1,22958,2020-11-02 15:08:19,2020-11-02 15:08:49,1,D7:F2:3B:06:4D:C8,44,44,15881.712089243418,-18562.424240098626,-8585.779198475728
50900,26110,3044,5091,-3803,-11257,-27367,24512,32004,31045,44,1,22984,2020-11-02 15:08:19,2020-11-02 15:08:49,1,D7:F2:3B:06:4D:C8,44,44,5419.381617418866,-11751.958617460727,23440.095745074785
50901,6141,-31495,-5685,28677,22528,-16350,-26686,9989,-10432,44,1,23010,2020-11-02 15:08:19,2020-11-02 15:08:49,1,D7:F2:3B:06:4D:C8,44,44,13588.71321024336,24901.652263007403,-16038.10209663276
50902,-22513,6129,-14384,19701,11768,-999,-12096,-4601,-17092,44,1,23036,2020-11-02 15:08:19,2020-11-02 15:08:49,1,D7:F2:3B:06:4D:C8,44,44,-4843.512436936428,26975.345640244654,412.7721678794933
50903,-13560,-4363,-15652,18668,19705,14093,14525,23817,13626,44,1,23061,2020-11-02 15:08:19,2020-11-02 15:08:49,1,D7:F2:3B:06:4D:C8,44,44,-17478.935264726922,-371.07361897344526,-11926.592110942154
50904,32764,5885,-30240,30701,-6657,-241,-1211,-3575,2616,44,1,23086,2020-11-02 15:08:19,2020-11-02 15:08:49,1,D7:F2:3B:06:4D:C8,44,44,32764.0,5885.0,-30240.0
50905,-15872,-26372,6110,17903,-28923,-492,5186,-5880,-9932,44,1,23112,2020-11-02 15:08:19,2020-11-02 15:08:49,1,D7:F2:3B:06:4D:C8,44,44,-29602.635155468186,-2706.339445414452,-10054.5803820166
50906,-5627,27642,23007,22254,19720,27663,-24514,2311,19250,44,1,23137,2020-11-02 15:08:19,2020-11-02 15:08:49,1,D7:F2:3B:06:4D:C8,44,44,10577.59348579232,34330.62575342872,5881.155790092631
50907,16899,25599,-6681,19952,5901,18440,-7621,-14588,26929,44,1,23163,2020-11-02 15:08:19,2020-11-02 15:08:49,1,D7:F2:3B:06:4D:C8,44,44,-4138.838665394978,-17351.37335705955,25832.549624954863
50908,21753,-21760,-25364,-29959,-23023,-2812,27706,15874,-9679,44,-1,23189,2020-11-02 15:08:19,2020-11-02 15:08:49,1,D7:F2:3B:06:4D:C8,44,44,7160.799237663777,-20355.00860921864,-33532.36770340724
50909,-11016,25856,-25113,-28162,-17647,31493,5946,32255,-28878,44,-1,23214,2020-11-02 15:08:19,2020-11-02 15:08:49,1,D7:F2:3B:06:4D:C8,44,44,-36773.822657912184,-568.9653577139652,-8240.752790015329
50910,-24837,-10752,12515,-1546,25360,-32252,23609,-772,15411,44,-1,23240,2020-11-02 15:08:19,2020-11-02 15:08:49,1,D7:F2:3B:06:4D:C8,44,44,-4666.986104019324,-29450.376426206312,-43.20948555725954
50911,-5384,-31488,18411,22775,-23533,-28418,-27081,-20230,-19148,44,-1,23265,2020-11-02 15:08:19,2020-11-02 15:08:49,1,D7:F2:3B:06:4D:C8,44,44,-9349.089305530595,-8048.326808686696,34745.72615067626
50912,-26630,-5377,27630,11761,18,-12292,17205,-5640,-10954,44,-1,23291,2020-11-02 15:08:19,2020-11-02 15:08:49,1,D7:F2:3B:06:4D:C8,44,44,-13189.958839944376,23177.786491265335,-28112.294964408215
50913,-12290,-20487,-25099,-3091,21010,-3082,-12751,-12809,-21959,44,-1,23316,2020-11-02 15:08:19,2020-11-02 15:08:49,1,D7:F2:3B:06:4D:C8,44,44,19091.192851803164,17162.76155932612,-23274.171116346493
50914,19712,26358,20473,4075,-11247,20464,-28627,4600,15421,44,-1,23342,2020-11-02 15:08:19,2020-11-02 15:08:49,1,D7:F2:3B:06:4D:C8,44,44,21551.631428493325,31541.54228888601,6565.754321385646
50915,24064,2038,-16640,1518,-17645,-19735,20521,-13575,12097,44,-1,23368,2020-11-02 15:08:19,2020-11-02 15:08:49,1,D7:F2:3B:06:4D:C8,44,44,10209.129642620235,-23101.863803594664,14906.263808893746
50916,4603,-11532,-20986,-9225,20752,-7197,-23002,6653,-14012,44,-1,23393,2020-11-02 15:08:19,2020-11-02 15:08:49,1,D7:F2:3B:06:4D:C8,44,44,18513.505124678857,-15825.646749066993,-1177.2263895423657
50917,-20491,32247,14344,4103,31753,-16414,-28634,19969,-24646,44,-1,23419,2020-11-02 15:08:19,2020-11-02 15:08:49,1,D7:F2:3B:06:4D:C8,44,44,9521.386623414683,37830.724403954235,-11986.655657001293
50918,-14614,-17674,-8431,12572,-29174,31977,-17879,-2812,-4932,44,-1,23444,2020-11-02 15:08:19,2020-11-02 15:08:49,1,D7:F2:3B:06:4D:C8,44,44,-14614.0,16307.344596963532,10840.781761288448
50919,31450,-5396,-28418,11576,-19707,6132,11313,-10234,17343,44,-1,23470,2020-11-02 15:08:19,2020-11-02 15:08:49,1,D7:F2:3B:06:4D:C8,44,44,-36359.05140144791,-16026.850336208625,15715.008415131
50920,-4122,-30992,-534,25910,24578,13570,17722,-4090,-10561,44,-1,23495,2020-11-02 15:08:19,2020-11-02 15:08:49,1,D7:F2:3B:06:4D:C8,44,44,23654.169930006447,20086.73247413044,-3844.935296606767
50921,20965,-31762,13282,-209,24840,5394,-13503,-11771,-27202,44,-1,23521,2020-11-02 15:08:19,2020-11-02 15:08:49,1,D7:F2:3B:06:4D:C8,44,44,439.95615859566533,-39207.762986044356,9344.79283925996
50922,-2827,-9232,-3114,11556,15619,-25573,-28230,-25596,-28998,44,-1,23547,2020-11-02 15:08:19,2020-11-02 15:08:49,1,D7:F2:3B:06:4D:C8,44,44,-8585.22238013184,558.9138864356651,5375.9018732890545
50923,-32267,4344,-4143,-30953,-23302,-14821,3774,-29691,1859,44,-1,23598,2020-11-02 15:08:19,2020-11-02 15:08:49,1,D7:F2:3B:06:4D:C8,44,44,-13125.751008271303,4344.0,29766.397136181342
50924,25341,27639,19667,-29171,-10247,-21984,22207,-31225,32062,44,1,23600,2020-11-02 15:08:19,2020-11-02 15:08:49,1,D7:F2:3B:06:4D:C8,44,44,-31095.974064512993,-1125.0193139952426,-28716.654044687602
50925,-15098,13813,21204,7430,-9732,-18403,-4418,16393,-21703,44,1,23623,2020-11-02 15:08:19,2020-11-02 15:08:49,1,D7:F2:3B:06:4D:C8,44,44,-23358.607814641447,-17282.319797192067,4904.595028068536
50926,6405,9204,-24872,-11009,-5887,24856,29885,-5367,21813,44,1,23649,2020-11-02 15:08:19,2020-11-02 15:08:49,1,D7:F2:3B:06:4D:C8,44,44,-3343.5781945785247,21930.856709258813,-15881.18490084089
50927,-19965,5622,7129,-15878,21767,22804,31931,25097,-27599,44,1,23675,2020-11-02 15:08:19,2020-11-02 15:08:49,1,D7:F2:3B:06:4D:C8,44,44,-16577.084246092047,6294.957420663015,-12907.538067734158
50928,24834,17650,29148,19453,-14582,-19441,-12359,-17145,-18386,44,1,23700,2020-11-02 15:08:19,2020-11-02 15:08:49,1,D7:F2:3B:06:4D:C8,44,44,-12431.706894920619,-21124.98062468406,34308.07218841517
50929,11015,-29705,21983,11507,4876,-27898,-29116,-5371,2349,44,1,23726,2020-11-02 15:08:19,2020-11-02 15:08:49,1,D7:F2:3B:06:4D:C8,44,44,11015.0,-29506.21754910491,-22249.099755830426
50930,5378,2297,12513,30701,-15598,-26373,11074,29187,27693,44,1,23751,2020-11-02 15:08:19,2020-11-02 15:08:49,1,D7:F2:3B:06:4D:C8,44,44,-2577.387369493858,11225.809614754993,7623.157799812876
50931,-1801,-28680,-11031,24815,-11240,31989,-22209,26880,-28625,44,1,23777,2020-11-02 15:08:19,2020-11-02 15:08:49,1,D7:F2:3B:06:4D:C8,44,44,-13674.926425748763,-25223.334283673135,-11146.6926424136
50932,-16135,23034,-3603,249,-23527,-21515,-10435,17149,27186,44,1,23803,2020-11-02 15:08:19,2020-11-02 15:08:49,1,D7:F2:3B:06:4D:C8,44,44,15412.372900118202,3443.1895951929996,23547.573059643677
50933,-24327,-15877,-17687,14068,-3564,29167,-1477,6907,-14539,44,1,23828,2020-11-02 15:08:19,2020-11-02 15:08:49,1,D7:F2:3B:06:4D:C8,44,44,-2773.554747867749,32092.070951236958,10914.13776353191
50934,-25100,3580,-5899,23535,-30444,6126,-19144,-11783,-11719,44,1,23854,2020-11-02 15:08:19,2020-11-02 15:08:49,1,D7:F2:3B:06:4D:C8,44,44,-6307.761740328408,-3265.653694285392,-25043.40729166559
50935,-13325,-7941,18684,-30223,19982,13809,24373,27897,-31171,44,1,23879,2020-11-02 15:08:19,2020-11-02 15:08:49,1,D7:F2:3B:06:4D:C8,44,44,-14734.401583537672,18336.975215881674,-6029.901484036348
50936,-9473,1274,-16382,-9737,-21240,-17941,-11214,17402,-28864,44,1,23905,2020-11-02 15:08:19,2020-11-02 15:08:49,1,D7:F2:3B:06:4D:C8,44,44,14821.686834120308,3935.1130268675333,11160.789123401722
50937,-20226,6902,18181,15619,4616,-3614,-5839,-24068,68,44,1,23930,2020-11-02 15:08:19,2020-11-02 15:08:49,1,D7:F2:3B:06:4D:C8,44,44,16259.463253342721,19027.95048989427,12682.444396382358
50938,-28945,11768,10754,-15854,25096,-27423,30003,25343,29115,44,1,23956,2020-11-02 15:08:19,2020-11-02 15:08:49,1,D7:F2:3B:06:4D:C8,44,44,20224.184934547142,-20246.10228316696,-16523.469704416744
50939,29922,-27140,14073,-29921,23044,28653,-19657,-32511,-17986,44,1,23982,2020-11-02 15:08:19,2020-11-02 15:08:49,1,D7:F2:3B:06:4D:C8,44,44,5259.399971849822,-28396.348216052163,-31558.535025073917
50940,22243,-16896,-21768,11557,-12032,24832,12349,2050,-14657,44,1,24007,2020-11-02 15:08:19,2020-11-02 15:08:49,1,D7:F2:3B:06:4D:C8,44,44,15135.370564522844,-31388.559714759336,-6304.804985688523
50941,1268,12799,26364,5670,-4351,-32754,-190,-24575,30654,44,1,24033,2020-11-02 15:08:19,2020-11-02 15:08:49,1,D7:F2:3B:06:4D:C8,44,44,17697.89151657988,-14707.416072362314,-18192.285984498718
50942,22252,10991,25311,-20187,-24314,8978,-25412,31744,13756,44,1,24060,2020-11-02 15:08:19,2020-11-02 15:08:49,1,D7:F2:3B:06:4D:C8,44,44,18041.058076773283,23873.63410391524,19004.476423802593
50943,8699,3827,6359,-3050,10244,540,-6464,-28160,-16572,44,1,24084,2020-11-02 15:08:19,2020-11-02 15:08:49,1,D7:F2:3B:06:4D:C8,44,44,9044.12894130711,1934.7792330706252,-6724.267395953985
50944,27644,21491,-20006,-32243,-13568,8478,11715,4354,-25536,44,1,24109,2020-11-02 15:08:19,2020-11-02 15:08:49,1,D7:F2:3B:06:4D:C8,44,44,-25068.22817443956,14876.15677435541,27867.144611872856
50945,18181,21999,-6944,-30197,-1276,8737,25028,-22013,-10181,44,1,24135,2020-11-02 15:08:19,2020-11-02 15:08:49,1,D7:F2:3B:06:4D:C8,44,44,-25323.639731367184,3098.942023182288,14554.508823484084
50946,-26865,-4371,-11816,-17916,-10490,-28387,-20028,1029,2359,44,1,24161,2020-11-02 15:08:19,2020-11-02 15:08:49,1,D7:F2:3B:06:4D:C8,44,44,-26865.0,2659.783187405156,12314.586895060544
50947,-24592,2529,15566,3066,-23547,-19189,-23101,9221,-7373,44,1,24186,2020-11-02 15:08:19,2020-11-02 15:08:49,1,D7:F2:3B:06:4D:C8,44,44,-22238.61873041277,9771.751827409356,16230.199141934649
50948,25609,-26131,-29728,-21778,-31990,-8939,-29504,-4348,17968,44,1,24212,2020-11-02 15:08:19,2020-11-02 15:08:49,1,D7:F2:3B:06:4D:C8,44,44,-28329.57728027945,-17269.478459108606,-33490.35967067326
50949,-9211,-3860,-19,1010,-29939,22282,-25155,-25085,-25811,44,1,24237,2020-11-02 15:08:19,2020-11-02 15:08:49,1,D7:F2:3B:06:4D:C8,44,44,-4416.801629501713,1231.8683221887359,8872.251450585634
50950,7423,-25355,-32537,4083,23563,-26615,-27717,-16895,-6613,44,1,24263,2020-11-02 15:08:19,2020-11-02 15:08:49,1,D7:F2:3B:06:4D:C8,44,44,31975.895411513913,26448.949855634328,5884.597451488438
50951,-19458,9976,-27673,-27402,6411,15621,-13127,17408,-15830,44,1,24289,2020-11-02 15:08:19,2020-11-02 15:08:49,1,D7:F2:3B:06:4D:C8,44,44,-34815.5009588005,-5630.649318362703,325.49998676397263
50952,13566,-6404,-28697,-22282,1295,3330,3653,5886,17706,44,1,24314,2020-11-02 15:08:19,2020-11-02 15:08:49,1,D7:F2:3B:06:4D:C8,44,44,17553.378591732344,3966.562458949312,-26920.45065140193
50953,32763,-14851,-27414,12021,26640,3072,-29629,-20229,24874,44,1,24340,2020-11-02 15:08:19,2020-11-02 15:08:49,1,D7:F2:3B:06:4D:C8,44,44,35876.71722786248,7766.1680006842325,26420.476179227797
50954,-13824,11005,14826,-3597,31762,-12805,-16319,7417,6187,44,1,24365,2020-11-02 15:08:19,2020-11-02 15:08:49,1,D7:F2:3B:06:4D:C8,44,44,-18880.66264768959,-12929.765433512133,2892.234571830908
50955,22780,-32006,27374,-21776,14611,-23306,-7362,-18186,7725,44,-1,24391,2020-11-02 15:08:19,2020-11-02 15:08:49,1,D7:F2:3B:06:4D:C8,44,44,-20197.452224848814,-20829.189058624594,-38090.10526088138
50956,512,-15879,14583,1780,-10220,6897,22331,-26892,25648,44,-1,24416,2020-11-02 15:08:19,2020-11-02 15:08:49,1,D7:F2:3B:06:4D:C8,44,44,18808.503467488386,875.3769836621668,10513.923456538554
50957,-16642,-26634,16117,31736,26899,9966,-13257,28403,-9164,44,-1,24442,2020-11-02 15:08:19,2020-11-02 15:08:49,1,D7:F2:3B:06:4D:C8,44,44,20375.466561790225,15904.86930324769,-24040.78417681041
50958,2560,-23049,30459,9465,14611,-4887,-205,21747,-10951,44,-1,24468,2020-11-02 15:08:19,2020-11-02 15:08:49,1,D7:F2:3B:06:4D:C8,44,44,-18441.974954773345,-13937.777224371406,-30515.448674586227
50959,-13568,22007,5115,-14600,-14577,14305,11056,-11532,17983,44,-1,24493,2020-11-02 15:08:19,2020-11-02 15:08:49,1,D7:F2:3B:06:4D:C8,44,44,12497.559305130282,-9444.480094468836,-21193.742122615662
50960,-10504,29688,-8702,-14081,776,-32551,-18387,-13832,-9149,44,-1,24519,2020-11-02 15:08:19,2020-11-02 15:08:49,1,D7:F2:3B:06:4D:C8,44,44,-25577.31440224181,-16835.67793737186,-11392.853038548521
50961,31728,19194,6660,-31214,-2553,-8226,32046,15869,-10566,44,-1,24544,2020-11-02 15:08:19,2020-11-02 15:08:49,1,D7:F2:3B:06:4D:C8,44,44,-5292.835965497654,30140.192578274728,-21976.940159786744
50962,-22548,14840,24311,-22744,-13299,5867,14899,-26113,-28738,44,-1,24570,2020-11-02 15:08:19,2020-11-02 15:08:49,1,D7:F2:3B:06:4D:C8,44,44,32025.545765175368,8561.326007121334,14857.00980825031
50963,21229,6140,-29464,2092,-2041,-5641,5946,-17409,9921,44,-1,24596,2020-11-02 15:08:19,2020-11-02 15:08:49,1,D7:F2:3B:06:4D:C8,44,44,-34189.632665711084,-1219.7368174599815,13641.062908727974
50964,-19982,32767,-14620,-21220,-11778,-12032,-28353,-11521,-26943,44,-1,24621,2020-11-02 15:08:19,2020-11-02 15:08:49,1,D7:F2:3B:06:4D:C8,44,44,22818.97711612423,-10580.64449444744,-32466.063180741792
50965,-29193,-12547,22511,-8427,-15361,-1533,9539,-4097,6849,44,-1,24647,2020-11-02 15:08:19,2020-11-02 15:08:49,1,D7:F2:3B:06:4D:C8,44,44,5870.872910738673,-38462.46246805489,1604.808761013017
50966,-1803,23289,7409,6429,-10236,8202,-32326,-27137,5056,44,-1,24672,2020-11-02 15:08:19,2020-11-02 15:08:49,1,D7:F2:3B:06:4D:C8,44,44,19670.262318257533,-498.4613137261167,-14606.639848016253
50967,13811,-6410,-9764,15646,-28662,20505,-32321,-6146,3005,44,-1,24698,2020-11-02 15:08:19,2020-11-02 15:08:49,1,D7:F2:3B:06:4D:C8,44,44,14964.992039813327,7544.662008991603,6804.013919621457
50968,-3334,-19213,-2340,10769,5128,23843,3523,13823,-31676,44,-1,24724,2020-11-02 15:08:19,2020-11-02 15:08:49,1,D7:F2:3B:06:4D:C8,44,44,18213.810611874593,-6159.914714409134,4005.381218557136
50969,2566,-13588,1241,-30971,-24323,17441,-21820,21249,-22721,44,-1,24749,2020-11-02 15:08:19,2020-11-02 15:08:49,1,D7:F2:3B:06:4D:C8,44,44,4341.708940886733,-13146.004659397091,-1044.1771725785695
50970,20482,-16913,10456,760,2807,-13796,-15677,23556,572,44,-1,24775,2020-11-02 15:08:19,2020-11-02 15:08:49,1,D7:F2:3B:06:4D:C8,44,44,-21733.73167198755,16545.905341411148,8292.632455566045
50971,-12287,16371,18393,-1809,2812,-1509,-14656,-5626,21048,44,-1,24800,2020-11-02 15:08:19,2020-11-02 15:08:49,1,D7:F2:3B:06:4D:C8,44,44,10765.260842535969,-11546.715198964066,-22540.296939174827
50972,-18939,-23308,-19233,31212,22274,27670,-20292,-21753,23604,44,1,24826,2020-11-02 15:08:19,2020-11-02 15:08:49,1,D7:F2:3B:06:4D:C8,44,44,5213.215878142913,-25113.393119177174,-24778.95761022935
50973,-4350,-11273,6629,28139,-27388,-18419,22853,9991,-25295,44,1,24851,2020-11-02 15:08:19,2020-11-02 15:08:49,1,D7:F2:3B:06:4D:C8,44,44,-1717.2018229246805,-13654.410402443962,-744.9593686734133
50974,14850,-20998,-29972,32240,26633,21767,12098,-10491,13360,44,1,24877,2020-11-02 15:08:19,2020-11-02 15:08:49,1,D7:F2:3B:06:4D:C8,44,44,-38384.52025229299,-2616.3078982449697,8918.678488592945
50975,4346,-24579,19945,-28173,-10743,-30716,8768,12036,-12753,44,1,24902,2020-11-02 15:08:19,2020-11-02 15:08:49,1,D7:F2:3B:06:4D:C8,44,44,-22835.271429342793,22345.900051809374,170.62128468257197
50976,28157,7680,17385,13555,3595,20485,15678,28162,-30161,44,1,24928,2020-11-02 15:08:19,2020-11-02 15:08:49,1,D7:F2:3B:06:4D:C8,44,44,13056.783083443837,-22857.037541797235,21473.554068313115
50977,-8449,-15617,30440,-13071,-28659,32256,17724,-31488,-5841,44,1,24954,2020-11-02 15:08:19,2020-11-02 15:08:49,1,D7:F2:3B:06:4D:C8,44,44,-8655.134338319154,34143.96716248531,-1071.4690815760896
50978,10239,-16898,-9237,16879,-7152,-15366,-6855,-20994,30257,44,1,24979,2020-11-02 15:08:19,2020-11-02 15:08:49,1,D7:F2:3B:06:4D:C8,44,44,-19453.173318699573,6174.331134196929,-7691.123252030321
50979,-3075,14846,17903,13037,-29678,-26378,-1226,7677,2868,44,1,25005,2020-11-02 15:08:19,2020-11-02 15:08:49,1,D7:F2:3B:06:4D:C8,44,44,13403.42545047124,14846.0,12260.555460241587
50980,18430,3838,-26379,-15124,15379,13043,-26061,18940,20023,44,1,25030,2020-11-02 15:08:19,2020-11-02 15:08:49,1,D7:F2:3B:06:4D:C8,44,44,12785.015980972064,-19453.915490539828,-22546.292898239906
50981,30464,22525,26363,18163,17173,30960,-26832,7420,9275,44,1,25056,2020-11-02 15:08:19,2020-11-02 15:08:49,1,D7:F2:3B:06:4D:C8,44,44,37987.0554009041,-5015.528892201728,-25734.544524823672
50982,27391,12796,25599,7931,-23023,-13079,-18386,2557,19775,44,1,25084,2020-11-02 15:08:19,2020-11-02 15:08:49,1,D7:F2:3B:06:4D:C8,44,44,-25838.98453292471,12830.208965559712,-27148.58954360886
50983,-15621,-27397,-1279,4612,2315,9957,31022,28159,579,44,1,25107,2020-11-02 15:08:19,2020-11-02 15:08:49,1,D7:F2:3B:06:4D:C8,44,44,-9397.311104378927,-8997.957042430164,-28757.162656807744
50984,16626,-18691,-27137,-8944,17671,9446,22064,23298,15174,44,1,25133,2020-11-02 15:08:19,2020-11-02 15:08:49,1,D7:F2:3B:06:4D:C8,44,44,-8155.036754861653,-35848.33084301245,-3253.717458043613
50985,15853,13823,-25356,14109,8,4847,-26316,14084,-31044,44,1,25158,2020-11-02 15:08:19,2020-11-02 15:08:49,1,D7:F2:3B:06:4D:C8,44,44,-4635.203458152555,20127.318614857344,-25665.650357580023
50986,3311,2560,22508,-12258,8196,-5896,-15559,-19964,24510,44,1,25184,2020-11-02 15:08:19,2020-11-02 15:08:49,1,D7:F2:3B:06:4D:C8,44,44,15746.659408888278,-11449.694006242962,12044.650664252338
50987,-13580,2815,-32021,26,-7936,7166,15166,-10492,-1602,44,1,25209,2020-11-02 15:08:19,2020-11-02 15:08:49,1,D7:F2:3B:06:4D:C8,44,44,-20704.164561388192,27945.159559504948,-2844.4143525102763
50988,-2827,32511,-21779,-25577,-23293,-1535,-191,32516,3775,44,1,25235,2020-11-02 15:08:19,2020-11-02 15:08:49,1,D7:F2:3B:06:4D:C8,44,44,20082.49877958395,32511.0,-8888.757661676296
50989,23027,-19968,-19479,22,-4604,-3833,23365,-16381,20926,44,1,25261,2020-11-02 15:08:19,2020-11-02 15:08:49,1,D7:F2:3B:06:4D:C8,44,44,34790.42327705247,-3252.372962039535,9351.134279825095
50990,-2832,-29438,31203,-17392,-10752,13073,20667,31491,16060,44,1,25286,2020-11-02 15:08:19,2020-11-02 15:08:49,1,D7:F2:3B:06:4D:C8,44,44,-36146.57686212867,19531.466088503323,-12656.62240030368
50991,11241,24590,-1038,21772,-29957,5146,-17476,15620,27717,44,1,25312,2020-11-02 15:08:19,2020-11-02 15:08:49,1,D7:F2:3B:06:4D:C8,44,44,-14024.97779215415,21229.090940560025,-9204.961747178268
50992,-31494,-17711,-26659,28456,15890,9758,-15936,28420,-18624,44,1,25337,2020-11-02 15:08:19,2020-11-02 15:08:49,1,D7:F2:3B:06:4D:C8,44,44,-2382.6229585712736,16701.48790553446,-41612.94567293423
50993,4103,-4626,14539,-10751,-24579,24355,24514,-15612,315,44,1,25363,2020-11-02 15:08:19,2020-11-02 15:08:49,1,D7:F2:3B:06:4D:C8,44,44,3750.4766321576235,14026.906869397037,6228.708911877471
50994,-32755,-4623,3538,25572,5112,-9969,4799,12295,824,44,1,25389,2020-11-02 15:08:19,2020-11-02 15:08:49,1,D7:F2:3B:06:4D:C8,44,44,16847.98392721091,-4623.0,28311.709707971415
50995,31999,24307,30692,13787,20736,-18681,-2235,-27641,-29898,44,-1,25414,2020-11-02 15:08:19,2020-11-02 15:08:49,1,D7:F2:3B:06:4D:C8,44,44,-22652.790768181512,9111.85620072994,-44278.55305890438
50996,-20226,24318,3054,3806,-13566,29193,10560,2823,16181,44,-1,25440,2020-11-02 15:08:19,2020-11-02 15:08:49,1,D7:F2:3B:06:4D:C8,44,44,-1193.577802907109,-22789.796842596104,22112.974650679724
50997,30206,-2814,20720,-7961,18947,3594,-31429,262,-973,44,-1,25465,2020-11-02 15:08:19,2020-11-02 15:08:49,1,D7:F2:3B:06:4D:C8,44,44,30206.0,-20667.136360913748,3179.0675738959762
50998,-16898,-12540,5872,-5903,1029,-17399,-28872,-23292,307,44,-1,25491,2020-11-02 15:08:19,2020-11-02 15:08:49,1,D7:F2:3B:06:4D:C8,44,44,3205.366644269341,-9187.927146530807,19559.70366406014
50999,-15361,8709,11247,19449,30728,-32249,7223,-4350,-24526,44,-1,25516,2020-11-02 15:08:19,2020-11-02 15:08:49,1,D7:F2:3B:06:4D:C8,44,44,13641.888085747058,-8514.859446379285,13405.150840790939
51000,-13569,-17404,-18453,-14599,-9718,30979,19254,18689,563,44,-1,25568,2020-11-02 15:08:19,2020-11-02 15:08:49,1,D7:F2:3B:06:4D:C8,44,44,15664.637114935316,19833.91691956288,-13739.180095088208
51001,26366,15876,3821,-18955,-10230,15359,3637,-2561,2356,44,-1,25570,2020-11-02 15:08:19,2020-11-02 15:08:49,1,D7:F2:3B:06:4D:C8,44,44,26366.0,15876.0,3821.0
51002,8705,-17663,-14869,5621,16141,17403,29747,-2,-20171,44,-1,25593,2020-11-02 15:08:19,2020-11-02 15:08:49,1,D7:F2:3B:06:4D:C8,44,44,-11337.065467909857,17847.290269642777,12719.706427722303
51003,12799,27391,-13838,-4880,-12531,16886,20529,-21762,2104,44,-1,25619,2020-11-02 15:08:19,2020-11-02 15:08:49,1,D7:F2:3B:06:4D:C8,44,44,-15149.67763520738,-25164.06580285036,-15582.958185759031
51004,-30462,-24578,-5897,-9999,-31983,20977,-4562,-4610,5947,44,-1,25644,2020-11-02 15:08:19,2020-11-02 15:08:49,1,D7:F2:3B:06:4D:C8,44,44,4222.985023253208,-38912.43921284528,-5897.0
51005,-19202,-6916,-16389,13559,1041,-4119,12333,16384,-9410,44,-1,25670,2020-11-02 15:08:19,2020-11-02 15:08:49,1,D7:F2:3B:06:4D:C8,44,44,19540.428007336348,2476.1024270577796,17239.134869848425
51006,15358,-19205,9728,-12546,-5363,3813,-16084,-15102,-29374,44,-1,25695,2020-11-02 15:08:19,2020-11-02 15:08:49,1,D7:F2:3B:06:4D:C8,44,44,-21419.178311265212,-13049.411770967947,8382.47134811383
51007,-28676,-7945,-9727,5387,-17142,-9250,26158,11270,-19783,44,-1,25721,2020-11-02 15:08:19,2020-11-02 15:08:49,1,D7:F2:3B:06:4D:C8,44,44,4727.192552927004,2863.982065525433,30813.986877648604
51008,11502,30454,12536,18713,-2544,23005,13363,27401,-14146,44,-1,25747,2020-11-02 15:08:19,2020-11-02 15:08:49,1,D7:F2:3B:06:4D:C8,44,44,-11681.91573835384,32320.20815828114,-5985.850423070902
51009,-25885,3835,18665,-25053,26645,-18196,-22470,-11511,24260,44,-1,25772,2020-11-02 15:08:19,2020-11-02 15:08:49,1,D7:F2:3B:06:4D:C8,44,44,-19225.20078207629,-20480.676661325975,-15622.298594735374
51010,-15642,28161,-14876,-22753,27151,-12287,-13760,-17401,32710,44,-1,25798,2020-11-02 15:08:19,2020-11-02 15:08:49,1,D7:F2:3B:06:4D:C8,44,44,-19038.95363897761,-24638.126387724755,17014.418398386762
51011,-12305,24068,6888,-11754,-15096,15117,31044,-8187,20677,44,-1,25823,2020-11-02 15:08:19,2020-11-02 15:08:49,1,D7:F2:3B:06:4D:C8,44,44,-12912.290908087034,-11727.431598174811,-21768.469964953067
51012,28410,765,745,-32749,-27646,-25070,21690,11781,-22846,44,1,25849,2020-11-02 15:08:19,2020-11-02 15:08:49,1,D7:F2:3B:06:4D:C8,44,44,12149.45587173123,2603.06010933911,-25571.139006466314
51013,7934,11777,-17696,-12792,-5122,-22769,-14149,13829,-1601,44,1,25875,2020-11-02 15:08:19,2020-11-02 15:08:49,1,D7:F2:3B:06:4D:C8,44,44,-6343.000984135859,-20991.88855912296,-5822.495533412985
51014,-29447,-29440,31454,-15104,30196,-4850,-16197,-32506,-16195,44,1,25900,2020-11-02 15:08:19,2020-11-02 15:08:49,1,D7:F2:3B:06:4D:C8,44,44,35163.918209358744,-21333.680823111357,32118.008090526713
51015,13302,24063,-26914,-20229,-8456,-21229,-30022,10504,9147,44,1,25926,2020-11-02 15:08:19,2020-11-02 15:08:49,1,D7:F2:3B:06:4D:C8,44,44,-16557.741526266298,34612.83030938513,-2850.9195925292715
51016,12795,29435,-29986,-15882,-25351,7964,-28092,-5368,-24253,44,1,25951,2020-11-02 15:08:19,2020-11-02 15:08:49,1,D7:F2:3B:06:4D:C8,44,44,-10976.972141162834,7425.942988262312,41876.63906460513
51017,-14851,-14854,-19489,-8209,8698,-10470,-16576,15369,-1986,44,1,25977,2020-11-02 15:08:19,2020-11-02 15:08:49,1,D7:F2:3B:06:4D:C8,44,44,25836.469757243765,-11539.852441334457,4508.134216641682
51018,5632,17919,-9753,6381,24063,1817,26172,12296,-12998,44,1,26003,2020-11-02 15:08:19,2020-11-02 15:08:49,1,D7:F2:3B:06:4D:C8,44,44,-13667.293307757875,16018.625055250259,-2130.666322779191
51019,20738,8705,2287,-18192,-2300,7444,-3272,6406,-713,44,1,26028,2020-11-02 15:08:19,2020-11-02 15:08:49,1,D7:F2:3B:06:4D:C8,44,44,13129.233361349141,8705.0,-16214.753909425723
51020,-25856,-6142,7665,-8201,-24311,5902,2871,-27133,-20170,44,1,26054,2020-11-02 15:08:19,2020-11-02 15:08:49,1,D7:F2:3B:06:4D:C8,44,44,-23341.074332783275,2876.8979682288855,14557.706964762205
51021,-1790,17411,15085,32761,-32244,31240,5430,10497,-28362,44,1,26079,2020-11-02 15:08:19,2020-11-02 15:08:49,1,D7:F2:3B:06:4D:C8,44,44,-20841.606619776794,-2505.9834620010333,9656.693346827024
51022,-19708,18179,28651,-14859,-18161,-11008,-10188,10239,-25545,44,1,26105,2020-11-02 15:08:19,2020-11-02 15:08:49,1,D7:F2:3B:06:4D:C8,44,44,-18819.702380270985,-30120.913680383714,16682.639700505904
51023,22017,-30207,27635,23538,-21741,-3079,-17102,-18947,-711,44,1,26130,2020-11-02 15:08:19,2020-11-02 15:08:49,1,D7:F2:3B:06:4D:C8,44,44,-24049.918023612812,37698.981881907246,-12700.101224995527
51024,769,-20990,-4873,-4361,-19946,-30218,-18384,-13316,25661,44,1,26156,2020-11-02 15:08:19,2020-11-02 15:08:49,1,D7:F2:3B:06:4D:C8,44,44,20042.916009028584,-7532.752861539726,-2541.0120389306885
51025,8705,11776,13049,-10756,-26345,29424,23343,-28932,29249,44,-1,26182,2020-11-02 15:08:19,2020-11-02 15:08:49,1,D7:F2:3B:06:4D:C8,44,44,-1955.0944322653231,14288.108179532639,-13294.930327417947
51026,-1025,23294,7161,-4351,25111,-31254,-18898,16381,4166,44,-1,26207,2020-11-02 15:08:19,2020-11-02 15:08:49,1,D7:F2:3B:06:4D:C8,44,44,-9008.852201431248,-22050.324838094068,5250.213190652283
51027,-10760,13821,29691,26890,-9708,743,22319,-14594,12734,44,-1,26233,2020-11-02 15:08:19,2020-11-02 15:08:49,1,D7:F2:3B:06:4D:C8,44,44,4003.5502221380693,34200.097873507366,1636.463583870809
51028,3312,2813,24575,28439,-23279,-16662,-1231,9472,-27198,44,-1,26258,2020-11-02 15:08:19,2020-11-02 15:08:49,1,D7:F2:3B:06:4D:C8,44,44,-16815.36253850337,15165.61626586304,10490.977265025782
51029,3312,7678,-6929,-6879,12299,18931,-7370,-14848,-25915,44,-1,26284,2020-11-02 15:08:19,2020-11-02 15:08:49,1,D7:F2:3B:06:4D:C8,44,44,-3891.222572212972,7078.778334307512,7258.192143174416
51030,-28688,-23295,10220,15132,-1789,-7940,-15045,-28416,7879,44,-1,26310,2020-11-02 15:08:19,2020-11-02 15:08:49,1,D7:F2:3B:06:4D:C8,44,44,1076.7874705263584,36818.731766863304,10645.576021197201
51031,14066,-6910,-1302,-18410,-19458,15623,-27329,30976,-20794,44,-1,26335,2020-11-02 15:08:19,2020-11-02 15:08:49,1,D7:F2:3B:06:4D:C8,44,44,-7330.2104637654165,-6602.5486569153845,12246.224960777457
51032,1781,6144,3048,7956,11518,-4336,-15038,26368,-22076,44,-1,26361,2020-11-02 15:08:19,2020-11-02 15:08:49,1,D7:F2:3B:06:4D:C8,44,44,-3953.2752736091415,-780.4287753157128,5828.683087776328
51033,3577,25598,32742,-9198,15360,-5865,-19643,17664,26049,44,-1,26386,2020-11-02 15:08:19,2020-11-02 15:08:49,1,D7:F2:3B:06:4D:C8,44,44,-10044.0449424111,20071.97489565634,35161.40045537105
51034,-20485,30461,-5662,-26352,22527,-23269,-18245,28672,25021,44,-1,26412,2020-11-02 15:08:19,2020-11-02 15:08:49,1,D7:F2:3B:06:4D:C8,44,44,-18809.733600569252,25579.580471545196,-19272.90779242612
51035,28670,-18691,7649,15627,9216,1053,-24643,10497,-20155,44,-1,26437,2020-11-02 15:08:19,2020-11-02 15:08:49,1,D7:F2:3B:06:4D:C8,44,44,1520.5773386535425,-6276.700849756917,-34469.12318292756
51036,-25845,-22014,-14362,17416,-5888,-12258,-20290,514,6977,44,-1,26463,2020-11-02 15:08:19,2020-11-02 15:08:49,1,D7:F2:3B:06:4D:C8,44,44,-30597.410529910147,-11067.700140868901,17324.888093605514
51037,-27394,11255,10970,-18689,-4349,16412,12223,24066,-4292,44,-1,26489,2020-11-02 15:08:19,2020-11-02 15:08:49,1,D7:F2:3B:06:4D:C8,44,44,13615.591117661563,-14658.725417615817,-24437.360918225182
51038,32014,-32533,-18724,11777,11014,-5614,-30274,-29438,-4040,44,1,26514,2020-11-02 15:08:19,2020-11-02 15:08:49,1,D7:F2:3B:06:4D:C8,44,44,-25927.221462448666,8726.516239117464,-41054.9334741339
51039,-23299,9467,27364,-28683,1286,3342,-24131,-6655,-13258,44,1,26540,2020-11-02 15:08:19,2020-11-02 15:08:49,1,D7:F2:3B:06:4D:C8,44,44,-22973.338345408196,14436.226998846767,-25398.367296052034
51040,-8447,-22793,6633,22263,25353,-6643,-1861,1,22836,44,1,26565,2020-11-02 15:08:19,2020-11-02 15:08:49,1,D7:F2:3B:06:4D:C8,44,44,11579.014962492516,21372.858266932253,6633.0
51041,5117,10744,29172,-31754,-10742,11020,-29510,-30465,22066,44,1,26591,2020-11-02 15:08:19,2020-11-02 15:08:49,1,D7:F2:3B:06:4D:C8,44,44,-15555.71064292602,27395.45453555981,362.968571137279
51042,23295,30455,6885,8186,6154,-2803,2490,-8451,16688,44,1,26616,2020-11-02 15:08:19,2020-11-02 15:08:49,1,D7:F2:3B:06:4D:C8,44,44,-30519.461393075577,-6497.063175114048,23322.04796700209
51043,-30718,-19208,-21525,-9228,-501,-4090,26949,17660,-18130,44,1,26642,2020-11-02 15:08:19,2020-11-02 15:08:49,1,D7:F2:3B:06:4D:C8,44,44,-34629.86438278516,-1163.6246767643806,-23985.138803882954
51044,6404,-18952,17643,-13838,16142,-24834,-23741,11002,-31442,44,1,26668,2020-11-02 15:08:19,2020-11-02 15:08:49,1,D7:F2:3B:06:4D:C8,44,44,-4269.934380669189,-17834.440084749473,-19369.186256739347
51045,-11007,21241,21228,-2064,-18418,23031,6465,14328,-8913,44,1,26693,2020-11-02 15:08:19,2020-11-02 15:08:49,1,D7:F2:3B:06:4D:C8,44,44,11517.273846605638,-29756.74243464376,-2202.4524559148604
51046,-10238,10491,12528,15857,-2031,-16654,-7875,23286,28978,44,1,26719,2020-11-02 15:08:19,2020-11-02 15:08:49,1,D7:F2:3B:06:4D:C8,44,44,17884.6909530976,-3313.1110151422135,-6402.314730902585
51047,6145,15356,-12044,25843,18451,-18706,9530,-8716,17462,44,1,26744,2020-11-02 15:08:19,2020-11-02 15:08:49,1,D7:F2:3B:06:4D:C8,44,44,-544.6209548895877,-18540.243385098813,8636.461094499
51048,-29951,28669,-22024,28662,11538,-22805,17206,16628,-7878,44,1,26770,2020-11-02 15:08:19,2020-11-02 15:08:49,1,D7:F2:3B:06:4D:C8,44,44,-1833.3830488712974,-43922.317062358474,16477.236068885024
51049,-29696,-24580,-25092,25082,-7411,-30233,-9166,5109,-25025,44,1,26821,2020-11-02 15:08:19,2020-11-02 15:08:49,1,D7:F2:3B:06:4D:C8,44,44,45440.687042890844,7.94819425501737,7126.091347734733
51050,-1800,23806,29446,25858,-18426,-14361,-3536,9207,-29373,44,1,26823,2020-11-02 15:08:19,2020-11-02 15:08:49,1,D7:F2:3B:06:4D:C8,44,44,-16075.45652340291,29580.44795330969,17424.389471247458
51051,-516,-15361,32767,11791,-4862,9963,-14799,-25607,-10427,44,1,26847,2020-11-02 15:08:19,2020-11-02 15:08:49,1,D7:F2:3B:06:4D:C8,44,44,30768.551579450093,19056.992410538034,173.60866169355722
51052,7413,-2049,-12041,-24551,-28416,5099,-32204,-11781,-15941,44,1,26872,2020-11-02 15:08:19,2020-11-02 15:08:49,1,D7:F2:3B:06:4D:C8,44,44,9218.428250545452,-6206.680091665079,8979.663347212629
51053,25073,13824,8685,-9190,17145,-12816,31032,18174,20669,44,1,26898,2020-11-02 15:08:19,2020-11-02 15:08:49,1,D7:F2:3B:06:4D:C8,44,44,24352.81536788306,-15844.84017015736,7146.2545182750055
51054,7666,-31999,10986,-27112,2810,-5386,26684,8704,20414,44,1,26924,2020-11-02 15:08:19,2020-11-02 15:08:49,1,D7:F2:3B:06:4D:C8,44,44,-22417.303604290693,-26330.14337145017,2753.8703949049577
51055,15346,-2557,-12569,-18412,16379,30464,-7617,9729,-28482,44,1,26949,2020-11-02 15:08:19,2020-11-02 15:08:49,1,D7:F2:3B:06:4D:C8,44,44,6181.955955831504,11136.775267967032,-15419.90217838483
51056,-17164,-29178,8168,26128,-259,28426,-29630,-31231,30141,44,1,26975,2020-11-02 15:08:19,2020-11-02 15:08:49,1,D7:F2:3B:06:4D:C8,44,44,-23809.06194192801,23696.84460832001,9179.484138804859
51057,-14346,23814,-29979,-30706,22013,29712,-20668,-24319,16315,44,1,27000,2020-11-02 15:08:19,2020-11-02 15:08:49,1,D7:F2:3B:06:4D:C8,44,44,13093.20570094277,38209.3491682758,-6345.735072438903
51058,28922,-5118,3552,10508,-27650,26389,-12103,-6911,-6588,44,1,27026,2020-11-02 15:08:19,2020-11-02 15:08:49,1,D7:F2:3B:06:4D:C8,44,44,11509.305918312639,-8004.931626296488,26052.824394622017
51059,16129,-29696,-5413,1544,14335,32023,-838,6402,23873,44,1,27051,2020-11-02 15:08:19,2020-11-02 15:08:49,1,D7:F2:3B:06:4D:C8,44,44,-25192.937843640528,16262.564854149066,-16496.741895630803
51060,20737,765,10972,-32766,-25855,-32493,22715,16130,6462,44,1,27077,2020-11-02 15:08:19,2020-11-02 15:08:49,1,D7:F2:3B:06:4D:C8,44,44,-8005.932268925159,-16735.95059795429,-14380.757424009918
51061,-17659,-16652,-26407,7422,11013,30483,-582,-5631,2363,44,-1,27103,2020-11-02 15:08:19,2020-11-02 15:08:49,1,D7:F2:3B:06:4D:C8,44,44,-17659.0,-16652.0,-26407.0
51062,14858,5621,31718,19448,17158,-25840,-8519,-2560,17464,44,-1,27128,2020-11-02 15:08:19,2020-11-02 15:08:49,1,D7:F2:3B:06:4D:C8,44,44,-18904.357021994954,-27332.56366591634,12407.400131920469
51063,-11779,12792,-26132,32504,-9972,-19443,23365,31231,11574,44,-1,27154,2020-11-02 15:08:19,2020-11-02 15:08:49,1,D7:F2:3B:06:4D:C8,44,44,29929.414361472653,2219.006511858499,-9196.069545170063
51064,22531,27384,-17176,8955,-28144,-8432,-7356,-6404,-12237,44,-1,27179,2020-11-02 15:08:19,2020-11-02 15:08:49,1,D7:F2:3B:06:4D:C8,44,44,-16073.268905373008,-35943.838692310106,1494.9514228763383
51065,26634,-24327,-5913,-11784,-15859,-17396,29252,11258,-19919,44,-1,27205,2020-11-02 15:08:19,2020-11-02 15:08:49,1,D7:F2:3B:06:4D:C8,44,44,-34056.29837560245,7843.235324768913,-10713.94673275143
51066,20491,-5382,5095,-4876,-240,-28156,19779,-13065,-18896,44,-1,27230,2020-11-02 15:08:19,2020-11-02 15:08:49,1,D7:F2:3B:06:4D:C8,44,44,3868.054470574696,-4104.347569833125,21047.529917752156
51067,-14843,-13318,9708,7412,9489,13567,22337,20981,4401,44,-1,27256,2020-11-02 15:08:19,2020-11-02 15:08:49,1,D7:F2:3B:06:4D:C8,44,44,13072.94973758761,11814.72703147954,13469.938653540132
51068,19977,31741,32491,6900,-15600,-29445,-1986,-2062,18482,44,-1,27282,2020-11-02 15:08:19,2020-11-02 15:08:49,1,D7:F2:3B:06:4D:C8,44,44,-24256.370280415344,-28604.19743358277,32491.0
51069,14088,-22787,-22032,32244,-19695,-4106,-20165,3057,-11468,44,-1,27307,2020-11-02 15:08:19,2020-11-02 15:08:49,1,D7:F2:3B:06:4D:C8,44,44,11822.979189126565,-20904.156140058774,25027.21630876121
51070,1026,-32516,8694,25591,18450,-32527,-25545,-20241,-9416,44,-1,27333,2020-11-02 15:08:19,2020-11-02 15:08:49,1,D7:F2:3B:06:4D:C8,44,44,14108.75005407552,5186.228614886841,30132.619744485422
51071,22789,-9987,-4617,-18439,28432,24301,19251,-28433,-21443,44,1,27358,2020-11-02 15:08:19,2020-11-02 15:08:49,1,D7:F2:3B:06:4D:C8,44,44,13865.387788349874,-8668.674291760359,-19313.220510884537
51072,-30461,-12804,-6151,9725,31245,-15130,20783,-2320,-11966,44,1,27384,2020-11-02 15:08:19,2020-11-02 15:08:49,1,D7:F2:3B:06:4D:C8,44,44,24991.675929501384,22061.86065208389,4282.5432633908
51073,-18181,-2566,-20997,6143,8458,16867,-12756,-13,15290,44,1,27410,2020-11-02 15:08:19,2020-11-02 15:08:49,1,D7:F2:3B:06:4D:C8,44,44,23955.765587420155,-9031.02075455942,11071.09232421505
51074,-7938,2812,28157,25606,-23293,-16669,-2005,-31241,7357,44,1,27435,2020-11-02 15:08:19,2020-11-02 15:08:49,1,D7:F2:3B:06:4D:C8,44,44,11005.574275798816,22344.660189511116,15599.017048364054
51075,-28934,28412,-24326,-7668,-10491,225,-8916,28155,-18497,44,1,27461,2020-11-02 15:08:19,2020-11-02 15:08:49,1,D7:F2:3B:06:4D:C8,44,44,-47205.46415507717,-1558.6799144657962,2321.001255485422
51076,-2316,18685,-9226,-16621,-11004,-32541,11311,9471,-26430,44,1,27486,2020-11-02 15:08:19,2020-11-02 15:08:49,1,D7:F2:3B:06:4D:C8,44,44,-18603.9436164476,-5782.124721870286,7750.643367925988
51077,25328,18178,-32271,-26346,-28670,-15895,-23246,2306,14021,44,1,27512,2020-11-02 15:08:19,2020-11-02 15:08:49,1,D7:F2:3B:06:4D:C8,44,44,-21943.520241870763,17811.85450527205,34850.889048597135
51078,-7699,9219,-17,25363,15359,-14860,8502,-7165,-3898,44,1,27537,2020-11-02 15:08:19,2020-11-02 15:08:49,1,D7:F2:3B:06:4D:C8,44,44,-10679.787267814841,4995.351964540115,-2292.041374972365
51079,32753,24837,-25359,-494,20737,27646,7481,27908,-28217,44,1,27563,2020-11-02 15:08:19,2020-11-02 15:08:49,1,D7:F2:3B:06:4D:C8,44,44,-8750.743934356082,-43044.50518785036,20082.567383889298
51080,-21008,9989,26859,31253,25344,-15098,15932,6404,15815,44,1,27589,2020-11-02 15:08:19,2020-11-02 15:08:49,1,D7:F2:3B:06:4D:C8,44,44,31444.380920935306,-30.240100482450543,16546.058746282833
51081,243,-21244,-9755,-14828,-9475,-25073,11071,-19965,26053,44,1,27614,2020-11-02 15:08:19,2020-11-02 15:08:49,1,D7:F2:3B:06:4D:C8,44,44,-4452.337352923921,-152.84672931067144,22949.508490882705
51082,25590,-9469,-7967,-1518,22787,17685,-12479,-5630,-29502,44,1,27640,2020-11-02 15:08:19,2020-11-02 15:08:49,1,D7:F2:3B:06:4D:C8,44,44,10427.084336594839,23601.68687670633,11925.579181383464
51083,-14345,-28667,-18718,-16624,-23292,-9190,8260,-20223,-5186,44,1,27665,2020-11-02 15:08:19,2020-11-02 15:08:49,1,D7:F2:3B:06:4D:C8,44,44,19032.80258580816,261.8076913122459,31868.845609190554
51084,-8959,-9475,-13354,3084,31231,17439,4934,13569,23226,44,1,27691,2020-11-02 15:08:19,2020-11-02 15:08:49,1,D7:F2:3B:06:4D:C8,44,44,-1670.6204873907054,12561.386639988934,13703.620502181822
51085,-31224,21504,13018,4097,3325,-3301,-3399,31233,30018,44,1,27717,2020-11-02 15:08:19,2020-11-02 15:08:49,1,D7:F2:3B:06:4D:C8,44,44,14567.258903518794,26563.645802164687,-26248.737221721556
51086,-19959,22521,-3619,5628,-24578,31508,-187,-12287,-5570,44,1,27768,2020-11-02 15:08:19,2020-11-02 15:08:49,1,D7:F2:3B:06:4D:C8,44,44,11596.622098326558,22521.0,-16642.631940549672
51087,-27896,10745,26079,-25353,-32508,5393,-9404,9985,9532,44,1,27770,2020-11-02 15:08:19,2020-11-02 15:08:49,1,D7:F2:3B:06:4D:C8,44,44,-29199.13781199953,5885.673269604089,26201.627491423642
51088,21767,-26888,-3866,5621,25093,-26098,16963,5632,-7623,44,1,27793,2020-11-02 15:08:19,2020-11-02 15:08:49,1,D7:F2:3B:06:4D:C8,44,44,24134.338676404077,-10371.315612894978,-22840.365542397678
51089,12804,13818,-24345,2552,14346,-21490,578,-31746,-2761,44,1,27819,2020-11-02 15:08:19,2020-11-02 15:08:49,1,D7:F2:3B:06:4D:C8,44,44,-19713.000844002956,13818.0,-19183.822317889066
51090,13572,3834,13541,3065,12811,-5618,18241,17660,5174,44,1,27845,2020-11-02 15:08:19,2020-11-02 15:08:49,1,D7:F2:3B:06:4D:C8,44,44,-15251.607233925824,-5706.53726110477,10820.412666330445
51091,27907,-11781,1263,-11529,785,2568,22592,250,-6604,44,1,27870,2020-11-02 15:08:19,2020-11-02 15:08:49,1,D7:F2:3B:06:4D:C8,44,44,24742.398821894352,-17277.630632909382,-2912.8953381596584
51092,12039,5372,4332,26358,-7411,22016,9023,-19465,-3276,44,1,27896,2020-11-02 15:08:19,2020-11-02 15:08:49,1,D7:F2:3B:06:4D:C8,44,44,-12886.740050914254,-742.748319064161,-5093.366744569829
51093,29700,-6,-32531,12531,30994,-4361,-17604,22005,-13258,44,-1,27921,2020-11-02 15:08:19,2020-11-02 15:08:49,1,D7:F2:3B:06:4D:C8,44,44,6175.5264920646905,24511.120787022195,-36075.25228338418
51094,14595,-24837,-18701,-16400,28431,-29712,-8136,3828,9786,44,-1,27947,2020-11-02 15:08:19,2020-11-02 15:08:49,1,D7:F2:3B:06:4D:C8,44,44,32419.503244314285,-3471.697076601602,10795.421427633644
51095,-11521,31485,26106,21490,7951,19948,-32204,7156,22078,44,-1,27972,2020-11-02 15:08:19,2020-11-02 15:08:49,1,D7:F2:3B:06:4D:C8,44,44,-22885.269359248843,19527.564772319653,30008.34154726793
51096,-29182,-2566,-5384,11506,-22259,20964,-29392,-21515,-27070,44,-1,27998,2020-11-02 15:08:19,2020-11-02 15:08:49,1,D7:F2:3B:06:4D:C8,44,44,-22607.982774220673,19391.00489311723,-170.2354711702019
51097,-15618,31225,-26112,28152,-9210,6369,26157,-13832,-1095,44,-1,28023,2020-11-02 15:08:19,2020-11-02 15:08:49,1,D7:F2:3B:06:4D:C8,44,44,12467.296429993094,-40171.64881894691,-11470.145766025958
51098,-20229,15866,6658,-2303,16136,-2595,25644,-2564,189,44,-1,28049,2020-11-02 15:08:19,2020-11-02 15:08:49,1,D7:F2:3B:06:4D:C8,44,44,-20229.0,-5331.918674861882,-16359.387618265519
51099,-6667,-5382,18683,-12019,-31992,14560,-17875,1281,18624,44,-1,28075,2020-11-02 15:08:19,2020-11-02 15:08:49,1,D7:F2:3B:06:4D:C8,44,44,5476.3036019262545,-8825.825211536536,-17736.521930607916
51100,28402,6652,28918,3862,-5366,-5659,7217,4,-3389,44,-1,28100,2020-11-02 15:08:19,2020-11-02 15:08:49,1,D7:F2:3B:06:4D:C8,44,44,28402.0,-20739.567000039886,21221.927072036993
51101,-14098,-259,32242,12314,-27128,-2069,-18123,-21755,26567,44,-1,28126,2020-11-02 15:08:19,2020-11-02 15:08:49,1,D7:F2:3B:06:4D:C8,44,44,-8426.291203372564,-17109.380721276662,29574.21101044578
51102,-15121,-24578,14061,12825,19204,29426,31290,-32506,1738,44,-1,28152,2020-11-02 15:08:19,2020-11-02 15:08:49,1,D7:F2:3B:06:4D:C8,44,44,22135.834534538793,6511.585031723214,22316.77700372878
51103,-29711,-21249,-8727,-28396,-28160,-27912,29246,-5882,-24117,44,-1,28177,2020-11-02 15:08:19,2020-11-02 15:08:49,1,D7:F2:3B:06:4D:C8,44,44,31233.63203403645,-14138.623008031256,-15329.175463774342
51104,-32015,23296,11753,13586,27902,11007,-32191,16647,9420,44,-1,28228,2020-11-02 15:08:19,2020-11-02 15:08:49,1,D7:F2:3B:06:4D:C8,44,44,23734.409637864337,28335.570953457154,18427.42705544232
51105,-4111,27905,7397,-4079,14334,24070,6212,-32505,-30517,44,-1,28230,2020-11-02 15:08:19,2020-11-02 15:08:49,1,D7:F2:3B:06:4D:C8,44,44,-1345.6602437546026,26659.84077183742,11736.568643715827
51106,26094,-27389,27873,12816,27134,-19955,7238,-16889,-12855,44,-1,28254,2020-11-02 15:08:19,2020-11-02 15:08:49,1,D7:F2:3B:06:4D:C8,44,44,-33286.50162884081,19188.732520701433,27051.056163524445
51107,10995,-6141,31708,-15860,-27648,22037,-25670,-3321,-15162,44,1,28279,2020-11-02 15:08:19,2020-11-02 15:08:49,1,D7:F2:3B:06:4D:C8,44,44,-22745.723102721073,-1682.0011150417304,-25373.256054029396
51108,5880,15875,-21797,-4600,-6911,29977,-13638,-7929,-11326,44,1,28305,2020-11-02 15:08:19,2020-11-02 15:08:49,1,D7:F2:3B:06:4D:C8,44,44,-18081.533359344226,-20749.8676911387,2049.481928478591
51109,28410,25604,26843,-29437,-24831,-30439,15034,-22521,-22850,44,1,28331,2020-11-02 15:08:19,2020-11-02 15:08:49,1,D7:F2:3B:06:4D:C8,44,44,24588.090121725956,38922.68480792461,-7980.601262363431
51110,-11780,-29692,28895,25596,-14081,6937,19269,-29433,-31302,44,1,28356,2020-11-02 15:08:19,2020-11-02 15:08:49,1,D7:F2:3B:06:4D:C8,44,44,-34145.99073868535,-26179.819539394543,1993.1518653503326
51111,5619,-30218,18663,32257,-7154,-17383,-14269,-11515,28995,44,1,28382,2020-11-02 15:08:19,2020-11-02 15:08:49,1,D7:F2:3B:06:4D:C8,44,44,22584.430725588787,27809.784087124262,-3093.162108362778
51112,4357,21241,10713,31739,16396,19995,-7614,5379,22591,44,1,28407,2020-11-02 15:08:19,2020-11-02 15:08:49,1,D7:F2:3B:06:4D:C8,44,44,-7205.121253063609,-19671.313910722758,-12085.42658553915
51113,30466,-3338,20712,8436,-15606,-11506,7745,-3072,-19908,44,1,28433,2020-11-02 15:08:19,2020-11-02 15:08:49,1,D7:F2:3B:06:4D:C8,44,44,-32875.142140513664,14740.248901482297,8381.911211852153
51114,11264,24568,-2845,32498,-16627,-8950,24895,-32258,27963,44,1,28458,2020-11-02 15:08:19,2020-11-02 15:08:49,1,D7:F2:3B:06:4D:C8,44,44,-5382.779083610418,21629.70536709425,-15547.98636704253
51115,-4607,-13575,-21272,26349,-756,32520,-1220,9980,-16326,44,1,28484,2020-11-02 15:08:19,2020-11-02 15:08:49,1,D7:F2:3B:06:4D:C8,44,44,-3858.9182261147243,24188.807177254224,-7616.653823417089
51116,24322,15611,-15118,17900,270,-17917,-1991,-3591,-4806,44,1,28510,2020-11-02 15:08:19,2020-11-02 15:08:49,1,D7:F2:3B:06:4D:C8,44,44,24322.0,15611.0,-15118.0
51117,-3835,12028,13812,-24337,-1010,15613,-3018,5624,15164,44,1,28535,2020-11-02 15:08:19,2020-11-02 15:08:49,1,D7:F2:3B:06:4D:C8,44,44,-9341.106331701008,-8492.569781865519,13812.0
51118,19195,-18437,15872,-27661,-13809,-27913,-10189,4087,-15042,44,1,28561,2020-11-02 15:08:19,2020-11-02 15:08:49,1,D7:F2:3B:06:4D:C8,44,44,-4901.534042883188,-18866.48043612556,24089.8787456423
51119,17923,28667,3326,19452,-8434,22005,-20431,-31242,-21183,44,1,28586,2020-11-02 15:08:19,2020-11-02 15:08:49,1,D7:F2:3B:06:4D:C8,44,44,-2005.6039299228669,27906.99829074826,-19268.370280759387
51120,-29948,32762,-3075,-1021,-10226,32493,29232,8951,6725,44,1,28612,2020-11-02 15:08:19,2020-11-02 15:08:49,1,D7:F2:3B:06:4D:C8,44,44,-28761.397185556754,-33050.44721201407,7754.801352743971
51121,13826,15607,-20483,31494,1546,22754,3120,15353,21180,44,1,28637,2020-11-02 15:08:19,2020-11-02 15:08:49,1,D7:F2:3B:06:4D:C8,44,44,21932.35461265599,-18891.14728033936,-4048.0105702967576
51122,9976,23030,-29951,-20720,-25081,-2851,-3792,-15620,17856,44,1,28663,2020-11-02 15:08:19,2020-11-02 15:08:49,1,D7:F2:3B:06:4D:C8,44,44,-26101.87811106637,-19542.070083382423,21535.165031436463
51123,-23057,-1032,6385,-15330,-8439,-8735,-21452,-12289,24004,44,1,28689,2020-11-02 15:08:19,2020-11-02 15:08:49,1,D7:F2:3B:06:4D:C8,44,44,-8487.080666150501,-12768.069736456124,-18395.77002930966
51124,17126,-18944,-14620,19484,19970,23283,-27591,15361,23495,44,1,28714,2020-11-02 15:08:19,2020-11-02 15:08:49,1,D7:F2:3B:06:4D:C8,44,44,25244.657925961594,-6642.544935637547,-13583.19752411856
51125,7916,24070,-28440,-15087,1789,16901,-6340,-17919,26311,44,1,28740,2020-11-02 15:08:19,2020-11-02 15:08:49,1,D7:F2:3B:06:4D:C8,44,44,-6432.337780051381,9268.581272283587,36381.03885106083
51126,22771,-28671,-1557,-3822,27391,-22514,-32449,30721,-21051,44,1,28765,2020-11-02 15:08:19,2020-11-02 15:08:49,1,D7:F2:3B:06:4D:C8,44,44,-33851.09782767405,1881.5963069271006,13911.567208585784
51127,-17928,-29185,-32535,15892,-23041,-8939,27714,-9216,-11326,44,1,28791,2020-11-02 15:08:19,2020-11-02 15:08:49,1,D7:F2:3B:06:4D:C8,44,44,-29611.088666075462,35851.951066566384,8338.145281196983
51128,-18437,-27649,737,12561,20988,24344,12869,-9472,11967,44,-1,28817,2020-11-02 15:08:19,2020-11-02 15:08:49,1,D7:F2:3B:06:4D:C8,44,44,-14618.797873735068,5904.030486297587,-29263.740563088446
51129,-3846,-22784,-6692,-27124,-27398,-6888,-28998,-25855,29883,44,-1,28842,2020-11-02 15:08:19,2020-11-02 15:08:49,1,D7:F2:3B:06:4D:C8,44,44,-4428.64067212676,14809.492671200633,18432.34398059127
51130,3100,26891,23026,-246,32509,-20967,-12357,29954,8260,44,-1,28868,2020-11-02 15:08:19,2020-11-02 15:08:49,1,D7:F2:3B:06:4D:C8,44,44,9906.782073451646,33468.573870082066,-6681.525952355267
51131,8450,11001,12747,19204,-14586,-6624,-27459,-28414,25664,44,-1,28893,2020-11-02 15:08:19,2020-11-02 15:08:49,1,D7:F2:3B:06:4D:C8,44,44,-9129.375763796259,15189.562332220325,-6390.790586383101
51132,13586,17139,730,31738,15103,22551,-30276,4355,-11205,44,-1,28919,2020-11-02 15:08:19,2020-11-02 15:08:49,1,D7:F2:3B:06:4D:C8,44,44,10842.47292300754,-9183.664104770494,16642.076538839683
51133,17675,-8461,20192,27124,17157,-8695,-11334,-14334,-26567,44,-1,28944,2020-11-02 15:08:19,2020-11-02 15:08:49,1,D7:F2:3B:06:4D:C8,44,44,6124.642626821359,-26091.632494791855,8568.925046378026
51134,18177,1271,-24608,16880,2052,-18941,14917,-4095,-19144,44,-1,28970,2020-11-02 15:08:19,2020-11-02 15:08:49,1,D7:F2:3B:06:4D:C8,44,44,-14912.035134947244,-24193.572224794738,11396.258383247521
51135,19709,-23812,-8733,-17940,-7163,-15864,27458,7937,-13257,44,-1,28996,2020-11-02 15:08:19,2020-11-02 15:08:49,1,D7:F2:3B:06:4D:C8,44,44,-4597.746591048792,-31566.081246491234,-3763.5827378196173
51136,26880,32254,-5663,-26901,16905,4875,30783,31487,31286,44,-1,29021,2020-11-02 15:08:19,2020-11-02 15:08:49,1,D7:F2:3B:06:4D:C8,44,44,14578.981619917096,-36174.32262229733,16546.78708221227
51137,14341,27901,-27423,10474,-3317,5384,24124,25597,-16075,44,-1,29047,2020-11-02 15:08:19,2020-11-02 15:08:49,1,D7:F2:3B:06:4D:C8,44,44,-32558.46676557452,22553.99925923818,12938.870518297288
51138,18433,-24066,22504,20200,6414,-14079,-13768,26363,13366,44,-1,29072,2020-11-02 15:08:19,2020-11-02 15:08:49,1,D7:F2:3B:06:4D:C8,44,44,-18756.92154841344,-32253.515787484877,5767.709629751411
51139,513,-30210,26608,-1048,-19696,11773,-9164,-22535,-8649,44,1,29098,2020-11-02 15:08:19,2020-11-02 15:08:49,1,D7:F2:3B:06:4D:C8,44,44,1796.6428164258868,8431.399336870218,-39326.53700508614
51140,20227,-20482,17652,-20498,-19948,-263,3633,20984,-22982,44,1,29124,2020-11-02 15:08:19,2020-11-02 15:08:49,1,D7:F2:3B:06:4D:C8,44,44,26961.507336972965,118.51101677317229,-20329.781953018
51141,24575,-14852,4604,-3084,25623,-2571,-26835,-17673,31038,44,1,29149,2020-11-02 15:08:19,2020-11-02 15:08:49,1,D7:F2:3B:06:4D:C8,44,44,-362.86872725202284,23166.852462252766,17574.829110947147
51142,1793,1528,22783,9983,-19431,-6670,17707,-10249,-6334,44,1,29176,2020-11-02 15:08:19,2020-11-02 15:08:49,1,D7:F2:3B:06:4D:C8,44,44,6701.644175121818,-19187.56349863769,-10561.254392154488
51143,30192,-29941,27890,13834,-12783,-15133,-27094,21497,-16966,44,1,29200,2020-11-02 15:08:19,2020-11-02 15:08:49,1,D7:F2:3B:06:4D:C8,44,44,13442.758259719652,33065.11603219818,36219.64656299133
51144,-10760,-19466,-31243,12294,-13552,8167,12331,4604,-24386,44,1,29226,2020-11-02 15:08:19,2020-11-02 15:08:49,1,D7:F2:3B:06:4D:C8,44,44,-20597.57339086163,-32007.654047639888,-4698.70809634635
51145,-32258,14333,-30714,18434,-28155,29929,18731,-2050,29633,44,1,29251,2020-11-02 15:08:19,2020-11-02 15:08:49,1,D7:F2:3B:06:4D:C8,44,44,-18600.76771278988,28137.430965312276,32429.302616108158
51146,25337,-15877,-29185,-1790,-31233,-30493,-5077,-28670,4547,44,1,29277,2020-11-02 15:08:19,2020-11-02 15:08:49,1,D7:F2:3B:06:4D:C8,44,44,-20799.056162961933,-15877.0,-32574.945229884197
51147,15346,-27140,25596,-21492,-6140,12771,-18643,-28922,15557,44,1,29303,2020-11-02 15:08:19,2020-11-02 15:08:49,1,D7:F2:3B:06:4D:C8,44,44,-20943.78729407302,-27481.579060990647,-20817.183241138697
51148,-1044,-31235,6133,20244,4617,-4377,-23503,31241,-28728,44,1,29328,2020-11-02 15:08:19,2020-11-02 15:08:49,1,D7:F2:3B:06:4D:C8,44,44,-7690.702352602257,29613.702669301303,-8843.673531847217
51149,-21269,-15615,-2324,-24812,-19450,-31761,31030,-11254,-3893,44,1,29354,2020-11-02 15:08:19,2020-11-02 15:08:49,1,D7:F2:3B:06:4D:C8,44,44,-23536.818135784186,-6657.925040325412,-10163.158377218593
51150,-19477,15620,-19217,5904,-14848,-27404,17466,-22773,10702,44,1,29379,2020-11-02 15:08:19,2020-11-02 15:08:49,1,D7:F2:3B:06:4D:C8,44,44,19529.75095821202,6814.590887098141,-23765.125637195684
51151,-16149,-1534,23023,-21229,3329,-30729,-15811,24588,-17969,44,1,29405,2020-11-02 15:08:19,2020-11-02 15:08:49,1,D7:F2:3B:06:4D:C8,44,44,-13538.906898642137,-23721.12378262503,-6870.8203643583465
51152,-14876,-4347,20711,-31209,-12790,22017,-18367,-30709,-18480,44,1,29431,2020-11-02 15:08:19,2020-11-02 15:08:49,1,D7:F2:3B:06:4D:C8,44,44,24079.697709851043,-3866.8037867984963,8622.835535750119
51153,13285,-19963,-32541,24084,26123,23316,13124,-27127,-12338,44,1,29456,2020-11-02 15:08:19,2020-11-02 15:08:49,1,D7:F2:3B:06:4D:C8,44,44,39525.334377153704,-4701.950967571345,-7040.516633937206
51154,-10770,22274,30947,20499,-28662,10270,-32187,-11769,29642,44,1,29482,2020-11-02 15:08:19,2020-11-02 15:08:49,1,D7:F2:3B:06:4D:C8,44,44,-28900.247742183892,15354.923278383561,-22334.78893017236
51155,19190,16382,5601,-18160,17164,-25565,3258,2054,7877,44,1,29507,2020-11-02 15:08:19,2020-11-02 15:08:49,1,D7:F2:3B:06:4D:C8,44,44,-3416.5764235133593,24999.0605731954,5601.0
51156,23800,-18949,-10782,-1783,-26869,5159,-26438,10500,9407,44,-1,29533,2020-11-02 15:08:19,2020-11-02 15:08:49,1,D7:F2:3B:06:4D:C8,44,44,-13656.57190503893,16757.52327500034,-23967.46925501988
51157,-30985,-20489,3554,30209,9988,-9179,25530,-25597,-14011,44,-1,29558,2020-11-02 15:08:19,2020-11-02 15:08:49,1,D7:F2:3B:06:4D:C8,44,44,2043.3108367971427,-34180.730648141995,14832.491199505017
51158,-30731,-15891,-27935,-22017,-4599,26665,19270,-23038,-3777,44,-1,29584,2020-11-02 15:08:19,2020-11-02 15:08:49,1,D7:F2:3B:06:4D:C8,44,44,39319.67002005922,19674.15818863007,6646.315978225597
51159,10767,-5903,19673,16371,-19451,3358,-9916,20225,13882,44,-1,29610,2020-11-02 15:08:19,2020-11-02 15:08:49,1,D7:F2:3B:06:4D:C8,44,44,-8632.748927009608,-13252.816800397202,-16959.926881278825
51160,-6135,-10510,6369,30183,15621,-13299,-18367,7680,26679,44,-1,29635,2020-11-02 15:08:19,2020-11-02 15:08:49,1,D7:F2:3B:06:4D:C8,44,44,13373.528643800179,-1809.0815608995053,2557.0376452976925
51161,26123,-3338,-2843,28644,29705,28163,-15811,-23042,-26570,44,-1,29661,2020-11-02 15:08:19,2020-11-02 15:08:49,1,D7:F2:3B:06:4D:C8,44,44,9979.488295022462,-9724.667994311443,-22527.242791116812
51162,22018,16123,12523,2022,-3059,-13317,-22727,1277,-16329,44,-1,29686,2020-11-02 15:08:19,2020-11-02 15:08:49,1,D7:F2:3B:06:4D:C8,44,44,-22069.655317405362,-14113.95477140865,-14672.953924876616
51163,-3072,13822,10222,28392,-8435,19451,-17099,-17157,-24007,44,-1,29738,2020-11-02 15:08:19,2020-11-02 15:08:49,1,D7:F2:3B:06:4D:C8,44,44,-13515.223523490316,10228.04774891141,4207.1278036306785
51164,3073,-6147,25590,22250,14095,-18183,-11215,-8454,-7365,44,-1,29740,2020-11-02 15:08:19,2020-11-02 15:08:49,1,D7:F2:3B:06:4D:C8,44,44,7584.15710335215,21895.43881616196,12850.967204042714
51165,28673,17660,4600,13294,-20209,10230,20270,-25350,-24258,44,-1,29763,2020-11-02 15:08:19,2020-11-02 15:08:49,1,D7:F2:3B:06:4D:C8,44,44,26993.12167052934,-3512.6821957418797,-20352.12458864472
51166,-31235,22779,19452,1778,21775,31986,18731,22267,-24767,44,-1,29789,2020-11-02 15:08:19,2020-11-02 15:08:49,1,D7:F2:3B:06:4D:C8,44,44,411.73551955154926,38223.432786245736,20290.096842974745
51167,-8451,-26887,-27391,-2313,-14066,17646,10281,-4356,-28348,44,1,29814,2020-11-02 15:08:19,2020-11-02 15:08:49,1,D7:F2:3B:06:4D:C8,44,44,-925.2438002035524,-11965.842824107018,-37424.050828564126
51168,-28930,30201,10239,7166,8971,14826,20520,28159,-20806,44,1,29840,2020-11-02 15:08:19,2020-11-02 15:08:49,1,D7:F2:3B:06:4D:C8,44,44,-27545.28625338049,27734.048721126714,-18054.42241539444
51169,18429,507,769,28676,30984,6371,-20440,-5886,-2884,44,1,29865,2020-11-02 15:08:19,2020-11-02 15:08:49,1,D7:F2:3B:06:4D:C8,44,44,10658.052049728545,-393.4049095783879,15057.476883010539
51170,22781,-13320,-31492,30226,11017,-8224,13355,3591,-23105,44,1,29891,2020-11-02 15:08:19,2020-11-02 15:08:49,1,D7:F2:3B:06:4D:C8,44,44,-40757.1583934161,-5099.95224951503,993.4544512245284
51171,-10256,-11275,-21265,-26079,29461,-22817,23345,17674,-25660,44,1,29917,2020-11-02 15:08:19,2020-11-02 15:08:49,1,D7:F2:3B:06:4D:C8,44,44,-2103.898565003443,15782.008103629483,-20760.85781091787
51172,21477,-27397,23525,29476,-4843,-26391,-455,-27638,-12086,44,1,29942,2020-11-02 15:08:19,2020-11-02 15:08:49,1,D7:F2:3B:06:4D:C8,44,44,-26479.01196928195,7977.238464648119,-31630.813372544842
51173,-20001,9734,3045,28946,-5629,28411,16703,-9207,30925,44,1,29968,2020-11-02 15:08:19,2020-11-02 15:08:49,1,D7:F2:3B:06:4D:C8,44,44,-11415.120282428583,14547.769060748498,-12732.644120245266
51174,17380,-2042,16623,16399,16126,11528,13121,-4599,-10548,44,1,29993,2020-11-02 15:08:19,2020-11-02 15:08:49,1,D7:F2:3B:06:4D:C8,44,44,-2613.5328274696385,-22332.437068443975,-8774.39420950119
51175,19432,31234,12268,8473,23049,28692,25667,8969,29130,44,1,30019,2020-11-02 15:08:19,2020-11-02 15:08:49,1,D7:F2:3B:06:4D:C8,44,44,-15252.295132182237,12318.681812499044,-33455.743536846036
51176,-29206,-13320,26093,11550,-6886,4905,9286,32005,28101,44,1,30045,2020-11-02 15:08:19,2020-11-02 15:08:49,1,D7:F2:3B:06:4D:C8,44,44,-14836.85371813835,27422.835062120794,-27186.63962137069
51177,13036,-6686,-20258,19509,-18147,10781,8894,18434,12991,44,1,30070,2020-11-02 15:08:19,2020-11-02 15:08:49,1,D7:F2:3B:06:4D:C8,44,44,-5871.764091471658,-19451.975367796305,14566.03915773776
51178,31259,-20998,-16197,-28166,-25848,-3563,-832,9728,19014,44,1,30096,2020-11-02 15:08:19,2020-11-02 15:08:49,1,D7:F2:3B:06:4D:C8,44,44,-264.141805461255,21247.91426798595,-35054.8179622563
51179,7702,-31497,-15403,-8485,-18199,5637,22973,3074,24389,44,1,30121,2020-11-02 15:08:19,2020-11-02 15:08:49,1,D7:F2:3B:06:4D:C8,44,44,1724.4766686797539,-11666.443000056737,33905.08088687603
51180,-30456,30462,-17431,2781,-7695,14598,14660,-18940,-8636,44,-1,30147,2020-11-02 15:08:19,2020-11-02 15:08:49,1,D7:F2:3B:06:4D:C8,44,44,16295.939667085597,-19506.231554942267,-38901.03368667317
51181,27132,16643,14827,20714,-31999,19209,-18369,-12540,-22973,44,-1,30198,2020-11-02 15:08:19,2020-11-02 15:08:49,1,D7:F2:3B:06:4D:C8,44,44,8145.840350238579,12574.53786073438,31756.90609264987
51182,28418,4101,12517,5362,9991,-5106,1085,21763,66,44,-1,30200,2020-11-02 15:08:19,2020-11-02 15:08:49,1,D7:F2:3B:06:4D:C8,44,44,-26367.2076275061,4101.0,-16402.084468993082
51183,17410,-11263,-3103,6128,30728,-17397,-16326,18689,-14272,44,-1,30224,2020-11-02 15:08:19,2020-11-02 15:08:49,1,D7:F2:3B:06:4D:C8,44,44,8191.63808668104,13416.234460509884,-13874.206152334036
51184,-9980,19967,-20761,-13843,-26613,24840,9272,8447,23360,44,-1,30249,2020-11-02 15:08:19,2020-11-02 15:08:49,1,D7:F2:3B:06:4D:C8,44,44,21838.74668853476,-17946.135928147705,11415.163525874612
51185,-16642,-21505,17390,30705,13582,14085,-19915,765,-6592,44,-1,30275,2020-11-02 15:08:19,2020-11-02 15:08:49,1,D7:F2:3B:06:4D:C8,44,44,10988.062978115762,26832.625452029017,-14181.1837425543
51186,19712,30977,30706,27893,-10994,773,-17101,-9734,-4031,44,-1,30300,2020-11-02 15:08:19,2020-11-02 15:08:49,1,D7:F2:3B:06:4D:C8,44,44,45104.89864731995,15029.906232388552,-5535.878038812197
51187,2046,-2301,32757,5625,-9204,-23550,10034,8697,13891,44,-1,30326,2020-11-02 15:08:19,2020-11-02 15:08:49,1,D7:F2:3B:06:4D:C8,44,44,20214.74490225218,25053.86131997734,6794.842713132728
51188,-1286,27907,6133,-24325,3340,259,-5328,-17929,-26812,44,-1,30352,2020-11-02 15:08:19,2020-11-02 15:08:49,1,D7:F2:3B:06:4D:C8,44,44,-21386.539398832065,-17932.728543232253,-6253.104312015521
51189,-29443,-25595,12786,-28934,2314,32515,-12497,25590,-19387,44,-1,30377,2020-11-02 15:08:19,2020-11-02 15:08:49,1,D7:F2:3B:06:4D:C8,44,44,-2458.2082297789725,-22853.160628698784,-34017.14761084384
51190,3849,-2052,-26382,-19978,-18938,2047,6446,20213,-31302,44,-1,30403,2020-11-02 15:08:19,2020-11-02 15:08:49,1,D7:F2:3B:06:4D:C8,44,44,-21945.273129639514,166.15563812109576,15277.853532791916
51191,-22008,20473,6651,6385,6405,-1548,-26069,-7179,-14405,44,1,30428,2020-11-02 15:08:19,2020-11-02 15:08:49,1,D7:F2:3B:06:4D:C8,44,44,-7893.533669328057,27004.81754323946,-12496.541508254624
51192,18694,23541,11774,-6413,21768,-17429,-14808,-7433,-15171,44,1,30454,2020-11-02 15:08:19,2020-11-02 15:08:49,1,D7:F2:3B:06:4D:C8,44,44,-12587.733546756892,-29690.35893781924,1517.5451556077182
51193,-2050,-7689,-11007,23036,-9207,9190,1063,12027,-3137,44,1,30479,2020-11-02 15:08:19,2020-11-02 15:08:49,1,D7:F2:3B:06:4D:C8,44,44,-9155.535762148636,-7689.0,6444.587954867045
51194,-8201,26876,1536,-18682,-25588,-32539,4647,-7426,23234,44,1,30505,2020-11-02 15:08:19,2020-11-02 15:08:49,1,D7:F2:3B:06:4D:C8,44,44,24080.965313845314,-13235.75276329882,-6070.999204596097
51195,3831,1022,23291,12302,6670,-4125,-2776,-30462,21189,44,1,30531,2020-11-02 15:08:19,2020-11-02 15:08:49,1,D7:F2:3B:06:4D:C8,44,44,-23330.853873554704,2293.401510088376,2933.137065389519
51196,25588,-11012,13303,534,-23287,16614,31532,-1531,-31544,44,1,30556,2020-11-02 15:08:19,2020-11-02 15:08:49,1,D7:F2:3B:06:4D:C8,44,44,-1978.856037462121,27269.438598255976,14333.23216580778
51197,-18706,18176,18929,3095,-28662,25832,9777,-27640,-10037,44,1,30582,2020-11-02 15:08:19,2020-11-02 15:08:49,1,D7:F2:3B:06:4D:C8,44,44,11902.864148465182,-29841.783390330205,-2525.518193914784
51198,21225,-23285,-24592,27409,6911,-9232,27445,25354,28878,44,1,30607,2020-11-02 15:08:19,2020-11-02 15:08:49,1,D7:F2:3B:06:4D:C8,44,44,-14421.160121797302,36795.899459588734,-5962.402007691237
51199,25065,29189,-32524,-16364,24068,4091,7225,-1526,6352,44,1,30633,2020-11-02 15:08:19,2020-11-02 15:08:49,1,D7:F2:3B:06:4D:C8,44,44,-22757.44385515212,44399.509983261894,6988.90437950231
51200,-11028,-30978,-3858,14109,-18680,16131,19517,11530,-26160,44,1,30659,2020-11-02 15:08:19,2020-11-02 15:08:49,1,D7:F2:3B:06:4D:C8,44,44,-26293.170881039703,-17308.65391680408,10257.538525823255
51201,-19216,11516,-5403,22815,-12020,7438,-17343,7176,-22577,44,1,30684,2020-11-02 15:08:19,2020-11-02 15:08:49,1,D7:F2:3B:06:4D:C8,44,44,5459.967986185653,13064.478533957312,18181.679549084467
51202,-7693,4349,10719,2843,-8949,8468,24645,-1787,-308,44,1,30710,2020-11-02 15:08:19,2020-11-02 15:08:49,1,D7:F2:3B:06:4D:C8,44,44,-7693.0,5269.469840069834,-10297.740024131235
51203,10742,-26882,-26662,2837,-24822,-17895,-30533,22788,20425,44,1,30735,2020-11-02 15:08:19,2020-11-02 15:08:49,1,D7:F2:3B:06:4D:C8,44,44,12654.148176977491,-19926.601163052786,31491.23420896235
51204,-23815,-13827,4061,-1522,-1782,25376,22461,19971,-28732,44,1,30761,2020-11-02 15:08:19,2020-11-02 15:08:49,1,D7:F2:3B:06:4D:C8,44,44,-6128.044188412868,25520.52384939498,9272.63780578758
51205,-8714,-22534,-12580,30729,-20214,9002,21950,-17662,-32322,44,1,30786,2020-11-02 15:08:19,2020-11-02 15:08:49,1,D7:F2:3B:06:4D:C8,44,44,-21018.672766326723,13849.096863371433,-10411.016435057187
51206,-20736,28398,-19493,-32767,2566,15923,6334,9731,-25021,44,1,30812,2020-11-02 15:08:19,2020-11-02 15:08:49,1,D7:F2:3B:06:4D:C8,44,44,-24052.930469136827,-20719.212362999206,24669.33164688112
51207,14092,-1300,-802,-31495,20747,18220,-27460,-7934,2364,44,1,30838,2020-11-02 15:08:19,2020-11-02 15:08:49,1,D7:F2:3B:06:4D:C8,44,44,8000.6978802632875,1456.692308359654,11609.674799386778
51208,-25338,7925,3056,-26888,-10487,24602,-8518,-25599,-17610,44,1,30863,2020-11-02 15:08:19,2020-11-02 15:08:49,1,D7:F2:3B:06:4D:C8,44,44,-11669.870572316851,-8586.209857135473,22455.51438098452
51209,27130,25585,-4870,-4856,-8950,13087,-15174,31232,-27342,44,1,30889,2020-11-02 15:08:19,2020-11-02 15:08:49,1,D7:F2:3B:06:4D:C8,44,44,-6932.88780357152,31090.676054150514,19991.27195050283
51210,19725,-3594,-2577,-32245,1545,19722,-14404,-30209,7471,44,1,30914,2020-11-02 15:08:19,2020-11-02 15:08:49,1,D7:F2:3B:06:4D:C8,44,44,5985.186812551072,7752.57343443485,-17683.566777168
51211,-11518,-14096,-30243,6921,14866,2049,-19778,19709,13358,44,-1,30940,2020-11-02 15:08:19,2020-11-02 15:08:49,1,D7:F2:3B:06:4D:C8,44,44,-15428.730275303942,10434.448922463811,-29984.615168055985
51212,13570,-21006,-3609,23037,-18936,-26638,-24898,-12038,2863,44,-1,30966,2020-11-02 15:08:19,2020-11-02 15:08:49,1,D7:F2:3B:06:4D:C8,44,44,6663.3136997918045,16461.738105427343,17973.12566268005
51213,4098,8692,-9505,23275,13,25579,-7493,-5640,-32463,44,-1,30991,2020-11-02 15:08:19,2020-11-02 15:08:49,1,D7:F2:3B:06:4D:C8,44,44,4328.694831707693,2993.0548633182416,-12449.639217226904
51214,9470,-27660,-1550,-3613,28430,-14619,-1214,-1034,-26315,44,-1,31017,2020-11-02 15:08:19,2020-11-02 15:08:49,1,D7:F2:3B:06:4D:C8,44,44,14743.151930638891,25246.702183653586,-1550.0
51215,-3578,-18697,-14607,7660,-31731,-32538,-26563,502,19514,44,-1,31042,2020-11-02 15:08:19,2020-11-02 15:08:49,1,D7:F2:3B:06:4D:C8,44,44,257.5136457940064,-23547.783681262037,-4602.1638848175535
51216,1541,-3593,-21005,13294,12046,-5151,-30152,246,-17601,44,-1,31068,2020-11-02 15:08:19,2020-11-02 15:08:49,1,D7:F2:3B:06:4D:C8,44,44,1173.0603457335444,-19149.098540224928,-9403.739124519723
51217,14340,-266,26876,-24339,2829,32729,28211,-3849,-29371,44,-1,31094,2020-11-02 15:08:19,2020-11-02 15:08:49,1,D7:F2:3B:06:4D:C8,44,44,-15603.362505436287,19569.933105989392,-17366.016490578524
51218,13053,-29195,-22780,31990,-3322,-13614,-2257,22012,9406,44,-1,31119,2020-11-02 15:08:19,2020-11-02 15:08:49,1,D7:F2:3B:06:4D:C8,44,44,15847.840711188039,-29353.015334989934,20709.9896073527
51219,-7690,-26124,-18684,-6396,262,19410,-27345,-8959,-28990,44,-1,31145,2020-11-02 15:08:19,2020-11-02 15:08:49,1,D7:F2:3B:06:4D:C8,44,44,-29308.210880029623,10969.135378007562,-10554.53343690075
51220,31982,-25103,11515,19993,21005,21208,14387,23814,-19513,44,-1,31170,2020-11-02 15:08:19,2020-11-02 15:08:49,1,D7:F2:3B:06:4D:C8,44,44,0.015748081967103644,24.270945998856405,42256.402697353835
51221,30700,22263,26854,15654,-9965,8422,29242,32519,27341,44,-1,31196,2020-11-02 15:08:19,2020-11-02 15:08:49,1,D7:F2:3B:06:4D:C8,44,44,9968.95293577491,-37515.23684568568,25543.990815383804
51222,-18193,-5123,32221,-8429,28414,-29202,16448,31751,1233,44,-1,31223,2020-11-02 15:08:19,2020-11-02 15:08:49,1,D7:F2:3B:06:4D:C8,44,44,12164.216752917482,-27166.55214611928,-22570.633448802975
51223,23280,-2561,2802,21248,17905,-22544,-3775,-15351,14803,44,-1,31247,2020-11-02 15:08:19,2020-11-02 15:08:49,1,D7:F2:3B:06:4D:C8,44,44,7420.579259174536,-10060.183709816976,20002.400660496776
51224,29165,23809,-10509,-17908,18941,25080,-15549,-30965,-3628,44,1,31272,2020-11-02 15:08:19,2020-11-02 15:08:49,1,D7:F2:3B:06:4D:C8,44,44,-8293.53625825643,-19463.846689862003,-32867.62412110942
51225,-4120,-19453,-29208,4368,-6901,4619,5190,27402,29652,44,1,31298,2020-11-02 15:08:19,2020-11-02 15:08:49,1,D7:F2:3B:06:4D:C8,44,44,-11619.78442196406,-29297.19602158056,15973.596597515714
51226,4336,26365,6379,-13045,5387,-1511,-6727,-17400,-5424,44,1,31324,2020-11-02 15:08:19,2020-11-02 15:08:49,1,D7:F2:3B:06:4D:C8,44,44,-1648.188690083547,19612.813706303077,19163.161914562297
51227,-32263,-22275,-29469,-2035,-14325,3867,30138,1799,29644,44,1,31349,2020-11-02 15:08:19,2020-11-02 15:08:49,1,D7:F2:3B:06:4D:C8,44,44,-42308.627657307414,21129.553970146408,13000.797274705594
51228,19707,-26881,-3103,-16121,6154,-11493,-8262,-30459,4808,44,1,31375,2020-11-02 15:08:19,2020-11-02 15:08:49,1,D7:F2:3B:06:4D:C8,44,44,25672.904295939537,-17134.950749900367,-12956.776868111074
51229,5117,-6402,16611,29698,17414,6175,31418,30724,21187,44,1,31400,2020-11-02 15:08:19,2020-11-02 15:08:49,1,D7:F2:3B:06:4D:C8,44,44,6872.549019639193,-15235.004345921168,7984.818504663676
51230,-25330,-4355,-32030,-1028,512,-30439,9798,13828,-12866,44,1,31426,2020-11-02 15:08:19,2020-11-02 15:08:49,1,D7:F2:3B:06:4D:C8,44,44,25916.735032724995,-2482.9664282315944,31759.306477941227
51231,3351,5639,18158,17916,15104,29194,3653,-3581,21692,44,1,31452,2020-11-02 15:08:19,2020-11-02 15:08:49,1,D7:F2:3B:06:4D:C8,44,44,-4113.240581557684,-5109.674541321297,18158.0
51232,12286,-26368,11494,-17417,-13561,7701,-3261,-7934,16314,44,1,31477,2020-11-02 15:08:19,2020-11-02 15:08:49,1,D7:F2:3B:06:4D:C8,44,44,25238.824772241944,8214.412025474767,16548.547222998215
51233,23802,-14598,-2588,-25861,4109,-4587,-1214,7937,-7357,44,1,31503,2020-11-02 15:08:19,2020-11-02 15:08:49,1,D7:F2:3B:06:4D:C8,44,44,-6511.987808285645,-16876.38773122354,-21426.994747984296
51234,-31232,-10498,-19988,19709,-24823,31768,27202,-1282,30272,44,1,31528,2020-11-02 15:08:19,2020-11-02 15:08:49,1,D7:F2:3B:06:4D:C8,44,44,-16784.863330218504,27604.650006745942,21009.941289564507
51235,-17147,1536,-4379,-28423,25609,4627,4418,-1540,29757,44,1,31554,2020-11-02 15:08:19,2020-11-02 15:08:49,1,D7:F2:3B:06:4D:C8,44,44,-3391.0478082553595,16878.37965452035,-4379.0
51236,-26874,7678,-8729,-3342,31754,6669,-7616,1275,30011,44,1,31579,2020-11-02 15:08:19,2020-11-02 15:08:49,1,D7:F2:3B:06:4D:C8,44,44,-10688.587494410685,24863.331278370293,-11177.113049278021
51237,32006,14333,-8726,15854,-13812,26630,-14786,-7688,-27078,44,1,31605,2020-11-02 15:08:19,2020-11-02 15:08:49,1,D7:F2:3B:06:4D:C8,44,44,-5955.606182367795,28159.656098654108,21852.380291539757
51238,9738,-8708,10989,32234,20238,-18692,32571,-11274,22587,44,1,31631,2020-11-02 15:08:19,2020-11-02 15:08:49,1,D7:F2:3B:06:4D:C8,44,44,3205.6869330426025,-8605.999680143437,14390.14835895346
51239,28166,-17414,7921,-21017,8206,28659,-5834,-14859,-4035,44,1,31656,2020-11-02 15:08:19,2020-11-02 15:08:49,1,D7:F2:3B:06:4D:C8,44,44,-28937.020270533565,-2743.5326837244365,17732.317369031764
51240,-12542,8444,-1035,-14105,-26611,-2322,-20687,246,27201,44,1,31707,2020-11-02 15:08:19,2020-11-02 15:08:49,1,D7:F2:3B:06:4D:C8,44,44,1760.9724018858587,15051.419219165864,-166.9751140760577
51241,8961,4095,-9735,-28437,-26868,-26387,-1748,22519,-14268,44,1,31709,2020-11-02 15:08:19,2020-11-02 15:08:49,1,D7:F2:3B:06:4D:C8,44,44,7987.049754631742,7611.745450470339,8373.000562180867
51242,5633,-12544,20988,3312,21517,-21,19497,27897,8379,44,1,31733,2020-11-02 15:08:19,2020-11-02 15:08:49,1,D7:F2:3B:06:4D:C8,44,44,-726.8711864618999,16370.461571292139,19001.53718047934
51243,-12033,-13056,29184,12534,18445,9195,-15066,3324,-9795,44,1,31759,2020-11-02 15:08:19,2020-11-02 15:08:49,1,D7:F2:3B:06:4D:C8,44,44,20400.495287321406,27398.96569322032,-273.0420731557024
51244,23299,-21250,-2561,-3846,-24822,7399,32549,17919,-6209,44,1,31784,2020-11-02 15:08:19,2020-11-02 15:08:49,1,D7:F2:3B:06:4D:C8,44,44,-18102.934785081703,12492.021188332983,-22741.982780692597
51245,-261,9470,16381,1025,-27127,-11039,28965,26883,-9023,44,1,31810,2020-11-02 15:08:19,2020-11-02 15:08:49,1,D7:F2:3B:06:4D:C8,44,44,17383.758503919646,6971.080838875646,2700.9543156562895
51246,-14621,9724,-21235,-18933,-6914,-22549,31270,-23033,27075,44,1,31835,2020-11-02 15:08:19,2020-11-02 15:08:49,1,D7:F2:3B:06:4D:C8,44,44,-11977.48795358473,13064.96818396345,21097.427110284218
51247,25341,-21761,-24327,-12010,-21742,17896,-23510,4618,-18490,44,1,31861,2020-11-02 15:08:19,2020-11-02 15:08:49,1,D7:F2:3B:06:4D:C8,44,44,-20481.99452023169,-35884.20365885255,-567.5907356467378
51248,21233,11522,13547,-237,-26617,-22046,12592,10509,-11830,44,1,31886,2020-11-02 15:08:19,2020-11-02 15:08:49,1,D7:F2:3B:06:4D:C8,44,44,-22029.663721898436,-7012.958378990401,-15252.223217440152
51249,18417,28671,-22546,14853,29692,-20506,-6605,-32240,2254,44,1,31938,2020-11-02 15:08:19,2020-11-02 15:08:49,1,D7:F2:3B:06:4D:C8,44,44,-29591.90824229316,-3480.7974119333976,-27959.564766941203
51250,-24340,-18175,-1547,-30202,30209,-10266,32055,10003,1490,44,1,31940,2020-11-02 15:08:19,2020-11-02 15:08:49,1,D7:F2:3B:06:4D:C8,44,44,1145.3169174389382,-6639.016073698012,29660.936410231687
51251,-24861,6659,7920,11023,-17913,-19221,-26563,20500,29655,44,1,31963,2020-11-02 15:08:19,2020-11-02 15:08:49,1,D7:F2:3B:06:4D:C8,44,44,-2945.444248886524,-26517.5657162823,3644.3200544615797
51252,12513,7171,-26134,-30450,18953,29178,-26814,-27629,-10278,44,1,31989,2020-11-02 15:08:19,2020-11-02 15:08:49,1,D7:F2:3B:06:4D:C8,44,44,17483.603857458882,701.5566047387506,-24182.964675279087
51253,-21013,15108,-16394,-16375,-27128,-20472,-14525,20242,15066,44,1,32014,2020-11-02 15:08:19,2020-11-02 15:08:49,1,D7:F2:3B:06:4D:C8,44,44,11020.935437312295,26848.36025735046,9811.503583962978
51254,-6672,-12286,12270,-19955,-24312,11530,17220,-12272,15064,44,1,32040,2020-11-02 15:08:19,2020-11-02 15:08:49,1,D7:F2:3B:06:4D:C8,44,44,-15893.37670025499,9660.775643837374,-290.2947178822669
51255,-10515,18947,28393,9997,25352,21003,21573,-28145,26582,44,1,32066,2020-11-02 15:08:19,2020-11-02 15:08:49,1,D7:F2:3B:06:4D:C8,44,44,-9138.351874090831,24246.05735412737,24583.240445589476
51256,7661,3582,17901,-19702,14860,19733,3653,-12787,15827,44,1,32091,2020-11-02 15:08:19,2020-11-02 15:08:49,1,D7:F2:3B:06:4D:C8,44,44,4843.375461645955,-19190.507155328643,-483.3169341188486
51257,15597,-15616,-22043,14093,6420,-30433,-23740,-502,-25906,44,1,32117,2020-11-02 15:08:19,2020-11-02 15:08:49,1,D7:F2:3B:06:4D:C8,44,44,-30544.917366866754,-5772.299131864192,2590.038567967991
51258,14326,-21759,-30235,17928,-30445,-24793,-2749,11271,-12344,44,-1,32142,2020-11-02 15:08:19,2020-11-02 15:08:49,1,D7:F2:3B:06:4D:C8,44,44,-12418.977655527182,25150.871410836313,-28390.953546281133
51259,-4098,-8193,-27684,-6915,-18432,16931,-9406,9733,1475,44,-1,32168,2020-11-02 15:08:19,2020-11-02 15:08:49,1,D7:F2:3B:06:4D:C8,44,44,-8999.408315653356,-27721.979535399474,-908.4104837802915
51260,-27131,-518,-5152,-32525,-29187,-10723,28736,-30972,7614,44,-1,32193,2020-11-02 15:08:19,2020-11-02 15:08:49,1,D7:F2:3B:06:4D:C8,44,44,-377.18186552443694,-10003.108282658302,25742.924222506896
51261,-13822,5629,6376,-30474,8454,-28390,10302,12290,-31302,44,-1,32219,2020-11-02 15:08:19,2020-11-02 15:08:49,1,D7:F2:3B:06:4D:C8,44,44,5970.331887554451,11990.455653486824,9163.558881472653
51262,-28151,-18947,8167,8693,-4089,-10735,-27588,-14081,32580,44,-1,32246,2020-11-02 15:08:19,2020-11-02 15:08:49,1,D7:F2:3B:06:4D:C8,44,44,14347.511218735697,-26631.667774073867,-17408.925653227678
51263,-32501,26108,30439,-23314,-28404,21764,-30662,-26115,-5565,44,-1,32270,2020-11-02 15:08:19,2020-11-02 15:08:49,1,D7:F2:3B:06:4D:C8,44,44,46725.602428280385,-21782.84365839736,2588.6648813811144
51264,2310,5116,4335,28136,11535,14842,1079,-18181,-22203,44,-1,32296,2020-11-02 15:08:19,2020-11-02 15:08:49,1,D7:F2:3B:06:4D:C8,44,44,3591.599734661625,-4655.745808502788,-3965.630254144637
51265,28422,-20740,-30985,-2839,-29426,30195,-4046,14075,-20805,44,-1,32321,2020-11-02 15:08:19,2020-11-02 15:08:49,1,D7:F2:3B:06:4D:C8,44,44,36675.1539765034,26177.570146999202,-12949.741734826317
51266,-12031,7166,8445,-6928,-7921,28909,-31953,-9989,5311,44,-1,32347,2020-11-02 15:08:19,2020-11-02 15:08:49,1,D7:F2:3B:06:4D:C8,44,44,-14298.438867814933,-6065.392278500725,-5116.659501204174
51267,5377,16895,-25605,-14087,14353,10730,-31699,20477,-8766,44,-1,32373,2020-11-02 15:08:19,2020-11-02 15:08:49,1,D7:F2:3B:06:4D:C8,44,44,22498.93638492222,19273.51855822278,-9607.212027069305
51268,-32005,18431,-11012,-17152,525,1255,-2516,-23297,-29242,44,-1,32398,2020-11-02 15:08:19,2020-11-02 15:08:49,1,D7:F2:3B:06:4D:C8,44,44,-14103.77380277283,17297.15551669529,31419.387415280336
51269,-16905,-6659,21757,-27130,-4603,5608,-16083,-31486,22473,44,-1,32424,2020-11-02 15:08:19,2020-11-02 15:08:49,1,D7:F2:3B:06:4D:C8,44,44,4411.5244113073895,-23411.551441129726,15359.884976384928
51270,22262,32764,-28676,8464,2568,-4884,3888,-9212,-6709,44,-1,32449,2020-11-02 15:08:19,2020-11-02 15:08:49,1,D7:F2:3B:06:4D:C8,44,44,47106.33141446631,-12723.63825094586,3239.1181407186177
51271,6897,18941,32501,22040,-4088,31476,3380,-11003,-31282,44,-1,32475,2020-11-02 15:08:19,2020-11-02 15:08:49,1,D7:F2:3B:06:4D:C8,44,44,-24863.704875948726,-17279.03969858854,23363.990625240473
51272,-29973,7167,-16654,-24810,6145,-4096,3896,-11003,-27441,44,1,32500,2020-11-02 15:08:19,2020-11-02 15:08:49,1,D7:F2:3B:06:4D:C8,44,44,-3998.653018248452,-6334.964934635236,-34219.60442957508
51273,-5137,19712,-26379,32022,-9987,5645,6459,26629,18638,44,1,32526,2020-11-02 15:08:19,2020-11-02 15:08:49,1,D7:F2:3B:06:4D:C8,44,44,-6210.587490688827,-32294.349820391726,-5413.5872301704185
51274,12783,1,11506,-9954,14340,-16876,-14530,13316,-7989,44,1,32552,2020-11-02 15:08:19,2020-11-02 15:08:49,1,D7:F2:3B:06:4D:C8,44,44,3576.380262432836,13793.277844277145,-9630.582356693396
51275,-22287,-4103,28390,13089,-11002,23586,17219,29186,-12857,44,1,32577,2020-11-02 15:08:19,2020-11-02 15:08:49,1,D7:F2:3B:06:4D:C8,44,44,-8765.429068520378,-19286.279690008905,-29508.367405932306
51276,13568,-25870,-17957,9502,3589,-18136,4539,19457,-10815,44,1,32603,2020-11-02 15:08:19,2020-11-02 15:08:49,1,D7:F2:3B:06:4D:C8,44,44,-30395.488582686987,-542.4339030689439,15862.578992097919
51277,-3325,6642,26335,-10730,9471,9251,-18754,-4607,11708,44,1,32628,2020-11-02 15:08:19,2020-11-02 15:08:49,1,D7:F2:3B:06:4D:C8,44,44,3983.4921027908576,-1833.594062652824,-27008.77149150637
51278,24579,-3083,14822,-15855,-20734,9758,15297,-766,1092,44,1,32654,2020-11-02 15:08:19,2020-11-02 15:08:49,1,D7:F2:3B:06:4D:C8,44,44,24579.0,-12194.625763335414,-8971.492378205321
51279,-31225,21750,27097,-26360,31750,-26344,-19518,-21501,-12225,44,1,32679,2020-11-02 15:08:19,2020-11-02 15:08:49,1,D7:F2:3B:06:4D:C8,44,44,-30721.999419871143,-24575.525219951785,25189.538419926448
51280,-27638,-17420,6368,-20229,-17915,-30446,5570,7172,30268,44,1,32705,2020-11-02 15:08:19,2020-11-02 15:08:49,1,D7:F2:3B:06:4D:C8,44,44,-19420.352660343964,4239.717699977312,26697.22016188896
51281,-4850,-31238,-23313,5623,-27638,-22265,-32064,24579,13370,44,1,32731,2020-11-02 15:08:19,2020-11-02 15:08:49,1,D7:F2:3B:06:4D:C8,44,44,-25106.37324251545,22431.501337546477,20231.87789976885
51282,23804,-3857,-29484,15094,-10483,-3067,-20033,16641,-968,44,-1,32756,2020-11-02 15:08:19,2020-11-02 15:08:49,1,D7:F2:3B:06:4D:C8,44,44,17130.398090154697,-342.3812582492069,-34018.30914885136
51283,26634,-25102,17377,21735,21509,11779,-18756,17920,-5065,44,-1,32782,2020-11-02 15:08:19,2020-11-02 15:08:49,1,D7:F2:3B:06:4D:C8,44,44,-28295.258978306378,27303.034029720693,9765.405323000483
51284,4607,27639,-4882,-1554,-6387,-3587,-699,-17154,-2761,44,-1,32807,2020-11-02 15:08:19,2020-11-02 15:08:49,1,D7:F2:3B:06:4D:C8,44,44,2522.001561790293,27639.0,6220.7621014090655
51285,8709,19194,23781,13809,266,-15108,-19133,-9988,28216,44,-1,32833,2020-11-02 15:08:19,2020-11-02 15:08:49,1,D7:F2:3B:06:4D:C8,44,44,-29355.60177729793,-10052.039671964701,-6855.466484926485
51286,28932,1530,-8473,-13075,-29173,-26120,-4288,30971,-23751,44,-1,32859,2020-11-02 15:08:19,2020-11-02 15:08:49,1,D7:F2:3B:06:4D:C8,44,44,-11833.136819421714,11359.932592087262,25340.127417124007
51287,24836,-519,21736,1258,18700,7668,29501,11514,-20933,44,-1,32884,2020-11-02 15:08:19,2020-11-02 15:08:49,1,D7:F2:3B:06:4D:C8,44,44,7154.2611785169665,-19885.35067917099,-25356.2483099523
51288,26626,-31496,24044,-24089,26893,17647,8249,-29703,-20162,44,-1,32910,2020-11-02 15:08:19,2020-11-02 15:08:49,1,D7:F2:3B:06:4D:C8,44,44,93.38088196143872,37639.54557546316,-29365.14459156494
51289,2816,-22281,18417,32741,24077,22508,18484,-15111,20290,44,-1,32961,2020-11-02 15:08:19,2020-11-02 15:08:49,1,D7:F2:3B:06:4D:C8,44,44,-20829.427205265096,-16686.557473873167,11456.546947998326
51290,-12545,-25351,-27657,17126,-16629,7402,29999,12283,-12219,44,-1,32963,2020-11-02 15:08:19,2020-11-02 15:08:49,1,D7:F2:3B:06:4D:C8,44,44,-39057.00215760604,-4331.026154984174,4555.509840358191
51291,13824,1531,-7941,-28948,29195,25576,-27093,-30467,21948,44,-1,32986,2020-11-02 15:08:19,2020-11-02 15:08:49,1,D7:F2:3B:06:4D:C8,44,44,-10616.4974169382,-3546.329939578463,-11455.127435161685
51292,-2561,-19718,-20739,-27148,9227,-16155,16937,-24064,9151,44,-1,33012,2020-11-02 15:08:19,2020-11-02 15:08:49,1,D7:F2:3B:06:4D:C8,44,44,-25671.10068686813,10109.185584756277,8016.440752455832
51293,-9732,15611,-4614,24316,-29940,-22046,-27096,22276,-1087,44,-1,33038,2020-11-02 15:08:19,2020-11-02 15:08:49,1,D7:F2:3B:06:4D:C8,44,44,11727.466853446003,-6712.143851951065,-13308.560670186715
51294,-30985,-20997,-12810,4353,14093,-31007,32553,22280,17861,44,-1,33063,2020-11-02 15:08:19,2020-11-02 15:08:49,1,D7:F2:3B:06:4D:C8,44,44,-30099.21935402758,22714.795335987328,-11963.08493334139
51295,-11020,-22789,12792,-16127,-12536,22754,18731,15372,-24376,44,-1,33089,2020-11-02 15:08:19,2020-11-02 15:08:49,1,D7:F2:3B:06:4D:C8,44,44,-9267.197341038154,-21024.138155835375,16628.856041429983
51296,-24335,20222,-3080,-25084,32520,1251,2862,-9713,25804,44,-1,33114,2020-11-02 15:08:19,2020-11-02 15:08:49,1,D7:F2:3B:06:4D:C8,44,44,22204.26592548561,-5228.776097586712,-22141.327517374033
51297,743,10754,7158,-25593,-5626,7911,24370,-20206,6865,44,-1,33140,2020-11-02 15:08:19,2020-11-02 15:08:49,1,D7:F2:3B:06:4D:C8,44,44,1936.3977879886634,32.07707258933897,12794.016713608227
51298,-27937,-25340,-18441,13827,21249,-7439,566,-29676,-16940,44,-1,33166,2020-11-02 15:08:19,2020-11-02 15:08:49,1,D7:F2:3B:06:4D:C8,44,44,-12384.828278991305,33830.624860800584,21558.453099136743
