id,accelerationx,accelerationy,accelerationz,angularvelocityx,angularvelocityy,angularvelocityz,pitch,roll,yaw,mdlcircle_id,hallsensor,timestamp,starttime,endtime,train_mode,blemac,training_id,training_handle_id,accelerationWorldx,accelerationWorldy,accelerationWorldz
61317,31245,-28422,9,-22519,-9722,9744,-31814,10978,-25399,53,1,56448,2020-11-02 15:17:29,2020-11-02 15:17:59,2,D7:F2:3B:06:4D:C8,53,53,10062.613954515396,696.8102939769824,-41016.0754560526
61318,25105,-21000,21517,26640,-22522,-32748,-17463,6114,7100,53,1,56474,2020-11-02 15:17:29,2020-11-02 15:17:59,2,D7:F2:3B:06:4D:C8,53,53,-21057.757069613413,11302.617065474526,-31033.27292871943
61319,14623,-9997,-25334,-19176,4345,-5865,-1837,-5660,-30911,53,1,56499,2020-11-02 15:17:29,2020-11-02 15:17:59,2,D7:F2:3B:06:4D:C8,53,53,13734.358111836153,11186.578800323201,-25334.0
61320,-18393,-15121,-10236,543,-30484,-20716,-31274,-10008,-23997,53,1,56525,2020-11-02 15:17:29,2020-11-02 15:17:59,2,D7:F2:3B:06:4D:C8,53,53,-7258.833986887471,-50.16387173898056,-24880.30543897682
61321,-8413,18664,14331,29216,-4635,25865,15319,-3605,12220,53,1,56550,2020-11-02 15:17:29,2020-11-02 15:17:59,2,D7:F2:3B:06:4D:C8,53,53,22412.70758738291,1005.1467583452741,11007.326859717425
61322,-3812,-7451,-30478,-27364,23531,-2564,-9257,-2068,31169,53,1,56576,2020-11-02 15:17:29,2020-11-02 15:17:59,2,D7:F2:3B:06:4D:C8,53,53,-29534.660522401115,-4761.446207316755,-10197.533370445526
61323,-2786,30697,-4371,-11245,-2829,20472,31448,-32020,24517,53,1,56602,2020-11-02 15:17:29,2020-11-02 15:17:59,2,D7:F2:3B:06:4D:C8,53,53,23161.920741760026,19908.217407038104,-6030.054164477402
61324,-14576,-7704,-28432,30475,30961,12021,-31529,-28949,25545,53,1,56627,2020-11-02 15:17:29,2020-11-02 15:17:59,2,D7:F2:3B:06:4D:C8,53,53,31367.92450329849,-2049.2481237970296,9593.951765694903
61325,-22773,19428,-14092,-26618,22768,14326,18645,-17430,-16691,53,1,56653,2020-11-02 15:17:29,2020-11-02 15:17:59,2,D7:F2:3B:06:4D:C8,53,53,-24082.521391312926,-11181.783095675026,-19739.3279327902
61326,-31989,19176,-32267,24324,-4116,-1291,-21295,-26646,7379,53,1,56678,2020-11-02 15:17:29,2020-11-02 15:17:59,2,D7:F2:3B:06:4D:C8,53,53,43059.08914183975,23496.769479520433,5098.142044056342
61327,-14325,29929,-24847,-15617,32495,17652,27597,-9750,-17192,53,1,56704,2020-11-02 15:17:29,2020-11-02 15:17:59,2,D7:F2:3B:06:4D:C8,53,53,-3091.234226831786,38314.36769570423,-15517.009184544524
61328,-31731,995,30192,17913,17650,29684,5065,18411,24797,53,1,56729,2020-11-02 15:17:29,2020-11-02 15:17:59,2,D7:F2:3B:06:4D:C8,53,53,-22565.160259604447,-27648.65901638301,-25411.974481613004
61329,21508,32483,8691,-6159,-14603,-14607,5060,-13845,-25631,53,1,56755,2020-11-02 15:17:29,2020-11-02 15:17:59,2,D7:F2:3B:06:4D:C8,53,53,-13567.23525698293,-33986.84205581961,15940.436899735549
61330,8,-31512,25329,16619,3321,-10258,8894,15340,-13595,53,1,56781,2020-11-02 15:17:29,2020-11-02 15:17:59,2,D7:F2:3B:06:4D:C8,53,53,-30005.4262658723,26566.9878307442,5332.354189698057
61331,-19461,19937,10998,4838,-26886,-20242,9284,4077,-12823,53,1,56806,2020-11-02 15:17:29,2020-11-02 15:17:59,2,D7:F2:3B:06:4D:C8,53,53,9478.500779671494,17064.330578277015,22718.651784052832
61332,23545,-3092,23547,26340,-3844,18419,1342,13038,-22292,53,1,56832,2020-11-02 15:17:29,2020-11-02 15:17:59,2,D7:F2:3B:06:4D:C8,53,53,-11933.174678104831,1422.2231967221642,-31208.417474786234
61333,32501,-6672,5377,25332,21753,17663,-32198,8175,23789,53,1,56857,2020-11-02 15:17:29,2020-11-02 15:17:59,2,D7:F2:3B:06:4D:C8,53,53,-14132.629075950179,-5579.307909174997,-29981.374762612624
61334,-19204,17143,-20489,-14355,11520,7942,1593,29167,6892,53,1,56883,2020-11-02 15:17:29,2020-11-02 15:17:59,2,D7:F2:3B:06:4D:C8,53,53,-6753.0709029652135,21211.249058783826,-24227.136288586953
61335,12790,-7962,13048,13539,-9211,-3065,-6603,23278,23275,53,1,56934,2020-11-02 15:17:29,2020-11-02 15:17:59,2,D7:F2:3B:06:4D:C8,53,53,17319.839651660786,9837.274029788876,692.1286756088966
61336,-21249,5862,23809,-3107,6148,-8179,-16847,30444,27114,53,1,56936,2020-11-02 15:17:29,2020-11-02 15:17:59,2,D7:F2:3B:06:4D:C8,53,53,8926.73262657511,-19053.557252283266,-24698.72317848846
61337,25080,27102,-3057,30687,5636,-21995,8238,-24343,-28696,53,1,56960,2020-11-02 15:17:29,2020-11-02 15:17:59,2,D7:F2:3B:06:4D:C8,53,53,-16617.45958372276,4515.104873916059,-32807.680776929046
61338,23303,18657,5397,-20509,-29688,24344,26154,-20507,-28185,53,1,56986,2020-11-02 15:17:29,2020-11-02 15:17:59,2,D7:F2:3B:06:4D:C8,53,53,19589.688075840975,-10273.119229639091,20759.292121478356
61339,-24565,-7191,28184,27115,-8437,-3308,-20702,-8991,-12565,53,1,57011,2020-11-02 15:17:29,2020-11-02 15:17:59,2,D7:F2:3B:06:4D:C8,53,53,6197.9910256305375,-13121.67864695518,-35197.92634136624
61340,-10226,4074,-5095,-26640,22789,12820,-29936,23519,26107,53,1,57037,2020-11-02 15:17:29,2020-11-02 15:17:59,2,D7:F2:3B:06:4D:C8,53,53,1420.6597121003556,-7597.718312194955,-9347.939849557888
61341,-20207,-16659,-2021,-12555,32509,6678,21232,-16673,-8423,53,1,57062,2020-11-02 15:17:29,2020-11-02 15:17:59,2,D7:F2:3B:06:4D:C8,53,53,18833.238509059436,1721.008353502196,-18228.462044507658
61342,-26341,-11281,-3818,-15877,16123,20245,14563,-29726,11814,53,1,57088,2020-11-02 15:17:29,2020-11-02 15:17:59,2,D7:F2:3B:06:4D:C8,53,53,-856.7562033299878,-17751.435740559864,22799.975086758965
61343,-19676,-26642,-27631,15108,-2065,-17126,-14628,2022,3629,53,1,57113,2020-11-02 15:17:29,2020-11-02 15:17:59,2,D7:F2:3B:06:4D:C8,53,53,-19676.0,-14037.813181331443,35724.055286123905
61344,22041,26603,27672,3596,-1553,15897,28122,1258,11825,53,-1,57139,2020-11-02 15:17:29,2020-11-02 15:17:59,2,D7:F2:3B:06:4D:C8,53,53,-12403.351168681475,18563.106141733086,-38220.84305921468
61345,-3805,22761,31249,29204,-24082,2325,-28198,-12563,-31948,53,-1,57164,2020-11-02 15:17:29,2020-11-02 15:17:59,2,D7:F2:3B:06:4D:C8,53,53,38218.9643426372,-6619.884728899951,-2128.153601670694
61346,16164,-4892,12022,16663,-12563,-5618,-9765,-28944,-9161,53,-1,57190,2020-11-02 15:17:29,2020-11-02 15:17:59,2,D7:F2:3B:06:4D:C8,53,53,14263.833330088884,-8383.448545669247,-12489.83159268217
61347,-6626,-13843,2575,-31737,-12046,14843,32219,4849,-13510,53,-1,57216,2020-11-02 15:17:29,2020-11-02 15:17:59,2,D7:F2:3B:06:4D:C8,53,53,1432.0828235557165,6631.541105702247,14004.818861729635
61348,-31734,-6427,22497,-24046,21481,19200,31451,3825,-6594,53,-1,57241,2020-11-02 15:17:29,2020-11-02 15:17:59,2,D7:F2:3B:06:4D:C8,53,53,-527.050750958344,37374.114891349906,12544.554499626192
61349,-14066,-22044,25817,-21745,14561,25353,-13094,-30222,-7869,53,-1,57267,2020-11-02 15:17:29,2020-11-02 15:17:59,2,D7:F2:3B:06:4D:C8,53,53,30136.151461338828,13492.771371755498,16126.53951747804
61350,14623,5100,31483,16655,-26138,30714,-3111,15091,21692,53,-1,57292,2020-11-02 15:17:29,2020-11-02 15:17:59,2,D7:F2:3B:06:4D:C8,53,53,-23036.217639699335,-1867.8210060849287,-26398.207127485628
61351,23070,-5920,10984,5136,-13844,-4376,4570,13297,-19520,53,-1,57318,2020-11-02 15:17:29,2020-11-02 15:17:59,2,D7:F2:3B:06:4D:C8,53,53,-1218.7708052220314,5806.111737091069,-25548.448489502287
61352,3842,7898,17903,-26105,27123,17636,-5672,24557,-26684,53,-1,57344,2020-11-02 15:17:29,2020-11-02 15:17:59,2,D7:F2:3B:06:4D:C8,53,53,4520.508671760839,-17316.978061982125,-8794.546557348183
61353,-13057,-26658,6386,30215,9710,24813,12502,-10006,-30263,53,-1,57369,2020-11-02 15:17:29,2020-11-02 15:17:59,2,D7:F2:3B:06:4D:C8,53,53,-650.5925858788887,16438.56748066371,-25519.90277157938
61354,-4854,-32541,20974,28673,14062,-18959,-9263,-9495,-31025,53,-1,57395,2020-11-02 15:17:29,2020-11-02 15:17:59,2,D7:F2:3B:06:4D:C8,53,53,-10049.147002632151,-33734.97205751862,16833.091748039846
61355,16653,23020,-19164,-524,-31501,-27413,26827,17897,7126,53,-1,57420,2020-11-02 15:17:29,2020-11-02 15:17:59,2,D7:F2:3B:06:4D:C8,53,53,15584.814528832434,-30420.136586919634,2496.107196225121
61356,-12042,1245,11980,-29455,-5901,-30738,-3900,1769,-13092,53,-1,57446,2020-11-02 15:17:29,2020-11-02 15:17:59,2,D7:F2:3B:06:4D:C8,53,53,6143.315502098662,10431.656802333668,11980.0
61357,-4611,-4137,-273,-5925,5882,-19214,-14660,28137,9953,53,-1,57471,2020-11-02 15:17:29,2020-11-02 15:17:59,2,D7:F2:3B:06:4D:C8,53,53,-1195.9939130542923,864.270028756891,-6022.728192217348
61358,-22532,-3619,-28924,-14629,5883,-27144,-191,29674,25059,53,1,57497,2020-11-02 15:17:29,2020-11-02 15:17:59,2,D7:F2:3B:06:4D:C8,53,53,-16690.531393895166,-13787.99627082369,-29811.12680904819
61359,-20230,-20255,25859,18649,21509,-260,-28101,-30742,23268,53,1,57523,2020-11-02 15:17:29,2020-11-02 15:17:59,2,D7:F2:3B:06:4D:C8,53,53,19162.508004923096,31871.860131571822,10256.150579763393
61360,22772,-21536,13317,-2856,-7159,20228,-8652,20969,24037,53,1,57548,2020-11-02 15:17:29,2020-11-02 15:17:59,2,D7:F2:3B:06:4D:C8,53,53,12075.019354618486,14638.689688907474,-28277.348545743513
61361,1020,-4384,-18929,-24869,16135,21260,2351,17127,-32027,53,1,57574,2020-11-02 15:17:29,2020-11-02 15:17:59,2,D7:F2:3B:06:4D:C8,53,53,-798.901350719309,-18155.70126083502,6949.760093638663
61362,4357,29414,26645,28896,16646,16653,-11479,-14364,-23835,53,1,57599,2020-11-02 15:17:29,2020-11-02 15:17:59,2,D7:F2:3B:06:4D:C8,53,53,-30374.221117184738,16828.129420760757,19706.43604821773
61363,27140,-18702,-18657,31980,27395,29450,4900,-15646,-23577,53,1,57625,2020-11-02 15:17:29,2020-11-02 15:17:59,2,D7:F2:3B:06:4D:C8,53,53,10447.209964057567,16515.91950967415,32442.383693509037
61364,19702,-28167,-19685,23546,23039,27914,-9185,18401,4330,53,1,57651,2020-11-02 15:17:29,2020-11-02 15:17:59,2,D7:F2:3B:06:4D:C8,53,53,-17660.977569564464,-31783.05138533133,-15715.45207509885
61365,15622,-25870,5385,-4351,17656,23058,-17374,-22562,3815,53,1,57676,2020-11-02 15:17:29,2020-11-02 15:17:59,2,D7:F2:3B:06:4D:C8,53,53,-15228.533895169065,26371.03713045591,3868.0957935142496
61366,-5375,-25619,-26888,-1029,20733,-19183,22221,10206,19772,53,1,57702,2020-11-02 15:17:29,2020-11-02 15:17:59,2,D7:F2:3B:06:4D:C8,53,53,-20402.70036563121,-26543.457043680148,16951.785627495963
61367,-5354,-27663,12553,3061,32510,-1004,-9514,10977,13873,53,1,57727,2020-11-02 15:17:29,2020-11-02 15:17:59,2,D7:F2:3B:06:4D:C8,53,53,-5336.651898867598,22194.09218888833,20746.737392212755
61368,-19952,24812,16674,26620,-5384,-32483,19159,3813,-26833,53,1,57753,2020-11-02 15:17:29,2020-11-02 15:17:59,2,D7:F2:3B:06:4D:C8,53,53,33412.145075140295,2494.224714424284,-13005.665248334402
61369,27688,11246,24091,-26361,30971,-2535,31704,-30487,-2002,53,-1,57778,2020-11-02 15:17:29,2020-11-02 15:17:59,2,D7:F2:3B:06:4D:C8,53,53,4065.945674326821,26291.50963862911,-27671.262126894315
61370,31521,-17188,-25072,7432,-262,19732,-807,-13588,-1746,53,-1,57804,2020-11-02 15:17:29,2020-11-02 15:17:59,2,D7:F2:3B:06:4D:C8,53,53,9680.540650571016,-17188.0,39095.59767688227
61371,-4050,-5402,7951,-22254,3059,5392,3803,-23313,-15568,53,-1,57830,2020-11-02 15:17:29,2020-11-02 15:17:59,2,D7:F2:3B:06:4D:C8,53,53,-8517.767793427029,-5630.667185418863,-2132.070323489469
61372,-31447,27109,28920,-28905,-9490,6407,-12836,11505,32307,53,-1,57881,2020-11-02 15:17:29,2020-11-02 15:17:59,2,D7:F2:3B:06:4D:C8,53,53,8648.635591557912,23697.80226223778,43861.068846350696
61373,-17361,-10523,3319,530,14567,8704,11997,-22543,-14281,53,-1,57883,2020-11-02 15:17:29,2020-11-02 15:17:59,2,D7:F2:3B:06:4D:C8,53,53,-6557.769825231375,-17599.841176059097,8390.164271143896
61374,-32474,-30750,-2054,12819,-13599,31480,-18212,-19472,8509,53,-1,57906,2020-11-02 15:17:29,2020-11-02 15:17:59,2,D7:F2:3B:06:4D:C8,53,53,-8488.105766640187,42587.11059603728,-10891.83931093454
61375,-12776,-4384,-7686,-17390,-26152,30707,-15398,22767,-31932,53,-1,57932,2020-11-02 15:17:29,2020-11-02 15:17:59,2,D7:F2:3B:06:4D:C8,53,53,8827.751124849636,11635.927248299091,-5310.012725974084
61376,30233,9694,-3090,8206,-17445,22255,25559,17902,24512,53,-1,57958,2020-11-02 15:17:29,2020-11-02 15:17:59,2,D7:F2:3B:06:4D:C8,53,53,13489.048908145192,28889.575666965033,996.9966581531969
61377,-18670,8409,-3348,15622,22761,-13330,23507,-2836,-23609,53,-1,57983,2020-11-02 15:17:29,2020-11-02 15:17:59,2,D7:F2:3B:06:4D:C8,53,53,18280.85020604726,-8880.571774699794,-4175.553340392995
61378,-18222,26838,29160,-13831,3570,-32527,-29746,1260,-24883,53,-1,58009,2020-11-02 15:17:29,2020-11-02 15:17:59,2,D7:F2:3B:06:4D:C8,53,53,27311.099705534776,-489.2609379630376,34007.19901151699
61379,5912,-1826,17896,-11533,-15634,31215,-2871,8429,2002,53,-1,58034,2020-11-02 15:17:29,2020-11-02 15:17:59,2,D7:F2:3B:06:4D:C8,53,53,18253.231976414558,-1826.0,4694.4736036319455
61380,-19964,-8991,12535,-273,17148,-10774,27588,-21,25046,53,-1,58060,2020-11-02 15:17:29,2020-11-02 15:17:59,2,D7:F2:3B:06:4D:C8,53,53,24676.42270651205,5066.597607602055,-1389.011552211794
61381,13298,-22042,17674,12018,21501,27371,-5187,22507,-19493,53,-1,58085,2020-11-02 15:17:29,2020-11-02 15:17:59,2,D7:F2:3B:06:4D:C8,53,53,7453.410260698782,23327.273080720963,-19373.741252096384
61382,-26108,32739,23005,18921,-1284,6378,23876,12268,-31520,53,-1,58111,2020-11-02 15:17:29,2020-11-02 15:17:59,2,D7:F2:3B:06:4D:C8,53,53,-3361.9118016257926,-25428.895018104115,40308.41918503291
61383,-26633,-20514,-20734,16350,-1795,25068,16956,9965,6629,53,-1,58137,2020-11-02 15:17:29,2020-11-02 15:17:59,2,D7:F2:3B:06:4D:C8,53,53,-35380.77241198672,-4408.058833322857,16994.399131865866
61384,28379,24293,30208,-24351,-13312,-7431,17462,-26130,2791,53,-1,58162,2020-11-02 15:17:29,2020-11-02 15:17:59,2,D7:F2:3B:06:4D:C8,53,53,-38587.96388392191,-28312.840923387088,-4170.471932541383
61385,-4382,10983,-1,1766,-16382,-4852,23858,-18195,-19226,53,-1,58188,2020-11-02 15:17:29,2020-11-02 15:17:59,2,D7:F2:3B:06:4D:C8,53,53,-6469.090059666892,6330.1557038057035,7609.744842338348
61386,30968,10718,5630,10718,3849,22550,3119,-20246,9445,53,-1,58213,2020-11-02 15:17:29,2020-11-02 15:17:59,2,D7:F2:3B:06:4D:C8,53,53,-26012.794689941635,-20675.484527872955,-1203.4533462625395
61387,-26615,18402,10005,18909,-7158,-28396,20521,-15386,29925,53,-1,58239,2020-11-02 15:17:29,2020-11-02 15:17:59,2,D7:F2:3B:06:4D:C8,53,53,-13796.698048604674,-22561.19871467835,-21159.75636703844
61388,3848,-27919,28965,-21270,-27893,-29169,27169,-13341,21993,53,-1,58264,2020-11-02 15:17:29,2020-11-02 15:17:59,2,D7:F2:3B:06:4D:C8,53,53,-2106.286040439307,-40275.680433338144,2584.9593318799634
61389,-3578,-3597,29468,12282,18437,6159,21271,2274,-7439,53,1,58290,2020-11-02 15:17:29,2020-11-02 15:17:59,2,D7:F2:3B:06:4D:C8,53,53,-2435.9985605577685,2687.9410003133166,-29680.70755881327
61390,-25596,-6418,26891,2819,8184,-10734,-13554,-17697,-29446,53,1,58341,2020-11-02 15:17:29,2020-11-02 15:17:59,2,D7:F2:3B:06:4D:C8,53,53,-18606.352143394986,32717.313918108186,1689.0384542529682
61391,17155,10476,19717,771,-4360,-29418,18154,-20514,-18401,53,1,58343,2020-11-02 15:17:29,2020-11-02 15:17:59,2,D7:F2:3B:06:4D:C8,53,53,12436.61037473374,15059.386006275528,20281.67412964368
61392,-15608,-4376,-23541,26112,25853,9500,2783,28898,17451,53,1,58367,2020-11-02 15:17:29,2020-11-02 15:17:59,2,D7:F2:3B:06:4D:C8,53,53,-17347.4932728059,6893.060719056151,-21644.581586932072
61393,-25323,-14108,-4847,-8704,-22021,10273,9693,21735,25901,53,1,58392,2020-11-02 15:17:29,2020-11-02 15:17:59,2,D7:F2:3B:06:4D:C8,53,53,-17732.04150995973,-15108.658416599292,17918.887988365466
61394,-25812,-4636,11271,10754,-20996,22302,-17188,19180,18990,53,1,58418,2020-11-02 15:17:29,2020-11-02 15:17:59,2,D7:F2:3B:06:4D:C8,53,53,-26950.164293063586,-8459.398084825003,4112.7253274853465
61395,-978,11502,-23025,-32252,14587,-10994,-18212,22511,-13522,53,1,58444,2020-11-02 15:17:29,2020-11-02 15:17:59,2,D7:F2:3B:06:4D:C8,53,53,-14954.887325177473,2493.6902724895012,-20821.526527037764
61396,14393,2794,29483,-23544,-3340,-4595,-17700,28657,5680,53,1,58469,2020-11-02 15:17:29,2020-11-02 15:17:59,2,D7:F2:3B:06:4D:C8,53,53,32449.876028947307,1394.6021621274203,5410.434780619789
61397,8235,-21788,-3068,8472,26092,13061,5086,25842,20275,53,1,58495,2020-11-02 15:17:29,2020-11-02 15:17:59,2,D7:F2:3B:06:4D:C8,53,53,6104.9760791490735,21138.00437716951,8237.64717767035
61398,-13284,-10527,11755,22035,20708,-32256,-18978,19698,5688,53,1,58520,2020-11-02 15:17:29,2020-11-02 15:17:59,2,D7:F2:3B:06:4D:C8,53,53,11718.439430391929,12080.516706456629,11924.835572084756
61399,26404,-7965,21747,31756,-17692,18172,-12067,-19983,18749,53,1,58571,2020-11-02 15:17:29,2020-11-02 15:17:59,2,D7:F2:3B:06:4D:C8,53,53,22367.327485045775,-26510.885910114106,5515.4364684609445
61400,-13800,19683,31997,17674,27106,20216,-805,-26128,-10942,53,1,58573,2020-11-02 15:17:29,2020-11-02 15:17:59,2,D7:F2:3B:06:4D:C8,53,53,34519.994100073076,-17332.099695381796,-10470.760501523584
61401,6432,25823,17912,-502,-28445,-17938,-31015,6895,-31044,53,1,58597,2020-11-02 15:17:29,2020-11-02 15:17:59,2,D7:F2:3B:06:4D:C8,53,53,17555.77760437206,24618.784846018636,10712.04006766553
61402,-9209,17882,-14856,1286,29933,20710,29142,24556,28098,53,1,58623,2020-11-02 15:17:29,2020-11-02 15:17:59,2,D7:F2:3B:06:4D:C8,53,53,-21444.067886209188,-10794.249399346252,6993.459329714076
61403,-20469,10714,31461,29953,28653,4072,-5935,20458,457,53,1,58648,2020-11-02 15:17:29,2020-11-02 15:17:59,2,D7:F2:3B:06:4D:C8,53,53,21390.70765957121,32262.31755811248,-5014.456062452704
61404,-25597,13018,26091,-30730,26099,17640,-3126,-15896,15056,53,-1,58674,2020-11-02 15:17:29,2020-11-02 15:17:59,2,D7:F2:3B:06:4D:C8,53,53,-6397.209068254211,-17304.07063794843,-34132.97334680847
61405,-18171,18908,28141,19695,-18189,-25622,24002,-19480,-16169,53,-1,58699,2020-11-02 15:17:29,2020-11-02 15:17:59,2,D7:F2:3B:06:4D:C8,53,53,-1279.336142015607,-24273.601556038273,29812.231592660566
61406,13266,-2593,4371,-9236,-17675,-10511,-27974,-16151,32221,53,-1,58725,2020-11-02 15:17:29,2020-11-02 15:17:59,2,D7:F2:3B:06:4D:C8,53,53,-1869.7131812510645,633.9497024392431,14068.344834934676
61407,9735,-20753,28140,-11787,32750,-1537,-1723,-26900,16861,53,-1,58751,2020-11-02 15:17:29,2020-11-02 15:17:59,2,D7:F2:3B:06:4D:C8,53,53,12656.244906512358,22215.01705969451,-25761.00378292472
61408,-32253,2024,497,-22813,-20213,-3088,6721,21996,30175,53,-1,58776,2020-11-02 15:17:29,2020-11-02 15:17:59,2,D7:F2:3B:06:4D:C8,53,53,9783.944767184343,-30693.90915595831,2599.607570089112
61409,11507,-1307,32762,11232,21769,26354,9017,-18453,-15645,53,-1,58802,2020-11-02 15:17:29,2020-11-02 15:17:59,2,D7:F2:3B:06:4D:C8,53,53,-19994.247486238237,24255.211961343924,-14811.573250986363
61410,-15637,-8216,-11007,-8480,21767,9214,26930,31211,17894,53,-1,58827,2020-11-02 15:17:29,2020-11-02 15:17:59,2,D7:F2:3B:06:4D:C8,53,53,17541.823498801325,489.1822968015622,-11190.067158752781
61411,15343,-14616,6410,14308,25348,3083,-23251,10730,-21786,53,-1,58853,2020-11-02 15:17:29,2020-11-02 15:17:59,2,D7:F2:3B:06:4D:C8,53,53,5161.8055089159625,-4014.2901549697026,-21150.99154743905
61412,22780,-16663,-14327,7657,3843,7186,-10710,-23577,-22811,53,-1,58880,2020-11-02 15:17:29,2020-11-02 15:17:59,2,D7:F2:3B:06:4D:C8,53,53,7063.623880321085,22278.58378390098,-21345.182600789856
61413,-12287,27369,17934,-26135,14091,-15855,7974,-29468,999,53,-1,58904,2020-11-02 15:17:29,2020-11-02 15:17:59,2,D7:F2:3B:06:4D:C8,53,53,27890.645892364337,-303.4068322396979,21063.729536833947
61414,-8445,21483,2070,8684,18700,-19696,-14566,2530,24815,53,-1,58930,2020-11-02 15:17:29,2020-11-02 15:17:59,2,D7:F2:3B:06:4D:C8,53,53,178.63186435832677,11004.507084758763,-20395.860572148704
61415,-27646,-10773,-25836,-21262,15110,-7406,-25079,-3872,23550,53,-1,58955,2020-11-02 15:17:29,2020-11-02 15:17:59,2,D7:F2:3B:06:4D:C8,53,53,38197.37917457193,3539.267887512231,8734.50330667997
61416,15878,23784,9742,-8459,26117,-19178,6135,-14879,-31217,53,-1,58981,2020-11-02 15:17:29,2020-11-02 15:17:59,2,D7:F2:3B:06:4D:C8,53,53,-12855.961272542005,-27056.66818813749,3918.8098085935494
61417,31240,-29211,13582,-27915,24063,21272,-28437,22244,-10727,53,-1,59006,2020-11-02 15:17:29,2020-11-02 15:17:59,2,D7:F2:3B:06:4D:C8,53,53,-11655.32742938563,34466.468060166044,26266.076352804666
61418,23309,28645,-28141,17652,20740,-14311,9446,1000,-10723,53,-1,59032,2020-11-02 15:17:29,2020-11-02 15:17:59,2,D7:F2:3B:06:4D:C8,53,53,45543.21290682786,1542.6591928170492,8899.289170386875
61419,25113,-25630,-20707,18678,12031,-30181,-13598,4844,-5601,53,-1,59058,2020-11-02 15:17:29,2020-11-02 15:17:59,2,D7:F2:3B:06:4D:C8,53,53,25113.0,-8162.978396576129,31922.445593923898
61420,-28380,-11547,-8930,16638,-31239,27158,-16928,-20241,-12767,53,-1,59083,2020-11-02 15:17:29,2020-11-02 15:17:59,2,D7:F2:3B:06:4D:C8,53,53,-13871.326597183728,-22343.995592240844,-18078.5693130896
61421,31009,-12572,4372,16646,-31245,11023,1504,7666,-2269,53,-1,59109,2020-11-02 15:17:29,2020-11-02 15:17:59,2,D7:F2:3B:06:4D:C8,53,53,20433.14534824527,-12572.0,-23730.972086652553
61422,13856,8935,5903,-19445,-28950,8974,-25121,-7693,-28377,53,-1,59134,2020-11-02 15:17:29,2020-11-02 15:17:59,2,D7:F2:3B:06:4D:C8,53,53,4504.473810944904,10554.24338561124,13228.228613226825
61423,-6367,-540,18448,5383,-26901,-1278,29407,-23564,-9942,53,-1,59160,2020-11-02 15:17:29,2020-11-02 15:17:59,2,D7:F2:3B:06:4D:C8,53,53,19357.04973976524,2311.042758430275,1059.5752644156323
61424,-2532,2804,3554,24592,-8223,7939,7391,-12300,-17873,53,-1,59185,2020-11-02 15:17:29,2020-11-02 15:17:59,2,D7:F2:3B:06:4D:C8,53,53,2601.2199947843183,1861.291279792536,-4083.3326230546704
61425,-9689,26092,11776,-21999,-21018,9206,8927,-4109,-1741,53,-1,59211,2020-11-02 15:17:29,2020-11-02 15:17:59,2,D7:F2:3B:06:4D:C8,53,53,-9689.0,4188.4054476137135,28318.26088951085
61426,26099,-32025,27631,-14320,13282,1274,14047,11506,-28616,53,-1,59237,2020-11-02 15:17:29,2020-11-02 15:17:59,2,D7:F2:3B:06:4D:C8,53,53,40169.807107032306,-28460.333583403357,-6828.367030646493
61427,-6403,17906,-31238,4879,-15146,21750,19165,20209,-13249,53,1,59262,2020-11-02 15:17:29,2020-11-02 15:17:59,2,D7:F2:3B:06:4D:C8,53,53,-16712.939233801586,-4514.112910776652,-32213.91525095972
61428,-23039,16601,-15595,-8940,1757,-24839,19419,29936,32186,53,1,59288,2020-11-02 15:17:29,2020-11-02 15:17:59,2,D7:F2:3B:06:4D:C8,53,53,-20340.0394041222,18580.053641060407,-17048.670057634234
61429,-20740,-21027,-27162,18705,-7448,-16914,31450,12527,29888,53,1,59313,2020-11-02 15:17:29,2020-11-02 15:17:59,2,D7:F2:3B:06:4D:C8,53,53,-25034.286753567238,-28219.766558555588,13674.276402091466
61430,22019,-29995,-547,26098,31980,-23319,-5674,30701,-18491,53,1,59339,2020-11-02 15:17:29,2020-11-02 15:17:59,2,D7:F2:3B:06:4D:C8,53,53,-10935.62818762573,28739.373439418592,20959.39038835926
61431,-22801,20952,-2030,-4885,28150,13546,11472,4331,-30774,53,1,59364,2020-11-02 15:17:29,2020-11-02 15:17:59,2,D7:F2:3B:06:4D:C8,53,53,123.13014965827506,-23814.10917496122,19896.377765042384
61432,21786,19962,3525,-9217,-12816,-24843,-27957,7659,2255,53,1,59390,2020-11-02 15:17:29,2020-11-02 15:17:59,2,D7:F2:3B:06:4D:C8,53,53,22544.545369021504,-15715.76275563987,-11414.689663436933
61433,27408,6867,-11038,9437,24837,-9758,-3390,-32279,-22572,53,1,59416,2020-11-02 15:17:29,2020-11-02 15:17:59,2,D7:F2:3B:06:4D:C8,53,53,3750.94304575721,-6401.732244349,-29413.25972311039
61434,3059,27350,-10498,27356,30973,8423,-29373,2025,22236,53,1,59441,2020-11-02 15:17:29,2020-11-02 15:17:59,2,D7:F2:3B:06:4D:C8,53,53,-5543.843825408849,-17214.878477393962,23248.693289043887
61435,8697,-14876,6667,26081,-6,-25869,31803,25066,6112,53,1,59467,2020-11-02 15:17:29,2020-11-02 15:17:59,2,D7:F2:3B:06:4D:C8,53,53,-11506.598906609062,-13897.922633219678,-3978.442167917394
61436,-11276,6638,30960,25317,26625,23800,17718,26091,-22303,53,1,59492,2020-11-02 15:17:29,2020-11-02 15:17:59,2,D7:F2:3B:06:4D:C8,53,53,-31102.813893675528,6617.642373153575,10888.277977551212
61437,-15636,-17687,16387,-3871,-12533,21244,-10193,14059,10980,53,1,59518,2020-11-02 15:17:29,2020-11-02 15:17:59,2,D7:F2:3B:06:4D:C8,53,53,11615.747124626218,25924.69468345072,4339.684125210015
61438,16361,-29209,19722,4835,2570,22277,14633,14314,-14362,53,1,59544,2020-11-02 15:17:29,2020-11-02 15:17:59,2,D7:F2:3B:06:4D:C8,53,53,10735.35521887701,37341.53528276253,-408.8729029064157
61439,23792,-3353,-31983,4327,27141,-19698,-18909,18920,28904,53,-1,59569,2020-11-02 15:17:29,2020-11-02 15:17:59,2,D7:F2:3B:06:4D:C8,53,53,-6539.881807261205,17898.949179432937,-35172.03045346019
61440,26368,11500,25107,-15632,-16639,-22764,-14306,27877,-32278,53,-1,59595,2020-11-02 15:17:29,2020-11-02 15:17:59,2,D7:F2:3B:06:4D:C8,53,53,-17704.032983697067,3762.2740788430365,33619.86589604177
61441,-9727,24043,14603,2805,20486,-19185,-1769,1507,-24593,53,-1,59620,2020-11-02 15:17:29,2020-11-02 15:17:59,2,D7:F2:3B:06:4D:C8,53,53,-11837.810894548165,-23076.97144828404,14603.0
61442,-17666,-15641,26885,-14347,28678,-20464,16652,-4895,2810,53,-1,59646,2020-11-02 15:17:29,2020-11-02 15:17:59,2,D7:F2:3B:06:4D:C8,53,53,-17666.0,-17937.508649774598,-25410.42875355041
61443,-31743,8932,-31735,-19980,-25853,22805,-19460,9186,15112,53,-1,59671,2020-11-02 15:17:29,2020-11-02 15:17:59,2,D7:F2:3B:06:4D:C8,53,53,8689.84322260754,13022.817615400789,43004.67118956392
61444,-13562,30179,-16110,-9482,11775,-28646,-4114,7140,-10732,53,-1,59697,2020-11-02 15:17:29,2020-11-02 15:17:59,2,D7:F2:3B:06:4D:C8,53,53,14111.253776062811,33878.79190848677,2707.759348428961
61445,-5627,14047,14100,-4107,9730,-15847,-7193,32487,-5606,53,-1,59723,2020-11-02 15:17:29,2020-11-02 15:17:59,2,D7:F2:3B:06:4D:C8,53,53,2433.118007599528,19454.3673763211,-6587.781473927941
61446,-2284,-16673,16676,-16904,23552,16669,25060,-16661,27933,53,-1,59748,2020-11-02 15:17:29,2020-11-02 15:17:59,2,D7:F2:3B:06:4D:C8,53,53,18198.798077691397,-14909.871976927874,-2791.7784939061285
61447,-14557,-27424,31010,13311,-3589,10012,28130,752,-29409,53,-1,59774,2020-11-02 15:17:29,2020-11-02 15:17:59,2,D7:F2:3B:06:4D:C8,53,53,-43822.95121011645,-2217.1572275995495,485.06294834401706
61448,-30680,-22047,541,-17658,-28172,27669,-19999,17395,802,53,-1,59799,2020-11-02 15:17:29,2020-11-02 15:17:59,2,D7:F2:3B:06:4D:C8,53,53,30736.450748548545,21902.710496910408,1779.6511654197911
61449,7737,-22812,-25070,18445,-7960,526,-25631,10741,-18651,53,-1,59825,2020-11-02 15:17:29,2020-11-02 15:17:59,2,D7:F2:3B:06:4D:C8,53,53,1374.082055477189,-34030.60778890297,-6984.486024230562
61450,31017,-7968,30723,31244,-28451,-3070,20705,-1292,-5078,53,-1,59851,2020-11-02 15:17:29,2020-11-02 15:17:59,2,D7:F2:3B:06:4D:C8,53,53,31017.0,3552.6302052890487,-31539.983697276504
61451,-2775,29156,30464,25614,-23857,-17409,-19489,2292,-22478,53,-1,59876,2020-11-02 15:17:29,2020-11-02 15:17:59,2,D7:F2:3B:06:4D:C8,53,53,-719.4037609360807,24710.913592589124,-34273.626371429455
61452,1292,6881,8947,13835,-21296,-6659,-3364,7411,13627,53,-1,59903,2020-11-02 15:17:29,2020-11-02 15:17:59,2,D7:F2:3B:06:4D:C8,53,53,-9680.395551682894,4617.021197954904,3746.904218230444
61453,32531,-27423,31235,-4595,-9256,-14861,27866,25842,9283,53,-1,59927,2020-11-02 15:17:29,2020-11-02 15:17:59,2,D7:F2:3B:06:4D:C8,53,53,-46601.271510724175,4349.374598135135,24399.10959827969
61454,-4610,31708,31997,-20979,24290,-30738,-23336,-15376,10173,53,-1,59953,2020-11-02 15:17:29,2020-11-02 15:17:59,2,D7:F2:3B:06:4D:C8,53,53,37339.00087663809,-25025.722426962075,-5474.450067638554
61455,17582,27622,-8119,-23011,-27681,-19699,-14377,-1040,-10558,53,-1,59978,2020-11-02 15:17:29,2020-11-02 15:17:59,2,D7:F2:3B:06:4D:C8,53,53,-6385.18394871462,-24994.242214643,-21737.91735785273
61456,-5888,-1568,-9995,29195,-30491,2538,-26921,6898,-8759,53,-1,60004,2020-11-02 15:17:29,2020-11-02 15:17:59,2,D7:F2:3B:06:4D:C8,53,53,7939.440387174638,3531.9956919880087,7843.308343440183
61457,-25616,30682,-12845,-2316,19953,-3338,22741,-18960,24269,53,-1,60030,2020-11-02 15:17:29,2020-11-02 15:17:59,2,D7:F2:3B:06:4D:C8,53,53,-36619.77624328594,1297.8406145970587,-20490.636950343258
61458,-32756,9182,-29990,13805,8950,-25866,20689,-19472,8656,53,-1,60055,2020-11-02 15:17:29,2020-11-02 15:17:59,2,D7:F2:3B:06:4D:C8,53,53,19246.252133105783,20983.143235006974,-35298.07698456252
61459,23062,473,14556,-13345,22013,17649,10444,-13073,4306,53,-1,60081,2020-11-02 15:17:29,2020-11-02 15:17:59,2,D7:F2:3B:06:4D:C8,53,53,-17110.390311325602,-11992.888664188113,17531.73904330324
61460,-18753,4829,14381,-22045,7940,4080,8389,-28435,-9004,53,-1,60106,2020-11-02 15:17:29,2020-11-02 15:17:59,2,D7:F2:3B:06:4D:C8,53,53,3474.365156853025,-22979.08362181689,6457.392171642706
61461,24332,29164,-11555,-24592,-32520,16895,11970,-28178,-18475,53,1,60132,2020-11-02 15:17:29,2020-11-02 15:17:59,2,D7:F2:3B:06:4D:C8,53,53,-7956.008144181222,511.9459414079156,-38891.42567151271
61462,-23805,32225,-14602,19418,-11509,-16916,2236,21997,-3881,53,1,60158,2020-11-02 15:17:29,2020-11-02 15:17:59,2,D7:F2:3B:06:4D:C8,53,53,21506.13702388342,32225.0,17815.232227224842
61463,16361,14814,-30951,-31012,25100,-20500,25407,-16405,-11300,53,1,60183,2020-11-02 15:17:29,2020-11-02 15:17:59,2,D7:F2:3B:06:4D:C8,53,53,-35968.47582259163,-5257.134438303228,11123.515743560922
61464,-29195,-25874,-9214,25830,-24829,-3845,9529,-31509,28639,53,1,60209,2020-11-02 15:17:29,2020-11-02 15:17:59,2,D7:F2:3B:06:4D:C8,53,53,17468.06815537368,29750.68547370661,20407.67026791159
61465,-17156,10990,-3583,-25624,6404,13828,21301,-9494,-19745,53,1,60234,2020-11-02 15:17:29,2020-11-02 15:17:59,2,D7:F2:3B:06:4D:C8,53,53,11959.561335895447,12184.04986128155,-11681.78696222285
61466,23288,-279,14338,-30232,31747,-503,-32462,-27927,-8226,53,1,60260,2020-11-02 15:17:29,2020-11-02 15:17:59,2,D7:F2:3B:06:4D:C8,53,53,-18306.869493190177,2917.8137575907294,-20108.00639634166
61467,-24069,-29467,23561,-17436,-14583,5904,22575,9191,3294,53,1,60311,2020-11-02 15:17:29,2020-11-02 15:17:59,2,D7:F2:3B:06:4D:C8,53,53,-36131.18520436195,25847.180387426793,5403.9145762970475
61468,-5629,-19225,-3050,3557,-9204,-5615,-27607,-14109,-19489,53,1,60313,2020-11-02 15:17:29,2020-11-02 15:17:59,2,D7:F2:3B:06:4D:C8,53,53,-11522.756836087301,-16667.437193750975,106.66906191551209
61469,-16892,15339,10010,24812,-16375,-26862,-4834,-15904,2791,53,1,60337,2020-11-02 15:17:29,2020-11-02 15:17:59,2,D7:F2:3B:06:4D:C8,53,53,-2072.5148795707446,15339.0,-19525.48196777631
61470,-2808,1515,1815,29427,-15102,-27883,-7164,-6434,-7426,53,1,60362,2020-11-02 15:17:29,2020-11-02 15:17:59,2,D7:F2:3B:06:4D:C8,53,53,1287.964706920402,2335.8088366079264,-2521.796580327559
61471,-31990,15081,-32237,-13576,-16644,-21993,-30488,-22816,1562,53,1,60388,2020-11-02 15:17:29,2020-11-02 15:17:59,2,D7:F2:3B:06:4D:C8,53,53,30919.5080741076,35190.75126128651,-9778.337083648563
61472,-13297,-12568,1556,-19459,14586,7963,21984,22500,-15071,53,1,60413,2020-11-02 15:17:29,2020-11-02 15:17:59,2,D7:F2:3B:06:4D:C8,53,53,5830.511421368196,-16631.086252223296,5157.332220868089
61473,24595,-4889,-14317,23042,-18185,-29926,27101,27880,8741,53,1,60439,2020-11-02 15:17:29,2020-11-02 15:17:59,2,D7:F2:3B:06:4D:C8,53,53,-7597.233499451442,-25971.255471459954,10078.133130246595
61474,-993,-21529,12567,30983,5368,23321,-27428,29932,10791,53,1,60464,2020-11-02 15:17:29,2020-11-02 15:17:59,2,D7:F2:3B:06:4D:C8,53,53,8706.96914406637,22002.901572455576,-7904.0742479501205
61475,-5343,-31005,-21495,-4084,-19209,19220,28381,-13073,26664,53,1,60490,2020-11-02 15:17:29,2020-11-02 15:17:59,2,D7:F2:3B:06:4D:C8,53,53,23870.028765736388,21519.59577937037,-20470.012780050296
61476,21023,-17951,2564,19728,-14873,-31468,-24867,-17678,-469,53,1,60516,2020-11-02 15:17:29,2020-11-02 15:17:59,2,D7:F2:3B:06:4D:C8,53,53,-18658.936935526086,9793.11504015317,18075.342216577425
61477,-12764,-19229,-4859,20243,-21520,-29682,-15650,8181,3887,53,1,60541,2020-11-02 15:17:29,2020-11-02 15:17:59,2,D7:F2:3B:06:4D:C8,53,53,9518.103444242613,3583.8113230190147,21280.179069399244
61478,-25568,27615,12533,31766,23015,-21242,-26144,-4619,-17870,53,1,60567,2020-11-02 15:17:29,2020-11-02 15:17:59,2,D7:F2:3B:06:4D:C8,53,53,21426.335915035215,30867.970278364177,12706.98540764479
61479,14371,-28702,-4361,21777,-6937,-22019,-16927,29173,22838,53,1,60592,2020-11-02 15:17:29,2020-11-02 15:17:59,2,D7:F2:3B:06:4D:C8,53,53,21337.353166711666,-11101.021384293712,21698.696966971842
61480,-10980,-22815,-22558,3336,25830,25846,17377,26099,14907,53,1,60618,2020-11-02 15:17:29,2020-11-02 15:17:59,2,D7:F2:3B:06:4D:C8,53,53,-20400.001614216613,-17350.594411856782,-20802.518998794436
61481,-20724,-4136,16611,32247,12015,28918,22750,19185,30783,53,1,60644,2020-11-02 15:17:29,2020-11-02 15:17:59,2,D7:F2:3B:06:4D:C8,53,53,6816.692441531062,-16872.983387700675,19782.596613082682
61482,10492,24037,27904,25593,-16165,-19457,-5671,-17936,22340,53,-1,60669,2020-11-02 15:17:29,2020-11-02 15:17:59,2,D7:F2:3B:06:4D:C8,53,53,10789.356720904205,-25817.967504990564,-26144.119500574703
61483,-9432,-30235,-4640,-16139,-26640,4606,18389,11250,30141,53,-1,60695,2020-11-02 15:17:29,2020-11-02 15:17:59,2,D7:F2:3B:06:4D:C8,53,53,27963.253420651505,13299.543124973756,8113.326062681392
61484,12292,-2080,14852,-7181,32240,-13079,15057,-32272,-28224,53,-1,60720,2020-11-02 15:17:29,2020-11-02 15:17:59,2,D7:F2:3B:06:4D:C8,53,53,12345.801812548962,5042.451635232132,-14076.804577446104
61485,17164,26084,3815,7159,-13575,-21012,22733,7407,-27452,53,-1,60746,2020-11-02 15:17:29,2020-11-02 15:17:59,2,D7:F2:3B:06:4D:C8,53,53,13941.316994440152,24188.27801289331,-14494.79438389921
61486,14078,-13347,-26913,-31509,15098,-20244,15048,30445,20168,53,-1,60771,2020-11-02 15:17:29,2020-11-02 15:17:59,2,D7:F2:3B:06:4D:C8,53,53,-9079.906356901065,-29035.449375619668,13234.048590878563
61487,-16632,13531,-16920,17378,18165,-18448,17601,-14355,25804,53,-1,60797,2020-11-02 15:17:29,2020-11-02 15:17:59,2,D7:F2:3B:06:4D:C8,53,53,-1764.066862295469,14798.259209005177,-22888.804632143736
61488,28425,-28,15381,25319,18935,8939,7098,-19474,32720,53,-1,60823,2020-11-02 15:17:29,2020-11-02 15:17:59,2,D7:F2:3B:06:4D:C8,53,53,-20739.67419735473,24430.409514179057,-4192.56188470581
61489,-26401,23543,-32516,-22793,-31248,10745,-9662,-13584,20947,53,-1,60848,2020-11-02 15:17:29,2020-11-02 15:17:59,2,D7:F2:3B:06:4D:C8,53,53,-42459.30093600469,20841.36022860436,-8451.11672190957
61490,-21269,-14080,-14836,15871,-19212,-7919,-22974,-25870,-26671,53,-1,60874,2020-11-02 15:17:29,2020-11-02 15:17:59,2,D7:F2:3B:06:4D:C8,53,53,-24075.519125265637,-3382.2881180914956,16722.83357972523
61491,2820,31473,4599,21487,18956,-13558,-15038,23538,-7218,53,-1,60899,2020-11-02 15:17:29,2020-11-02 15:17:59,2,D7:F2:3B:06:4D:C8,53,53,3986.5864118475683,-22709.74449194849,22091.345904930455
61492,-21256,5360,-17400,-18452,19734,-24828,1088,751,-21554,53,-1,60927,2020-11-02 15:17:29,2020-11-02 15:17:59,2,D7:F2:3B:06:4D:C8,53,53,21799.68375093996,-2306.71289045785,-17400.0
61493,2546,-3346,25099,10224,7182,-32756,-4547,1260,-51,53,-1,60951,2020-11-02 15:17:29,2020-11-02 15:17:59,2,D7:F2:3B:06:4D:C8,53,53,2546.0,-3346.0,25099.0
61494,16635,23278,5898,-17934,-7159,-30444,-22722,26089,-28726,53,-1,60976,2020-11-02 15:17:29,2020-11-02 15:17:59,2,D7:F2:3B:06:4D:C8,53,53,20174.653519341857,-10106.227345853587,18553.232527202057
61495,29442,-25106,-28146,18933,12293,16150,15426,23271,26820,53,-1,61002,2020-11-02 15:17:29,2020-11-02 15:17:59,2,D7:F2:3B:06:4D:C8,53,53,34356.08317055402,-15360.20250307184,29547.650401387258
61496,27652,-10771,15379,31997,26626,-11243,-12357,-27674,-31044,53,-1,61027,2020-11-02 15:17:29,2020-11-02 15:17:59,2,D7:F2:3B:06:4D:C8,53,53,-22106.312102491625,-9630.739431468804,-23145.647738406118
61497,-12278,-30230,30993,23559,24065,7190,-18749,5351,5953,53,1,61053,2020-11-02 15:17:29,2020-11-02 15:17:59,2,D7:F2:3B:06:4D:C8,53,53,-35497.300952658705,8201.439718557067,-26416.77960348782
61498,14347,10983,3081,-8435,26623,-31980,-15158,-4888,14139,53,1,61104,2020-11-02 15:17:29,2020-11-02 15:17:59,2,D7:F2:3B:06:4D:C8,53,53,-4361.915758898758,13781.851994673665,-11268.96204222821
61499,12297,482,9220,-12275,-7674,21782,-11824,12523,-21962,53,1,61106,2020-11-02 15:17:29,2020-11-02 15:17:59,2,D7:F2:3B:06:4D:C8,53,53,10069.434958377638,-6830.496979374236,-9402.538148487447
61500,-18919,-3364,9738,11274,20998,-230,-9259,23022,30514,53,1,61130,2020-11-02 15:17:29,2020-11-02 15:17:59,2,D7:F2:3B:06:4D:C8,53,53,7885.3911098669,-4176.888982965984,-19607.34317719791
61501,-15317,25820,-14576,-13813,-3842,-8423,-12328,12018,-27856,53,1,61155,2020-11-02 15:17:29,2020-11-02 15:17:59,2,D7:F2:3B:06:4D:C8,53,53,24345.086276238348,8528.207715619272,21173.783609968326
61502,-15307,-34,21507,-10738,-12813,25359,-21542,16629,30001,53,1,61181,2020-11-02 15:17:29,2020-11-02 15:17:59,2,D7:F2:3B:06:4D:C8,53,53,-741.0242512114792,13323.291205195517,22777.121164025015
61503,27427,19687,19481,28944,17391,2309,-17445,28406,-20941,53,1,61206,2020-11-02 15:17:29,2020-11-02 15:17:59,2,D7:F2:3B:06:4D:C8,53,53,-1145.5798164891094,16746.752351713803,35178.993612018254
61504,-29418,-7719,-7192,10263,30950,-16381,-15907,-778,-32457,53,1,61232,2020-11-02 15:17:29,2020-11-02 15:17:59,2,D7:F2:3B:06:4D:C8,53,53,-5154.021096425687,-29153.500282058252,10011.794886114485
61505,-23525,-32036,-5646,16146,1756,12546,-27426,12023,-10436,53,1,61257,2020-11-02 15:17:29,2020-11-02 15:17:59,2,D7:F2:3B:06:4D:C8,53,53,16407.207236654354,21111.968191200503,29944.892499176134
61506,-18426,4062,30199,6927,21977,16895,-30242,-24074,6211,53,1,61283,2020-11-02 15:17:29,2020-11-02 15:17:59,2,D7:F2:3B:06:4D:C8,53,53,35001.15077915162,3046.691499302302,5799.4858430013355
61507,-22779,32483,27924,-24045,8655,19981,3038,31223,-12867,53,1,61309,2020-11-02 15:17:29,2020-11-02 15:17:59,2,D7:F2:3B:06:4D:C8,53,53,43368.82257360993,16706.023355425605,-13922.3531856765
61508,-15875,14562,16642,-29426,32223,-777,32478,16375,-60,53,1,61334,2020-11-02 15:17:29,2020-11-02 15:17:59,2,D7:F2:3B:06:4D:C8,53,53,-1798.4407505626714,20089.10652365945,18281.603948991426
61509,21218,14305,29943,1015,-15123,-17158,18653,15606,-9784,53,1,61360,2020-11-02 15:17:29,2020-11-02 15:17:59,2,D7:F2:3B:06:4D:C8,53,53,-33815.07920340958,18632.17836405263,-7797.5730761093855
61510,-19250,-14866,-3805,-18180,-530,9473,18651,-22794,1740,53,1,61385,2020-11-02 15:17:29,2020-11-02 15:17:59,2,D7:F2:3B:06:4D:C8,53,53,18821.82183356295,15254.190085130016,-4368.888727392148
61511,13822,-8462,21263,-29954,4083,26374,17882,18680,9166,53,1,61411,2020-11-02 15:17:29,2020-11-02 15:17:59,2,D7:F2:3B:06:4D:C8,53,53,-13613.72024387104,-11250.865931223492,20071.196623999534
61512,23521,32499,-28893,-26887,-18435,-21771,-11560,-28937,18639,53,-1,61437,2020-11-02 15:17:29,2020-11-02 15:17:59,2,D7:F2:3B:06:4D:C8,53,53,15650.229554221543,37968.09188197293,-27526.754344496047
61513,1519,9197,-13837,20724,31492,-13577,-17449,-16138,-10545,53,-1,61462,2020-11-02 15:17:29,2020-11-02 15:17:59,2,D7:F2:3B:06:4D:C8,53,53,-15738.602962112624,4045.7706130985525,-3779.2665885285146
61514,20726,18915,22015,-17174,-23547,28150,-9772,24821,-22065,53,-1,61488,2020-11-02 15:17:29,2020-11-02 15:17:59,2,D7:F2:3B:06:4D:C8,53,53,14455.158759004134,-26974.840533808914,18314.226421762003
61515,-29688,2527,4841,32484,-8950,16373,32465,-20749,4047,53,-1,61513,2020-11-02 15:17:29,2020-11-02 15:17:59,2,D7:F2:3B:06:4D:C8,53,53,29539.072260013825,5358.9667563098255,-3150.0856055745535
61516,8958,-8737,-3071,25057,3342,13809,-17460,-21776,-20786,53,-1,61539,2020-11-02 15:17:29,2020-11-02 15:17:59,2,D7:F2:3B:06:4D:C8,53,53,10536.074482350872,-6797.358571186664,-2966.315046833354
61517,-28403,5345,25583,-10278,27149,-27406,-27193,7406,-5938,53,-1,61565,2020-11-02 15:17:29,2020-11-02 15:17:59,2,D7:F2:3B:06:4D:C8,53,53,-33287.019846323914,9541.0623357316,17050.858109084184
61518,13580,-24867,16122,-16428,2574,-14355,-3137,14059,-14384,53,-1,61590,2020-11-02 15:17:29,2020-11-02 15:17:59,2,D7:F2:3B:06:4D:C8,53,53,-26360.32421321536,2156.9910997770457,-19057.378355105786
61519,-7676,-24353,-4094,10707,30219,-8979,6722,3817,22741,53,-1,61616,2020-11-02 15:17:29,2020-11-02 15:17:59,2,D7:F2:3B:06:4D:C8,53,53,8969.88102003513,8532.559782187012,-22704.340533250866
61520,30203,-13855,-27638,29395,-25087,8691,31031,5097,-8743,53,-1,61641,2020-11-02 15:17:29,2020-11-02 15:17:59,2,D7:F2:3B:06:4D:C8,53,53,-9289.64226627285,-41857.90808366186,5446.040343625136
61521,-24842,-22553,14363,28631,-16133,-5635,-32720,-5399,28378,53,-1,61667,2020-11-02 15:17:29,2020-11-02 15:17:59,2,D7:F2:3B:06:4D:C8,53,53,972.7583828194183,31984.781813621616,-17552.379196669444
61522,22516,32756,7211,-31260,-30713,-21755,-14038,15081,3547,53,-1,61692,2020-11-02 15:17:29,2020-11-02 15:17:59,2,D7:F2:3B:06:4D:C8,53,53,-39181.98879103243,-7074.362033098206,-6830.041669277552
61523,-25614,-21258,-6109,17398,-23038,-8947,-12506,27879,-29220,53,1,61718,2020-11-02 15:17:29,2020-11-02 15:17:59,2,D7:F2:3B:06:4D:C8,53,53,-3102.5723121352958,1115.4802545149546,-33681.28842324412
61524,-17158,-28432,-24046,-4096,-16895,-12268,-28890,-29468,22236,53,1,61744,2020-11-02 15:17:29,2020-11-02 15:17:59,2,D7:F2:3B:06:4D:C8,53,53,35060.43796387428,-20142.515431156673,6784.575586353038
61525,3842,-30996,-15348,-29437,20995,-25319,17191,-13856,2780,53,1,61769,2020-11-02 15:17:29,2020-11-02 15:17:59,2,D7:F2:3B:06:4D:C8,53,53,-11437.660781159493,32851.71730833025,-1009.2917064360936
61526,-19958,14568,-24052,-8699,-26370,-23266,20685,-17699,-22986,53,1,61795,2020-11-02 15:17:29,2020-11-02 15:17:59,2,D7:F2:3B:06:4D:C8,53,53,-2182.8139138095003,19398.875577841874,-28424.743476997108
61527,-31484,-5661,-4614,21767,29948,12576,32729,-27166,-26581,53,1,61820,2020-11-02 15:17:29,2020-11-02 15:17:59,2,D7:F2:3B:06:4D:C8,53,53,-10925.707615941683,21875.66827786135,21134.384861829418
61528,-31462,-10016,-13797,12047,26872,31265,-9510,2792,-11733,53,1,61846,2020-11-02 15:17:29,2020-11-02 15:17:59,2,D7:F2:3B:06:4D:C8,53,53,-2384.7426156651018,35691.735331073265,973.6224697731659
61529,-24538,12762,-6390,6170,5108,-12002,-14116,5101,-12499,53,1,61871,2020-11-02 15:17:29,2020-11-02 15:17:59,2,D7:F2:3B:06:4D:C8,53,53,98.86298397464907,26940.424287226702,-8945.27547561311
61530,16941,-9762,9724,20252,18156,-23274,-28706,-1040,29745,53,1,61897,2020-11-02 15:17:29,2020-11-02 15:17:59,2,D7:F2:3B:06:4D:C8,53,53,-6791.411732688211,-19675.65864479018,-6602.687677817146
61531,18729,-32287,16366,31510,-790,-15862,-9249,-10510,-14027,53,1,61923,2020-11-02 15:17:29,2020-11-02 15:17:59,2,D7:F2:3B:06:4D:C8,53,53,5059.0468527723315,19880.974624873314,35216.82352096222
61532,30756,-32030,-17939,-5362,-8982,-16893,16608,12275,-13767,53,1,61948,2020-11-02 15:17:29,2020-11-02 15:17:59,2,D7:F2:3B:06:4D:C8,53,53,40474.81320264722,17211.650198799416,-18952.80323975803
61533,-10714,29667,19953,13834,-12824,23293,-21537,-24846,-6339,53,1,61974,2020-11-02 15:17:29,2020-11-02 15:17:59,2,D7:F2:3B:06:4D:C8,53,53,-28349.98250139015,-4994.70787332544,23756.56287073139
61534,128,3291,5555,13572,2022,23565,4830,14066,32066,53,1,61999,2020-11-02 15:17:29,2020-11-02 15:17:59,2,D7:F2:3B:06:4D:C8,53,53,4573.529467967087,-3859.056595552954,-2428.085747653063
61535,-17131,-17414,8483,2056,2773,15376,-23077,29431,-30020,53,1,62051,2020-11-02 15:17:29,2020-11-02 15:17:59,2,D7:F2:3B:06:4D:C8,53,53,-1044.109102045316,13965.107390697118,-21738.57073842075
61536,5909,-26911,-25637,3583,765,12519,8924,14070,-22081,53,1,62053,2020-11-02 15:17:29,2020-11-02 15:17:59,2,D7:F2:3B:06:4D:C8,53,53,36280.97317198556,-1932.0803586090951,9814.887782422216
61537,-3115,29921,16631,-24851,-27146,-26625,-7719,19700,28352,53,1,62076,2020-11-02 15:17:29,2020-11-02 15:17:59,2,D7:F2:3B:06:4D:C8,53,53,22303.68768203516,-20319.027564806755,16469.43416158723
61538,228,-4637,24588,-5905,31478,-12033,-4907,3061,-18238,53,1,62102,2020-11-02 15:17:29,2020-11-02 15:17:59,2,D7:F2:3B:06:4D:C8,53,53,-880.0917665985058,4558.419844898615,24588.0
61539,-27368,-29711,-6413,31471,-22781,-14605,6867,16116,25539,53,1,62127,2020-11-02 15:17:29,2020-11-02 15:17:59,2,D7:F2:3B:06:4D:C8,53,53,1409.55904323281,17935.34857693329,36731.64750902875
61540,-12792,-4626,18149,16893,-5121,-11782,-19503,-25870,-26941,53,1,62153,2020-11-02 15:17:29,2020-11-02 15:17:59,2,D7:F2:3B:06:4D:C8,53,53,-2304.479174772753,-8256.573694651132,20998.56441659366
61541,-32468,2281,-31297,-21777,25601,-11273,-14897,-16143,3780,53,-1,62178,2020-11-02 15:17:29,2020-11-02 15:17:59,2,D7:F2:3B:06:4D:C8,53,53,3554.612190781454,-29407.51250152739,-34079.89340719331
61542,22002,28136,9213,-31772,23817,29421,-822,9967,12229,53,-1,62204,2020-11-02 15:17:29,2020-11-02 15:17:59,2,D7:F2:3B:06:4D:C8,53,53,-33757.200963803276,6150.0791270194095,-13536.239463780166
61543,-13802,-19477,5868,27108,8452,1012,11206,26605,31686,53,-1,62230,2020-11-02 15:17:29,2020-11-02 15:17:59,2,D7:F2:3B:06:4D:C8,53,53,-9429.284976449619,-22629.909175696954,-1804.979925818635
61544,21521,27363,24054,-11297,19472,-5150,18622,-23574,-28214,53,-1,62255,2020-11-02 15:17:29,2020-11-02 15:17:59,2,D7:F2:3B:06:4D:C8,53,53,42134.706126617195,-2147.9370906812073,-3245.771384137006
61545,4352,-26646,-30722,-14876,-29425,-23070,-962,15848,25811,53,-1,62281,2020-11-02 15:17:29,2020-11-02 15:17:59,2,D7:F2:3B:06:4D:C8,53,53,-722.1450212474447,39929.21832766055,8827.600710855942
61546,-21253,30708,-26879,6634,-30715,19694,309,-14616,-18982,53,-1,62306,2020-11-02 15:17:29,2020-11-02 15:17:59,2,D7:F2:3B:06:4D:C8,53,53,-28618.75754929133,-35097.92186843504,-8139.687392775571
61547,-9474,-27656,-9728,-28691,14849,23544,-8913,-11031,16605,53,-1,62332,2020-11-02 15:17:29,2020-11-02 15:17:59,2,D7:F2:3B:06:4D:C8,53,53,29469.44739461556,-8814.346409630092,1761.8069210408162
61548,-29187,-1803,23033,-17683,-2305,15102,-26324,19690,-6435,53,-1,62358,2020-11-02 15:17:29,2020-11-02 15:17:59,2,D7:F2:3B:06:4D:C8,53,53,683.6579351664568,-31145.879925401565,20374.43600446775
61549,-12547,-4108,-23552,18667,-14084,-28668,10026,3562,12765,53,-1,62383,2020-11-02 15:17:29,2020-11-02 15:17:59,2,D7:F2:3B:06:4D:C8,53,53,-10781.115336362676,-18732.624264802464,-16181.962713397266
61550,9728,500,-25341,-4886,3068,-8438,-31448,-4376,23771,53,-1,62409,2020-11-02 15:17:29,2020-11-02 15:17:59,2,D7:F2:3B:06:4D:C8,53,53,12139.069330842382,-23338.48704362379,-6708.821304492047
61551,26371,26357,25359,21484,-3070,-8948,-8923,-538,-17190,53,-1,62434,2020-11-02 15:17:29,2020-11-02 15:17:59,2,D7:F2:3B:06:4D:C8,53,53,-21086.097196102957,-38945.02323822749,-8477.12457207157
61552,-4862,8441,30995,-29706,-16639,-30195,27682,-6172,6364,53,-1,62460,2020-11-02 15:17:29,2020-11-02 15:17:59,2,D7:F2:3B:06:4D:C8,53,53,-4399.661093391231,26350.98949356923,-18489.128832184157
61553,-29439,-18442,17676,-20224,-21254,22545,-15582,30178,16603,53,1,62486,2020-11-02 15:17:29,2020-11-02 15:17:59,2,D7:F2:3B:06:4D:C8,53,53,-14361.778827222066,-25683.705378185132,-25559.53145041083
61554,-28669,10995,-1274,-3068,15099,-18411,-25047,28895,-9772,53,1,62511,2020-11-02 15:17:29,2020-11-02 15:17:59,2,D7:F2:3B:06:4D:C8,53,53,-14372.740477212023,10867.247442041755,-24894.817255970127
61555,-11000,25326,-29945,31493,26619,22042,10699,-12066,2100,53,1,62537,2020-11-02 15:17:29,2020-11-02 15:17:59,2,D7:F2:3B:06:4D:C8,53,53,-88.66424092853595,38881.54483848897,-12137.829732903343
61556,-31472,-23318,-31221,-9720,-5898,-19939,-5164,11235,18219,53,1,62562,2020-11-02 15:17:29,2020-11-02 15:17:59,2,D7:F2:3B:06:4D:C8,53,53,46133.51182022233,16977.54124179357,9613.996542364926
61557,-23530,-6940,-2549,19472,-8209,-17890,17878,18664,2860,53,1,62588,2020-11-02 15:17:29,2020-11-02 15:17:59,2,D7:F2:3B:06:4D:C8,53,53,23512.42939213978,7230.262826951693,1791.8885380630572
61558,15644,-8226,17924,-4585,30186,5149,26839,-29971,-17106,53,1,62613,2020-11-02 15:17:29,2020-11-02 15:17:59,2,D7:F2:3B:06:4D:C8,53,53,17568.015026079236,-7130.294484741277,-16558.84466393481
61559,-27868,-12581,13815,9242,-31769,30231,6105,10738,14130,53,1,62639,2020-11-02 15:17:29,2020-11-02 15:17:59,2,D7:F2:3B:06:4D:C8,53,53,24110.825564959137,-8413.969234187352,21763.14366773012
61560,20007,24286,-16659,-9962,-31256,15884,-17446,9205,11062,53,1,62665,2020-11-02 15:17:29,2020-11-02 15:17:59,2,D7:F2:3B:06:4D:C8,53,53,33990.26160587669,4086.495461313436,-9776.236331468786
61561,-30177,13536,25582,7184,-14613,-24832,-7717,502,-10183,53,1,62690,2020-11-02 15:17:29,2020-11-02 15:17:59,2,D7:F2:3B:06:4D:C8,53,53,7963.356486847861,40975.411505324126,2431.862338359064
61562,24,5346,26870,-12020,-29972,-7175,28892,28917,11069,53,1,62716,2020-11-02 15:17:29,2020-11-02 15:17:59,2,D7:F2:3B:06:4D:C8,53,53,-24246.956545392688,12732.951212904969,730.9197600424911
61563,-31472,-31775,-14345,-27381,27114,32502,31708,12788,-9664,53,1,62741,2020-11-02 15:17:29,2020-11-02 15:17:59,2,D7:F2:3B:06:4D:C8,53,53,887.2962068369743,-43523.35427911195,17630.847164451297
61564,31246,-13598,-7178,-21496,18667,-26381,-8229,-26382,-15548,53,-1,62767,2020-11-02 15:17:29,2020-11-02 15:17:59,2,D7:F2:3B:06:4D:C8,53,53,-6055.809535220076,18937.011564982222,-28591.23235995376
61565,20749,9697,-31499,-28925,27886,27887,26586,-27664,-69,53,-1,62792,2020-11-02 15:17:29,2020-11-02 15:17:59,2,D7:F2:3B:06:4D:C8,53,53,-3534.510698025195,-30176.903991218875,-24363.938733921976
61566,7681,26850,-23557,23039,-19730,4081,-10793,-22290,-1089,53,-1,62818,2020-11-02 15:17:29,2020-11-02 15:17:59,2,D7:F2:3B:06:4D:C8,53,53,-2619.5764860575587,-5315.415076560066,36051.861139164124
61567,21261,2788,-24848,27386,5615,-14864,2516,-30995,-23868,53,-1,62844,2020-11-02 15:17:29,2020-11-02 15:17:59,2,D7:F2:3B:06:4D:C8,53,53,9522.543632544586,-15290.724890090893,-27436.126988003234
61568,-10229,-12318,16626,-13324,-20493,13806,7375,24300,19913,53,-1,62869,2020-11-02 15:17:29,2020-11-02 15:17:59,2,D7:F2:3B:06:4D:C8,53,53,-4741.246318533931,21530.289561767946,-6837.883863697511
61569,-11508,-5152,16115,9966,-14087,-12568,-13368,3307,26062,53,-1,62895,2020-11-02 15:17:29,2020-11-02 15:17:59,2,D7:F2:3B:06:4D:C8,53,53,20234.381857204895,-2270.175684848041,-2021.505927951288
61570,22748,24810,-6648,20467,-15373,23798,22466,-17942,22483,53,-1,62920,2020-11-02 15:17:29,2020-11-02 15:17:59,2,D7:F2:3B:06:4D:C8,53,53,27037.357515036605,20008.268734010384,-6771.557344637632
61571,2053,-20493,14075,6901,5363,16386,-23361,3053,-25644,53,-1,62947,2020-11-02 15:17:29,2020-11-02 15:17:59,2,D7:F2:3B:06:4D:C8,53,53,-3417.93313973136,-239.30972010081769,-24709.187500000713
61572,-20198,-11,-13073,-11273,-25093,13048,-23363,2798,30933,53,-1,62972,2020-11-02 15:17:29,2020-11-02 15:17:59,2,D7:F2:3B:06:4D:C8,53,53,3764.7748992153147,22176.854666818235,8536.758228101613
61573,-28158,7669,31987,-8971,6401,-15884,-27462,-22291,-5161,53,-1,62997,2020-11-02 15:17:29,2020-11-02 15:17:59,2,D7:F2:3B:06:4D:C8,53,53,30007.710745763463,-29220.63434581774,10979.367842758918
61574,15115,15346,20714,25080,4604,-30478,14916,-2067,25050,53,-1,63023,2020-11-02 15:17:29,2020-11-02 15:17:59,2,D7:F2:3B:06:4D:C8,53,53,-28967.423812663186,5046.721980542561,5334.012739829403
61575,25324,-21775,-19467,2034,0,15865,-25536,19950,-20004,53,-1,63048,2020-11-02 15:17:29,2020-11-02 15:17:59,2,D7:F2:3B:06:4D:C8,53,53,29431.91280596849,-25063.151825162873,143.59376972061727
61576,8190,241,13036,18410,-8197,2819,19518,4335,12764,53,-1,63074,2020-11-02 15:17:29,2020-11-02 15:17:59,2,D7:F2:3B:06:4D:C8,53,53,-1518.5146577556109,8311.99419018423,-12871.532263740979
61577,1542,-27153,-21514,27620,-27645,19712,-13254,-6162,-17445,53,-1,63099,2020-11-02 15:17:29,2020-11-02 15:17:59,2,D7:F2:3B:06:4D:C8,53,53,26035.531566865946,12057.792613088817,19475.012254950387
61578,27135,7921,-17923,-32541,5898,-16131,-21707,2030,-2596,53,-1,63125,2020-11-02 15:17:29,2020-11-02 15:17:59,2,D7:F2:3B:06:4D:C8,53,53,27135.0,-10371.02447002913,16625.823932727573
61579,27640,-20237,10754,-15899,-31223,-32254,21296,-1556,-24354,53,-1,63151,2020-11-02 15:17:29,2020-11-02 15:17:59,2,D7:F2:3B:06:4D:C8,53,53,-32080.325816634042,8814.584671812767,-13502.224911548723
61580,15096,-3597,-18940,14056,17926,-1013,812,19435,22751,53,-1,63176,2020-11-02 15:17:29,2020-11-02 15:17:59,2,D7:F2:3B:06:4D:C8,53,53,17949.038760572133,1074.7874444452757,16620.11024394068
61581,12795,-18704,13831,11499,28929,-12779,12585,31464,-20770,53,-1,63202,2020-11-02 15:17:29,2020-11-02 15:17:59,2,D7:F2:3B:06:4D:C8,53,53,-25879.2715037578,1152.3312352082175,5812.369668143363
61582,23301,19950,-3830,32751,-27905,17947,29992,-27164,26076,53,-1,63228,2020-11-02 15:17:29,2020-11-02 15:17:59,2,D7:F2:3B:06:4D:C8,53,53,21459.560416794757,21807.400529323368,-4419.5644436530765
61583,5644,11502,14862,-16907,-29184,3355,-18902,25056,2264,53,-1,63253,2020-11-02 15:17:29,2020-11-02 15:17:59,2,D7:F2:3B:06:4D:C8,53,53,8674.287010713246,-9289.568136112577,14949.597074847647
61584,6669,11500,28429,-22532,14079,-30439,14023,6366,-31174,53,-1,63279,2020-11-02 15:17:29,2020-11-02 15:17:59,2,D7:F2:3B:06:4D:C8,53,53,30071.920536047106,-6343.498259468244,-6353.99300485858
61585,-26864,26599,-5107,10754,2816,793,11992,-24095,32553,53,-1,63304,2020-11-02 15:17:29,2020-11-02 15:17:59,2,D7:F2:3B:06:4D:C8,53,53,4468.066920252029,-37755.63372917798,3132.290807748833
61586,21778,-18206,-18671,21253,-13568,-12518,29915,-22555,-16858,53,-1,63330,2020-11-02 15:17:29,2020-11-02 15:17:59,2,D7:F2:3B:06:4D:C8,53,53,-11289.684996153008,30764.975820389744,-8966.896701672878
61587,30231,8928,10256,-8951,-25351,6429,27612,8170,7207,53,-1,63355,2020-11-02 15:17:29,2020-11-02 15:17:59,2,D7:F2:3B:06:4D:C8,53,53,1084.7292018847293,5254.103607805844,-32711.249423356185
61588,13340,7136,-4600,25614,15092,24602,-18468,28910,24105,53,-1,63381,2020-11-02 15:17:29,2020-11-02 15:17:59,2,D7:F2:3B:06:4D:C8,53,53,-6088.00000928955,4752.321900192317,13798.18062078631
61589,-7394,-17694,-5630,18701,30452,-20715,25821,498,-18645,53,-1,63407,2020-11-02 15:17:29,2020-11-02 15:17:59,2,D7:F2:3B:06:4D:C8,53,53,8350.854028636437,-6188.22830696837,17070.87693744062
61590,-20190,29157,-18427,268,-17167,-25326,-547,-8204,9262,53,-1,63432,2020-11-02 15:17:29,2020-11-02 15:17:59,2,D7:F2:3B:06:4D:C8,53,53,-22050.955347042014,19621.90568691919,-26945.449773503642
61591,-16856,-6939,24069,11791,-14869,-25844,-16418,-6410,17457,53,-1,63458,2020-11-02 15:17:29,2020-11-02 15:17:59,2,D7:F2:3B:06:4D:C8,53,53,2432.3518077311965,-25370.67327078579,-16186.53207053513
61592,13089,-22557,-32518,24849,2790,24322,-13857,21239,19509,53,1,63483,2020-11-02 15:17:29,2020-11-02 15:17:59,2,D7:F2:3B:06:4D:C8,53,53,10920.238525395584,18828.87541957532,-35549.71638399635
61593,-16622,3298,-20241,2828,-21018,32507,17376,19190,-26311,53,1,63509,2020-11-02 15:17:29,2020-11-02 15:17:59,2,D7:F2:3B:06:4D:C8,53,53,-12338.23608928888,14910.560922852295,-17952.962768603946
61594,-4888,21479,-26155,-4863,27112,1023,24287,12533,-27587,53,1,63534,2020-11-02 15:17:29,2020-11-02 15:17:59,2,D7:F2:3B:06:4D:C8,53,53,23776.227860357543,24233.193009138275,4094.7961260860684
61595,-29169,4584,13554,5633,-10277,23811,-8228,-19211,-5054,53,1,63560,2020-11-02 15:17:29,2020-11-02 15:17:59,2,D7:F2:3B:06:4D:C8,53,53,28387.975612095925,13882.043498185782,-7547.598423440715
61596,27923,-12317,-1793,1792,-5148,26364,31962,-14859,-13381,53,1,63586,2020-11-02 15:17:29,2020-11-02 15:17:59,2,D7:F2:3B:06:4D:C8,53,53,4372.155020840979,22080.686108770446,20686.82741359068
61597,-25576,230,-30731,19713,-14605,-15640,15065,-3597,7359,53,1,63611,2020-11-02 15:17:29,2020-11-02 15:17:59,2,D7:F2:3B:06:4D:C8,53,53,-37251.976199888566,-6475.174378471354,12997.74684210014
61598,10240,32734,-10509,-26627,5889,-12064,6616,-30737,-22848,53,1,63637,2020-11-02 15:17:29,2020-11-02 15:17:59,2,D7:F2:3B:06:4D:C8,53,53,-19890.463173585686,-29632.76659544692,-3616.635956243996
61599,28158,-17184,26606,17145,-8712,13804,-12331,10476,-17470,53,1,63662,2020-11-02 15:17:29,2020-11-02 15:17:59,2,D7:F2:3B:06:4D:C8,53,53,-14431.51757238823,-33717.84187062767,-21233.946786812787
61600,15891,-30491,-18187,-14088,24047,-19716,-30255,-28181,-30010,53,1,63688,2020-11-02 15:17:29,2020-11-02 15:17:59,2,D7:F2:3B:06:4D:C8,53,53,-18760.468130733567,-32429.617621549012,10457.373830740078
61601,-20221,-13077,-18168,25593,32497,-30984,6861,19692,-15670,53,1,63713,2020-11-02 15:17:29,2020-11-02 15:17:59,2,D7:F2:3B:06:4D:C8,53,53,368.53007477719075,-18952.945106807118,23465.358538968474
61602,21015,15082,-791,8186,23797,-8975,-8247,-23572,23758,53,1,63739,2020-11-02 15:17:29,2020-11-02 15:17:59,2,D7:F2:3B:06:4D:C8,53,53,21131.410575245885,13017.901732690014,-7329.416864827155
61603,2063,16092,18916,24293,-20734,13283,2755,2795,-32301,53,1,63765,2020-11-02 15:17:29,2020-11-02 15:17:59,2,D7:F2:3B:06:4D:C8,53,53,-14845.814339268589,6542.952667104291,18916.0
61604,-19714,-1317,-32264,11489,-25090,-22556,22341,8682,-21542,53,1,63790,2020-11-02 15:17:29,2020-11-02 15:17:59,2,D7:F2:3B:06:4D:C8,53,53,-15082.267908922753,-8066.0468178855535,33746.20074104871
61605,13303,7400,-26624,16100,18427,32751,-3524,24555,-27425,53,1,63816,2020-11-02 15:17:29,2020-11-02 15:17:59,2,D7:F2:3B:06:4D:C8,53,53,-13086.96891920712,3831.2172782541093,27470.351356954176
61606,23289,-8466,31740,22246,-18949,6904,-7881,-10004,4833,53,1,63841,2020-11-02 15:17:29,2020-11-02 15:17:59,2,D7:F2:3B:06:4D:C8,53,53,-7841.999321464517,22134.089736322963,32711.823476941063
61607,25078,-3855,19711,18918,8190,-10755,-12493,-26131,23009,53,1,63867,2020-11-02 15:17:29,2020-11-02 15:17:59,2,D7:F2:3B:06:4D:C8,53,53,27816.63635170304,2331.992722544899,-15908.714027824833
61608,3575,-24078,6914,31974,18943,-3836,24880,30957,-14880,53,1,63893,2020-11-02 15:17:29,2020-11-02 15:17:59,2,D7:F2:3B:06:4D:C8,53,53,24115.058703955674,2299.1818933019813,7315.176780248309
61609,-10247,17905,-23544,25319,-27391,-25845,13869,12268,-7457,53,1,63918,2020-11-02 15:17:29,2020-11-02 15:17:59,2,D7:F2:3B:06:4D:C8,53,53,26861.089349279773,-16001.112164518501,-1535.0109017550294
61610,-14336,-31247,-13043,20716,-13566,-8433,30506,-5143,6623,53,1,63944,2020-11-02 15:17:29,2020-11-02 15:17:59,2,D7:F2:3B:06:4D:C8,53,53,10237.169290259253,-23610.04304578031,26263.70092540223
61611,27653,-18957,-10738,29172,-31997,12047,17960,23271,-3618,53,1,63969,2020-11-02 15:17:29,2020-11-02 15:17:59,2,D7:F2:3B:06:4D:C8,53,53,-24095.818702074383,20282.6344046015,15727.9103725205
61612,11779,6643,-12533,1532,25088,-23537,-31705,-4124,-26402,53,1,64020,2020-11-02 15:17:29,2020-11-02 15:17:59,2,D7:F2:3B:06:4D:C8,53,53,-18220.764723284443,-172.946877742992,2814.995786176614
61613,18946,-25873,-2297,-28672,-29953,-16878,27433,17378,28124,53,1,64023,2020-11-02 15:17:29,2020-11-02 15:17:59,2,D7:F2:3B:06:4D:C8,53,53,21798.56033951557,2025.3525712295382,-23544.850139398055
61614,-9981,-18709,31748,25857,-9216,28183,18226,9695,-20781,53,1,64046,2020-11-02 15:17:29,2020-11-02 15:17:59,2,D7:F2:3B:06:4D:C8,53,53,35702.75006294038,-9094.128750760723,-10009.645658453524
61615,8199,27112,7173,10496,20737,-2789,14290,31199,-17869,53,1,64072,2020-11-02 15:17:29,2020-11-02 15:17:59,2,D7:F2:3B:06:4D:C8,53,53,15754.785781118106,20230.738152334594,14008.56997708018
61616,23309,-27422,-12793,-27905,-2562,-5088,15065,9956,-29140,53,-1,64097,2020-11-02 15:17:29,2020-11-02 15:17:59,2,D7:F2:3B:06:4D:C8,53,53,-23206.26266398123,2789.1343330948703,-30209.70898307798
61617,16666,-28193,-10485,20225,-22787,-28126,20698,-30231,31019,53,-1,64123,2020-11-02 15:17:29,2020-11-02 15:17:59,2,D7:F2:3B:06:4D:C8,53,53,31265.55126632969,-2082.7391140610616,-14165.575589974094
61618,31525,-8223,-8436,-17405,-17664,-1764,21211,26350,-13270,53,-1,64148,2020-11-02 15:17:29,2020-11-02 15:17:59,2,D7:F2:3B:06:4D:C8,53,53,19324.789500780975,19802.588787758446,19157.75138301593
61619,23849,12262,12811,-26618,-24834,24340,28892,-3087,29226,53,-1,64174,2020-11-02 15:17:29,2020-11-02 15:17:59,2,D7:F2:3B:06:4D:C8,53,53,21880.625571474426,-18398.005345407062,-8124.333197950013
61620,17962,24808,3589,11786,-12808,26636,25309,12276,19755,53,-1,64200,2020-11-02 15:17:29,2020-11-02 15:17:59,2,D7:F2:3B:06:4D:C8,53,53,28317.85332219473,9599.275887737867,-7543.49485674638
61621,-472,25063,-2312,25864,5880,28420,10974,7669,-16084,53,-1,64225,2020-11-02 15:17:29,2020-11-02 15:17:59,2,D7:F2:3B:06:4D:C8,53,53,7240.791981312535,-21393.996806348332,11117.100752143855
61622,-22494,-30745,-26633,-5372,-15629,-27391,14302,15093,-30674,53,-1,64251,2020-11-02 15:17:29,2020-11-02 15:17:59,2,D7:F2:3B:06:4D:C8,53,53,-37188.29835171059,4762.675127858925,27475.4279553683
61623,-19167,15336,-26379,15618,7409,-11523,32733,-5132,49,53,-1,64276,2020-11-02 15:17:29,2020-11-02 15:17:59,2,D7:F2:3B:06:4D:C8,53,53,-19167.0,-20945.22016507489,-22188.787466568334
61624,-15847,10726,-11013,-19969,-273,14587,7900,16116,-13517,53,-1,64302,2020-11-02 15:17:29,2020-11-02 15:17:59,2,D7:F2:3B:06:4D:C8,53,53,9788.16362152763,-14807.394777177778,13129.873069874338
61625,23296,-3095,-25348,5891,-7698,26619,-15398,-27405,-6346,53,-1,64328,2020-11-02 15:17:29,2020-11-02 15:17:59,2,D7:F2:3B:06:4D:C8,53,53,-21074.435314372502,-7453.921321578648,-26364.957388777333
61626,6399,-3854,14830,-25339,-31762,20217,-8743,26099,9786,53,-1,64353,2020-11-02 15:17:29,2020-11-02 15:17:59,2,D7:F2:3B:06:4D:C8,53,53,-15610.901282512896,-5070.181689578502,-2514.4454224142805
61627,23564,-24083,-32540,3589,2542,5895,11737,6900,-16068,53,-1,64379,2020-11-02 15:17:29,2020-11-02 15:17:59,2,D7:F2:3B:06:4D:C8,53,53,33646.05287565538,-21666.230375817955,-24343.832323415834
61628,-32214,16873,13797,9212,30202,-18702,-13609,-18189,63,53,-1,64404,2020-11-02 15:17:29,2020-11-02 15:17:59,2,D7:F2:3B:06:4D:C8,53,53,34867.01418134919,5523.931024853997,16327.113710336253
61629,-8977,-16921,16658,-30458,-13570,31481,24535,31217,28991,53,-1,64430,2020-11-02 15:17:29,2020-11-02 15:17:59,2,D7:F2:3B:06:4D:C8,53,53,21451.078879190794,10918.478314073192,-8064.352436733408
61630,-17371,1502,-32301,24055,-26619,-30752,-18730,-14354,-20416,53,-1,64481,2020-11-02 15:17:29,2020-11-02 15:17:59,2,D7:F2:3B:06:4D:C8,53,53,20585.830292230596,9040.834832313469,-29014.636697954855
61631,-23028,30427,-20757,-28432,9217,20447,21459,-6423,21570,53,-1,64483,2020-11-02 15:17:29,2020-11-02 15:17:59,2,D7:F2:3B:06:4D:C8,53,53,36850.653087957064,22215.228197689474,-5954.591935273384
61632,-30205,-29219,9972,-22036,-16642,32481,29131,9702,-31813,53,-1,64506,2020-11-02 15:17:29,2020-11-02 15:17:59,2,D7:F2:3B:06:4D:C8,53,53,1512.0415650124796,9602.97484288421,42083.59982787366
61633,13568,19177,-2826,-23827,-14089,-17942,-11073,2533,-1596,53,-1,64532,2020-11-02 15:17:29,2020-11-02 15:17:59,2,D7:F2:3B:06:4D:C8,53,53,13568.0,7983.380316566201,-17663.783392044395
61634,28413,28654,-9477,8940,-8455,-21265,3139,7398,1484,53,1,64558,2020-11-02 15:17:29,2020-11-02 15:17:59,2,D7:F2:3B:06:4D:C8,53,53,7376.988893607021,28654.0,-29029.160044059125
61635,30715,-10765,26625,-27410,30460,-15628,-12740,22247,-10033,53,1,64583,2020-11-02 15:17:29,2020-11-02 15:17:59,2,D7:F2:3B:06:4D:C8,53,53,7613.921655395992,41241.67209548364,-3056.101240812857
61636,-29447,-25865,-14588,17394,22272,25081,-28872,6120,2258,53,1,64609,2020-11-02 15:17:29,2020-11-02 15:17:59,2,D7:F2:3B:06:4D:C8,53,53,-40262.991116736695,6651.864891779517,9142.10138836215
61637,-1288,8697,-14074,-28683,28929,24062,-10699,18152,7635,53,1,64634,2020-11-02 15:17:29,2020-11-02 15:17:59,2,D7:F2:3B:06:4D:C8,53,53,5562.488604651289,-4558.893595604306,14954.913530578591
61638,-20745,-17928,-12792,-27913,-11262,11267,14388,-9241,23507,53,1,64660,2020-11-02 15:17:29,2020-11-02 15:17:59,2,D7:F2:3B:06:4D:C8,53,53,15737.16033650281,-10988.38989410668,-23388.04277998262
61639,23287,-10505,-25590,29434,-9983,-26104,-3789,-10010,-32558,53,1,64686,2020-11-02 15:17:29,2020-11-02 15:17:59,2,D7:F2:3B:06:4D:C8,53,53,19750.70936643403,29734.08189574721,5768.998816055788
61640,27899,16374,-15861,-1538,27137,-21747,2614,23269,-18481,53,1,64711,2020-11-02 15:17:29,2020-11-02 15:17:59,2,D7:F2:3B:06:4D:C8,53,53,8480.687658483428,-15330.626586967983,31481.47428711364
61641,-26625,20977,20486,1026,-11517,17680,1083,-28189,-24630,53,1,64737,2020-11-02 15:17:29,2020-11-02 15:17:59,2,D7:F2:3B:06:4D:C8,53,53,-37384.973264160544,11192.70626961941,6759.323220561635
61642,2562,18413,3333,30465,24070,-29933,-21948,-8991,-2624,53,1,64762,2020-11-02 15:17:29,2020-11-02 15:17:59,2,D7:F2:3B:06:4D:C8,53,53,6347.324172679411,-17758.378853040464,-1030.9017212153888
61643,-10233,-28183,14597,2049,-19196,-12777,9160,1506,20029,53,1,64788,2020-11-02 15:17:29,2020-11-02 15:17:59,2,D7:F2:3B:06:4D:C8,53,53,14012.845825528533,25790.901469819175,-15828.384006083712
61644,22801,22502,10761,4098,-10751,-9957,-30254,-3356,-15822,53,1,64814,2020-11-02 15:17:29,2020-11-02 15:17:59,2,D7:F2:3B:06:4D:C8,53,53,-13067.574716060713,-19094.9293469149,24630.20280623972
61645,-2777,-27672,23566,17925,-22017,4377,-26154,-9240,-978,53,1,64839,2020-11-02 15:17:29,2020-11-02 15:17:59,2,D7:F2:3B:06:4D:C8,53,53,29083.688460962312,252.81867211123608,-21974.594813664244
61646,-4061,-10008,2064,2313,-24580,-29160,-12072,31468,-15315,53,1,64865,2020-11-02 15:17:29,2020-11-02 15:17:59,2,D7:F2:3B:06:4D:C8,53,53,9261.707739766056,5719.278335494796,-1556.44018975913
61647,20013,16617,17419,-22001,6131,1812,9434,-529,-13010,53,1,64890,2020-11-02 15:17:29,2020-11-02 15:17:59,2,D7:F2:3B:06:4D:C8,53,53,-13492.591957676286,-15834.31352077477,23394.249220469945
61648,-18643,-21530,5108,-23792,29422,16393,4059,11762,-22991,53,1,64916,2020-11-02 15:17:29,2020-11-02 15:17:59,2,D7:F2:3B:06:4D:C8,53,53,8186.870323329646,23459.505487534305,14826.353887228383
61649,-28644,-1563,3068,-26100,6126,770,15835,-10254,-17100,53,-1,64941,2020-11-02 15:17:29,2020-11-02 15:17:59,2,D7:F2:3B:06:4D:C8,53,53,3550.451654483301,12898.580698115167,-25560.8145023469
61650,28434,-20510,21492,30476,20972,19970,17627,19699,11320,53,-1,64967,2020-11-02 15:17:29,2020-11-02 15:17:59,2,D7:F2:3B:06:4D:C8,53,53,-31585.924804642855,-17225.253822347833,19916.78952520055
61651,2587,-25372,16630,-19185,-7451,-20994,10971,-17165,29756,53,-1,64993,2020-11-02 15:17:29,2020-11-02 15:17:59,2,D7:F2:3B:06:4D:C8,53,53,-23680.471394003966,-17606.977533890513,7497.830998284415
61652,14351,7395,-2577,-246,23272,16377,-14886,14067,-2240,53,-1,65020,2020-11-02 15:17:29,2020-11-02 15:17:59,2,D7:F2:3B:06:4D:C8,53,53,-11111.33052422698,-5420.6653251959,-10697.33034049153
61653,-3077,23526,30717,-32250,22504,8693,21721,16626,-26043,53,-1,65044,2020-11-02 15:17:29,2020-11-02 15:17:59,2,D7:F2:3B:06:4D:C8,53,53,36170.836180033555,384.2578373846627,14071.163773888195
61654,17938,-8476,-7947,-23545,-30742,11506,-20521,17649,-23363,53,-1,65069,2020-11-02 15:17:29,2020-11-02 15:17:59,2,D7:F2:3B:06:4D:C8,53,53,5269.950187666361,-17223.463658122462,-11504.310219950174
61655,8203,29660,-8729,-20737,-24843,-10519,-26923,-18,-27199,53,-1,65095,2020-11-02 15:17:29,2020-11-02 15:17:59,2,D7:F2:3B:06:4D:C8,53,53,4310.809277922849,14562.23130024145,28152.41717735162
61656,-24307,-7453,-14107,-23302,-28176,1268,26066,-22547,17349,53,-1,65121,2020-11-02 15:17:29,2020-11-02 15:17:59,2,D7:F2:3B:06:4D:C8,53,53,-20927.530726413082,8846.430886972275,-18142.878086374807
61657,-14102,1002,-19206,-7688,-19721,21755,-9010,12013,22472,53,-1,65146,2020-11-02 15:17:29,2020-11-02 15:17:59,2,D7:F2:3B:06:4D:C8,53,53,6494.905487837184,14851.978938667757,17492.16305404886
61658,-28439,-12816,-18929,18946,29941,13828,23245,-26130,-2359,53,-1,65172,2020-11-02 15:17:29,2020-11-02 15:17:59,2,D7:F2:3B:06:4D:C8,53,53,35293.11627555285,-5948.417788695722,7095.48358968116
61659,-21213,5861,11215,-25104,-32763,-28436,7628,-26386,26315,53,-1,65197,2020-11-02 15:17:29,2020-11-02 15:17:59,2,D7:F2:3B:06:4D:C8,53,53,-19245.889391357523,-12690.327834780743,8869.624342745356
61660,5114,9445,3819,-24855,-21238,-25116,-24378,31722,24782,53,-1,65223,2020-11-02 15:17:29,2020-11-02 15:17:59,2,D7:F2:3B:06:4D:C8,53,53,-4892.100974227862,8202.540853928916,6223.459937814808
61661,30726,-23843,-2579,-18466,527,24291,-26180,-31001,-20268,53,1,65274,2020-11-02 15:17:29,2020-11-02 15:17:59,2,D7:F2:3B:06:4D:C8,53,53,9375.951406581384,-16377.380844057257,-34104.250437594
61662,-15113,-2080,-24837,2271,-15098,-8729,-11717,-23834,222,53,1,65276,2020-11-02 15:17:29,2020-11-02 15:17:59,2,D7:F2:3B:06:4D:C8,53,53,19132.074580888544,-21718.6347700514,3445.3394544562434
61663,32240,-8981,-766,-3103,-4865,-19978,7475,-17945,29154,53,1,65300,2020-11-02 15:17:29,2020-11-02 15:17:59,2,D7:F2:3B:06:4D:C8,53,53,-12769.70642313691,28334.031276335958,12441.060505379413
61664,-5391,29682,18439,4325,-4352,11268,-19154,-15385,-25374,53,1,65325,2020-11-02 15:17:29,2020-11-02 15:17:59,2,D7:F2:3B:06:4D:C8,53,53,5463.650644382731,34648.760106303525,4437.642474553924
61665,-5896,15346,-16624,31207,-22783,-32754,-18133,8422,-27167,53,1,65351,2020-11-02 15:17:29,2020-11-02 15:17:59,2,D7:F2:3B:06:4D:C8,53,53,7494.448931961542,18154.520040252017,12683.317598889826
61666,28162,-14349,-11496,28142,17664,6931,28202,26595,-29985,53,1,65376,2020-11-02 15:17:29,2020-11-02 15:17:59,2,D7:F2:3B:06:4D:C8,53,53,-9817.05713537938,-30793.260472466525,9303.255326794331
61667,-15354,21747,-2283,15351,-16640,20755,17452,30944,-18213,53,1,65402,2020-11-02 15:17:29,2020-11-02 15:17:59,2,D7:F2:3B:06:4D:C8,53,53,6378.057404231691,22330.736276663953,-13211.662086596441
61668,22536,-24592,14355,15357,22015,-27628,-22975,2014,32197,53,1,65427,2020-11-02 15:17:29,2020-11-02 15:17:59,2,D7:F2:3B:06:4D:C8,53,53,11389.089880283962,-20132.294472265115,-27994.34114210972
61669,-19445,-25874,20245,29443,18170,14615,-13614,28896,25396,53,1,65453,2020-11-02 15:17:29,2020-11-02 15:17:59,2,D7:F2:3B:06:4D:C8,53,53,35151.95003592866,-3936.435804845314,-14362.339914718163
61670,13,23020,-24820,-4860,5627,5657,7126,19684,-14031,53,1,65479,2020-11-02 15:17:29,2020-11-02 15:17:59,2,D7:F2:3B:06:4D:C8,53,53,29955.904718579295,-14620.420752586637,-5902.545087395163
61671,20245,16621,18198,2824,29688,794,-14889,24040,5169,53,1,65504,2020-11-02 15:17:29,2020-11-02 15:17:59,2,D7:F2:3B:06:4D:C8,53,53,3936.1640165239214,9630.618003123702,30150.33465341524
61672,6689,10220,-17896,-29680,-24847,-32488,-15656,-32532,28722,53,1,65530,2020-11-02 15:17:29,2020-11-02 15:17:59,2,D7:F2:3B:06:4D:C8,53,53,-19646.507611763267,-5944.727373359695,-6937.787263771928
61673,18742,-25114,16144,-15847,-30746,17168,-7719,1776,-14795,53,1,19,2020-11-02 15:17:29,2020-11-02 15:17:59,2,D7:F2:3B:06:4D:C8,53,53,-7785.279462480634,-17048.525732851456,29855.34273840076
61674,6691,27357,-30729,-15335,28651,25095,29915,-17935,-8647,53,1,45,2020-11-02 15:17:29,2020-11-02 15:17:59,2,D7:F2:3B:06:4D:C8,53,53,-19179.644854624585,-10304.459047928241,35544.41894278259
61675,-27873,27355,-12321,-7407,21738,12803,26332,-31758,-13507,53,1,71,2020-11-02 15:17:29,2020-11-02 15:17:59,2,D7:F2:3B:06:4D:C8,53,53,-16399.609891541437,29539.721652304066,23140.113117909656
61676,-8681,-8226,24554,9993,-10782,-30974,26331,3571,-26046,53,1,96,2020-11-02 15:17:29,2020-11-02 15:17:59,2,D7:F2:3B:06:4D:C8,53,53,-12458.2541107133,-22230.712016508558,-9824.108140282111
61677,-14323,25826,-27153,-7676,-14112,-31232,20185,-13837,-28741,53,1,122,2020-11-02 15:17:29,2020-11-02 15:17:59,2,D7:F2:3B:06:4D:C8,53,53,14660.036329538389,-27066.878590029824,-25727.09529288527
61678,9484,-30238,-32524,10498,-5662,27393,8919,-268,-19008,53,-1,147,2020-11-02 15:17:29,2020-11-02 15:17:59,2,D7:F2:3B:06:4D:C8,53,53,-7832.487000821111,-12258.337164583349,-43017.19183467655
61679,18120,-16669,-17909,14849,-11280,14075,31189,17141,-21820,53,-1,173,2020-11-02 15:17:29,2020-11-02 15:17:59,2,D7:F2:3B:06:4D:C8,53,53,-5441.592790359672,21347.45693383176,-21014.218813986496
61680,2082,-16416,-19495,-14339,7155,-22290,-24108,18421,-26169,53,-1,198,2020-11-02 15:17:29,2020-11-02 15:17:59,2,D7:F2:3B:06:4D:C8,53,53,-17968.58276908248,-18183.318355701413,-609.7309618546624
61681,-17682,14039,1266,23791,5378,13793,21201,19441,-4919,53,-1,224,2020-11-02 15:17:29,2020-11-02 15:17:59,2,D7:F2:3B:06:4D:C8,53,53,17607.761987386915,-14077.162589977444,1774.7146843568937
61682,1010,15072,-29692,13806,8954,3053,-25140,7663,8653,53,-1,250,2020-11-02 15:17:29,2020-11-02 15:17:59,2,D7:F2:3B:06:4D:C8,53,53,3685.8811148928708,29096.350094972622,15799.267057609435
61683,32502,13549,21252,-10762,26618,29681,27336,9454,23504,53,-1,275,2020-11-02 15:17:29,2020-11-02 15:17:59,2,D7:F2:3B:06:4D:C8,53,53,7271.469819467744,-2637.9553815508284,-40395.1708384742
61684,-12554,25847,-29443,23798,-32262,24829,-23099,11246,22226,53,-1,301,2020-11-02 15:17:29,2020-11-02 15:17:59,2,D7:F2:3B:06:4D:C8,53,53,-26372.842367679496,-1682.9152535217981,31530.961858132283
61685,-24302,22762,22234,-31766,12293,8690,23234,2286,-1069,53,-1,326,2020-11-02 15:17:29,2020-11-02 15:17:59,2,D7:F2:3B:06:4D:C8,53,53,-24302.0,1948.5105825789396,-31759.45066448061
61686,-3084,2789,-258,-29725,11274,26092,25275,-13077,-23081,53,-1,352,2020-11-02 15:17:29,2020-11-02 15:17:59,2,D7:F2:3B:06:4D:C8,53,53,-465.743630755099,3626.9657786532075,-1996.0819399237075
61687,-11281,-18456,-2569,12515,-27128,30968,19009,-24854,-15398,53,-1,378,2020-11-02 15:17:29,2020-11-02 15:17:59,2,D7:F2:3B:06:4D:C8,53,53,13894.418150248997,-14417.219163511518,8577.505106807423
61688,-11281,-4626,24327,24804,-7927,-13567,3644,26089,-7205,53,-1,403,2020-11-02 15:17:29,2020-11-02 15:17:59,2,D7:F2:3B:06:4D:C8,53,53,-9855.950852580732,6787.860481636342,-24438.67731431783
61689,-20489,16624,10759,8679,31243,-1785,6456,30183,-2085,53,-1,429,2020-11-02 15:17:29,2020-11-02 15:17:59,2,D7:F2:3B:06:4D:C8,53,53,-24800.31041328235,-71.40079279620295,-14030.398545003174
61690,20221,30447,13836,-7705,-18167,-12788,-12492,-540,30171,53,1,454,2020-11-02 15:17:29,2020-11-02 15:17:59,2,D7:F2:3B:06:4D:C8,53,53,5650.221010985886,-19415.762486786487,-33443.186385027795
61691,10240,-13069,11544,-27666,-30970,-16369,-6861,29410,7385,53,1,480,2020-11-02 15:17:29,2020-11-02 15:17:59,2,D7:F2:3B:06:4D:C8,53,53,-9592.094347342909,-10029.087058754278,14708.141820080458
61692,32516,27125,-23017,-1032,-5373,-28912,-16328,1504,28626,53,1,508,2020-11-02 15:17:29,2020-11-02 15:17:59,2,D7:F2:3B:06:4D:C8,53,53,-45635.99524532011,-3549.569197761928,-15086.240965841038
61693,9223,-5390,-11758,-13312,-5636,18707,19394,28895,-13125,53,1,531,2020-11-02 15:17:29,2020-11-02 15:17:59,2,D7:F2:3B:06:4D:C8,53,53,9613.700542283386,4196.510463509892,11930.316626684811
61694,4873,24303,-1013,-15867,28919,-16619,15054,19170,-452,53,1,557,2020-11-02 15:17:29,2020-11-02 15:17:59,2,D7:F2:3B:06:4D:C8,53,53,-1646.1809215219844,-9192.498275230788,-22982.51880959735
61695,-19187,1774,27148,-16122,20219,-23274,-32046,-16411,-27847,53,1,582,2020-11-02 15:17:29,2020-11-02 15:17:59,2,D7:F2:3B:06:4D:C8,53,53,19689.9561454052,16260.009596903052,-21359.299237115454
61696,27677,-16404,-4079,-28919,-9732,-32745,-11307,16105,20535,53,1,608,2020-11-02 15:17:29,2020-11-02 15:17:59,2,D7:F2:3B:06:4D:C8,53,53,2695.64107170061,12035.515747485833,-29993.760449543188
61697,5446,-28172,29706,7947,-24320,5383,11224,22251,32054,53,1,633,2020-11-02 15:17:29,2020-11-02 15:17:59,2,D7:F2:3B:06:4D:C8,53,53,-40401.96987332827,-5202.328880980269,6810.54627535806
61698,14356,24041,8213,5138,-1548,-18418,20442,-24596,-22730,53,1,685,2020-11-02 15:17:29,2020-11-02 15:17:59,2,D7:F2:3B:06:4D:C8,53,53,9317.478220498437,26539.909068770972,-7767.600159116437
61699,-21206,-16156,27895,-8427,-2324,7181,-1318,19951,30522,53,1,687,2020-11-02 15:17:29,2020-11-02 15:17:59,2,D7:F2:3B:06:4D:C8,53,53,-8420.590530947164,-28489.138655119936,-24623.24980175188
61700,8484,-10269,-14365,-31216,23275,-27387,24539,-18960,15934,53,1,710,2020-11-02 15:17:29,2020-11-02 15:17:59,2,D7:F2:3B:06:4D:C8,53,53,8285.028027077191,-8108.563774622683,-15792.192567956552
61701,31267,-25113,8176,10245,30182,-769,-25639,23537,-26302,53,1,736,2020-11-02 15:17:29,2020-11-02 15:17:59,2,D7:F2:3B:06:4D:C8,53,53,-6426.570987965373,-8205.832533113193,39579.01630630987
61702,6683,18918,5876,31498,32229,-15880,-20009,30961,2235,53,1,761,2020-11-02 15:17:29,2020-11-02 15:17:59,2,D7:F2:3B:06:4D:C8,53,53,10034.012861147832,-17899.456883327446,4001.077128002099
61703,-22520,-1309,1512,-2298,-3347,-1293,10198,-13072,-20545,53,1,787,2020-11-02 15:17:29,2020-11-02 15:17:59,2,D7:F2:3B:06:4D:C8,53,53,-9813.345498621104,600.7120797313271,-20358.96412202639
61704,-8441,20451,10478,-22527,-8462,16120,29908,10736,3523,53,1,813,2020-11-02 15:17:29,2020-11-02 15:17:59,2,D7:F2:3B:06:4D:C8,53,53,-18561.715397263088,15848.783904828804,-1887.0973077840795
61705,-1278,32745,25078,-2048,-7182,13305,-30510,5872,10182,53,1,838,2020-11-02 15:17:29,2020-11-02 15:17:59,2,D7:F2:3B:06:4D:C8,53,53,29556.69579975364,18714.925173288124,21884.416879575572
61706,-5367,-5656,13547,4093,-17163,21494,-25904,752,-2104,53,1,864,2020-11-02 15:17:29,2020-11-02 15:17:59,2,D7:F2:3B:06:4D:C8,53,53,-5367.0,-6555.395084331914,-13135.385045300995
61707,27062,28653,14671,-6401,-14086,28153,22478,12015,18635,53,1,889,2020-11-02 15:17:29,2020-11-02 15:17:59,2,D7:F2:3B:06:4D:C8,53,53,24878.953315154497,27197.89154306111,-20245.90999570649
61708,-7137,17635,-19498,18674,-17150,-22298,4812,26606,4046,53,1,915,2020-11-02 15:17:29,2020-11-02 15:17:59,2,D7:F2:3B:06:4D:C8,53,53,19421.189575617584,17635.0,7343.443910586021
61709,-7434,-17185,13801,28910,19202,12004,-13627,-9238,-24366,53,1,940,2020-11-02 15:17:29,2020-11-02 15:17:59,2,D7:F2:3B:06:4D:C8,53,53,-6848.219606182176,-22210.799622165694,-915.6693559939176
61710,-29956,-8733,31479,-20763,-19969,-8979,-2627,-16663,-14633,53,-1,966,2020-11-02 15:17:29,2020-11-02 15:17:59,2,D7:F2:3B:06:4D:C8,53,53,-1216.9274002743623,18326.346319426866,-40338.79998565762
61711,-3086,9712,9229,489,6144,26868,-21437,-9239,-28453,53,-1,992,2020-11-02 15:17:29,2020-11-02 15:17:59,2,D7:F2:3B:06:4D:C8,53,53,1601.529041604782,10862.753297007923,-8273.842912289305
61712,29938,-7437,-22276,28139,-13563,-27395,7999,-30231,20957,53,-1,1017,2020-11-02 15:17:29,2020-11-02 15:17:59,2,D7:F2:3B:06:4D:C8,53,53,6881.328985920067,-15856.153117017395,-33897.532487147735
61713,27636,20471,-21241,21232,32257,21512,-5572,-16920,-24100,53,-1,1043,2020-11-02 15:17:29,2020-11-02 15:17:59,2,D7:F2:3B:06:4D:C8,53,53,-20599.913468146096,-7467.271045544372,33968.71864285239
61714,-16900,-6929,4605,1260,-12286,-6386,26941,-22041,2009,53,-1,1068,2020-11-02 15:17:29,2020-11-02 15:17:59,2,D7:F2:3B:06:4D:C8,53,53,16415.631470025488,8014.172139856976,-4596.428434453106
61715,11524,32752,3086,-21782,4358,4111,19518,5862,27860,53,-1,1094,2020-11-02 15:17:29,2020-11-02 15:17:59,2,D7:F2:3B:06:4D:C8,53,53,-29800.001165906287,15768.554946463906,-8850.541306176263
61716,-14579,-24073,18966,5362,-20983,-18166,28479,3044,24528,53,-1,1120,2020-11-02 15:17:29,2020-11-02 15:17:59,2,D7:F2:3B:06:4D:C8,53,53,32300.657704660014,-8633.849516697868,5821.501556248491
61717,18954,-3849,14351,7930,9480,-21242,-20416,10978,-23091,53,-1,1145,2020-11-02 15:17:29,2020-11-02 15:17:59,2,D7:F2:3B:06:4D:C8,53,53,-3594.741589953841,-4765.876771966574,-23332.04597749382
61718,-9723,-1293,-3324,-16899,7426,-15608,5701,14049,-23608,53,-1,1171,2020-11-02 15:17:29,2020-11-02 15:17:59,2,D7:F2:3B:06:4D:C8,53,53,309.41650514722664,1619.893139041365,10224.370965708804
61719,-6899,-25613,-1,-28419,-10498,-22772,2241,32225,-27713,53,-1,1196,2020-11-02 15:17:29,2020-11-02 15:17:59,2,D7:F2:3B:06:4D:C8,53,53,20662.526551865987,15261.44833021017,-6615.902233086455
61720,29189,-26383,8964,-31748,-5890,-496,-12088,-18718,-18109,53,-1,1222,2020-11-02 15:17:29,2020-11-02 15:17:59,2,D7:F2:3B:06:4D:C8,53,53,34137.78196691909,-14457.301550788961,-15937.753299905513
61721,21008,31726,30206,-4356,-1796,-10985,-24370,29157,9789,53,-1,1247,2020-11-02 15:17:29,2020-11-02 15:17:59,2,D7:F2:3B:06:4D:C8,53,53,37695.32739968703,-21983.895478725404,21355.28524302313
61722,-22250,15340,29703,16635,-12546,20249,-13871,-12056,-7624,53,-1,1273,2020-11-02 15:17:29,2020-11-02 15:17:59,2,D7:F2:3B:06:4D:C8,53,53,35283.99010105082,-16778.17178171662,-9283.280843115543
61723,-12247,17136,15621,-31487,10748,9238,-30765,19948,-23754,53,1,1298,2020-11-02 15:17:29,2020-11-02 15:17:59,2,D7:F2:3B:06:4D:C8,53,53,-2191.808325486156,18017.902291801118,-18926.127952316012
61724,-30424,-18958,-6894,-21497,21244,-30709,-9004,-30994,-13259,53,1,1324,2020-11-02 15:17:29,2020-11-02 15:17:59,2,D7:F2:3B:06:4D:C8,53,53,-15877.030591989964,3862.120001488128,32642.866060980617
61725,-26594,6892,24329,17939,32499,27403,-20266,24048,-25034,53,1,1350,2020-11-02 15:17:29,2020-11-02 15:17:59,2,D7:F2:3B:06:4D:C8,53,53,-21192.66986212267,29723.207607693017,-3747.320993063864
61726,-25315,-20253,-27919,-15083,-13589,-25846,26328,-28686,27705,53,1,1375,2020-11-02 15:17:29,2020-11-02 15:17:59,2,D7:F2:3B:06:4D:C8,53,53,-22323.75092195545,-13774.701537393166,33799.578951966716
61727,-20954,1504,6641,-16621,14059,21251,-25383,-781,3133,53,1,1401,2020-11-02 15:17:29,2020-11-02 15:17:59,2,D7:F2:3B:06:4D:C8,53,53,-20954.0,-6009.005377118823,-3202.616333212123
61728,16160,26849,-16406,-1523,3826,-20746,29146,32499,14656,53,1,1426,2020-11-02 15:17:29,2020-11-02 15:17:59,2,D7:F2:3B:06:4D:C8,53,53,-6658.879926891244,34052.80725732334,6872.908628436113
61729,-3060,-545,-13592,-15356,-4874,-525,25306,-13839,30274,53,1,1452,2020-11-02 15:17:29,2020-11-02 15:17:59,2,D7:F2:3B:06:4D:C8,53,53,-11559.064005780203,4068.3721123712817,-6651.276318538885
61730,-26372,13284,13543,24316,20724,4856,-19496,-21264,-3004,53,1,1478,2020-11-02 15:17:29,2020-11-02 15:17:59,2,D7:F2:3B:06:4D:C8,53,53,28264.69312246924,-11239.872055685535,11407.553982535399
61731,14601,-20764,18675,-26632,25334,2559,11478,-23312,-24134,53,1,1503,2020-11-02 15:17:29,2020-11-02 15:17:59,2,D7:F2:3B:06:4D:C8,53,53,25734.487892152873,-17036.298932490867,6370.963318953268
61732,24075,17637,-19219,-26634,12796,24818,-26413,-4369,-23876,53,1,1529,2020-11-02 15:17:29,2020-11-02 15:17:59,2,D7:F2:3B:06:4D:C8,53,53,-18019.497049327038,16248.189955469725,25910.102359123688
61733,23561,9190,15352,-17419,28162,12266,-18224,28141,27326,53,1,1554,2020-11-02 15:17:29,2020-11-02 15:17:59,2,D7:F2:3B:06:4D:C8,53,53,-3339.2421489650624,6738.243514760559,28613.04355021259
61734,-27174,-32269,-8943,27401,20728,-8698,10704,-21780,20415,53,1,1580,2020-11-02 15:17:29,2020-11-02 15:17:59,2,D7:F2:3B:06:4D:C8,53,53,-29702.97243788181,14243.970382786772,27830.462124958085
61735,25386,-1792,28127,15376,27378,23817,20946,-31761,9664,53,-1,1605,2020-11-02 15:17:29,2020-11-02 15:17:59,2,D7:F2:3B:06:4D:C8,53,53,-8820.083481472779,-17799.406261245313,-32313.706892385344
61736,15852,30444,28865,-11786,-12284,-29440,-3119,20463,-3392,53,-1,1631,2020-11-02 15:17:29,2020-11-02 15:17:59,2,D7:F2:3B:06:4D:C8,53,53,-11619.932023462194,30444.0,-30813.167782136872
61737,-2005,23283,-16153,3567,-29442,30211,-29489,-14097,18112,53,-1,1657,2020-11-02 15:17:29,2020-11-02 15:17:59,2,D7:F2:3B:06:4D:C8,53,53,12029.750274356971,-24032.150758867392,-9207.516562009421
61738,30743,3818,-19474,30187,28433,-21783,-18740,9453,-577,53,-1,1682,2020-11-02 15:17:29,2020-11-02 15:17:59,2,D7:F2:3B:06:4D:C8,53,53,32379.947369859037,-6527.962388978354,-15743.905626408035
61739,26881,2537,-8207,26095,19737,-28956,20681,-20761,-21824,53,-1,1708,2020-11-02 15:17:29,2020-11-02 15:17:59,2,D7:F2:3B:06:4D:C8,53,53,27339.79685798921,5264.314051448767,-4604.550394077823
61740,3326,-28695,-24078,-19987,25362,-32536,-3646,-2334,-23356,53,-1,1733,2020-11-02 15:17:29,2020-11-02 15:17:59,2,D7:F2:3B:06:4D:C8,53,53,19542.428919868627,21273.42880007551,-24078.0
61741,30195,32495,18172,-4886,-7162,31476,-4798,-8224,31438,53,-1,1759,2020-11-02 15:17:29,2020-11-02 15:17:59,2,D7:F2:3B:06:4D:C8,53,53,31450.492386161808,8236.414723329808,35226.58988851027
61742,4596,20212,16905,4332,-11778,19716,22590,-21536,-5681,53,-1,1785,2020-11-02 15:17:29,2020-11-02 15:17:59,2,D7:F2:3B:06:4D:C8,53,53,-2590.7650989606277,-22395.36207754026,14393.153880157022
61743,8702,25078,-13042,-15119,-32259,1038,4422,-26400,32709,53,-1,1810,2020-11-02 15:17:29,2020-11-02 15:17:59,2,D7:F2:3B:06:4D:C8,53,53,19634.622873703433,22032.839845548944,1939.124789133636
61744,-17147,-30219,3856,18169,16382,4369,-2620,29665,-5820,53,-1,1836,2020-11-02 15:17:29,2020-11-02 15:17:59,2,D7:F2:3B:06:4D:C8,53,53,-30054.24635051378,-9123.084747628334,-15348.873150502635
61745,8713,-13325,23051,31742,-21505,1552,-24884,8675,-30404,53,1,1861,2020-11-02 15:17:29,2020-11-02 15:17:59,2,D7:F2:3B:06:4D:C8,53,53,3708.3223832256754,-18258.523642570945,-20921.16761788752
61746,-13817,-12047,-16117,-2304,25856,18959,14545,1765,-18121,53,1,1887,2020-11-02 15:17:29,2020-11-02 15:17:59,2,D7:F2:3B:06:4D:C8,53,53,16454.3406272544,-17521.78016061863,-4247.267536338694
61747,-4345,-29456,19214,7172,-22274,-16368,13012,19431,-716,53,1,1913,2020-11-02 15:17:29,2020-11-02 15:17:59,2,D7:F2:3B:06:4D:C8,53,53,-606.65205123394,-5213.219541696022,35045.21468472996
61748,2317,23535,-31986,4103,31997,9234,24790,-1047,-25805,53,1,1938,2020-11-02 15:17:29,2020-11-02 15:17:59,2,D7:F2:3B:06:4D:C8,53,53,28447.76293830081,27631.646172033354,3096.0981298713996
61749,17428,-787,24591,-12536,8445,29969,12760,-17428,-718,53,1,1964,2020-11-02 15:17:29,2020-11-02 15:17:59,2,D7:F2:3B:06:4D:C8,53,53,-15708.454417958099,-22033.025462707737,13298.950438234027
61750,-7912,7148,7952,20746,-14597,26127,-16935,16111,51,53,1,1989,2020-11-02 15:17:29,2020-11-02 15:17:59,2,D7:F2:3B:06:4D:C8,53,53,-5626.615251549882,4256.115550478848,11276.28632272161
61751,-31199,26346,23051,-2292,2298,-8693,14811,21233,-21709,53,1,2015,2020-11-02 15:17:29,2020-11-02 15:17:59,2,D7:F2:3B:06:4D:C8,53,53,-37089.52136183693,26959.745735004944,-9817.200876712488
61752,-19682,18404,16126,-8439,16379,-24060,32220,24818,-27596,53,1,2040,2020-11-02 15:17:29,2020-11-02 15:17:59,2,D7:F2:3B:06:4D:C8,53,53,-30530.226058939057,3704.1890595340737,-6349.8422186150765
61753,-30182,25830,16633,5128,-27916,23045,-4900,3315,8246,53,1,2066,2020-11-02 15:17:29,2020-11-02 15:17:59,2,D7:F2:3B:06:4D:C8,53,53,-38042.59973330016,-11441.268702897883,16633.0
61754,-15331,21992,2306,-17400,7659,-5373,28636,-16397,11577,53,1,2092,2020-11-02 15:17:29,2020-11-02 15:17:59,2,D7:F2:3B:06:4D:C8,53,53,1960.8746411957377,26064.659725117737,-6386.998125515702
61755,2330,-3099,-22530,30988,13543,19711,-1317,-781,25661,53,1,2117,2020-11-02 15:17:29,2020-11-02 15:17:59,2,D7:F2:3B:06:4D:C8,53,53,-3868.320569571485,262.2917669888609,-22530.0
61756,-28141,1765,-18696,-22259,-11546,-14343,-21797,-32013,-2239,53,1,2143,2020-11-02 15:17:29,2020-11-02 15:17:59,2,D7:F2:3B:06:4D:C8,53,53,9527.249870864443,-4385.716427187063,32164.709283909513
61757,-11762,26339,-268,-9975,-11799,-21514,-38,31730,-20039,53,1,2168,2020-11-02 15:17:29,2020-11-02 15:17:59,2,D7:F2:3B:06:4D:C8,53,53,6765.585276608868,-25640.84135829582,-11354.88878429198
61758,29709,-1565,5881,-7419,28906,23797,-30247,21745,702,53,1,2194,2020-11-02 15:17:29,2020-11-02 15:17:59,2,D7:F2:3B:06:4D:C8,53,53,-29388.049364030398,-6083.364979543866,-4358.358877257802
61759,3848,26595,-14341,-6397,2284,-15629,28631,17392,31426,53,1,2219,2020-11-02 15:17:29,2020-11-02 15:17:59,2,D7:F2:3B:06:4D:C8,53,53,-28588.169156982138,-2901.575717357146,10102.616126935573
61760,-22018,485,27390,22531,-11282,32500,9941,26095,-16698,53,1,2245,2020-11-02 15:17:29,2020-11-02 15:17:59,2,D7:F2:3B:06:4D:C8,53,53,-21918.957942142544,6860.538995658711,-26603.23169127451
61761,15355,-12823,-1794,-13052,-32273,24312,16083,15087,-25910,53,1,2271,2020-11-02 15:17:29,2020-11-02 15:17:59,2,D7:F2:3B:06:4D:C8,53,53,5390.117761443387,-16900.317983732337,-9420.704462326901
61762,-31232,-17683,-26634,4097,13555,27641,-28975,30447,-4147,53,-1,2296,2020-11-02 15:17:29,2020-11-02 15:17:59,2,D7:F2:3B:06:4D:C8,53,53,14645.542681655708,20523.9907058318,-36902.17004549639
61763,27159,-16666,-29211,-2830,-12806,14318,-29746,-17426,-4656,53,-1,2322,2020-11-02 15:17:29,2020-11-02 15:17:59,2,D7:F2:3B:06:4D:C8,53,53,-23462.578104396023,23283.62300425481,27857.30939072997
61764,25863,-25888,-23302,-19477,10754,27110,-5688,8172,-28204,53,-1,2347,2020-11-02 15:17:29,2020-11-02 15:17:59,2,D7:F2:3B:06:4D:C8,53,53,23274.808518066435,12657.611229773547,-34353.088411426026
61765,19446,-5400,-14339,-270,-17414,-24336,-4926,-8214,6105,53,-1,2373,2020-11-02 15:17:29,2020-11-02 15:17:59,2,D7:F2:3B:06:4D:C8,53,53,16739.955527841503,16076.531173962885,8615.8500067311
61766,12547,-4370,-26127,14065,7162,-10249,-23874,23019,-5413,53,-1,2399,2020-11-02 15:17:29,2020-11-02 15:17:59,2,D7:F2:3B:06:4D:C8,53,53,-18622.830391868465,22629.401418084224,494.5883691594863
61767,-23551,-15633,32249,21740,-260,32502,15290,-7189,6366,53,-1,2424,2020-11-02 15:17:29,2020-11-02 15:17:59,2,D7:F2:3B:06:4D:C8,53,53,24890.165805451164,-3468.3488655561123,-34748.935139424706
61768,-7167,12784,11508,-1304,16128,-31754,5954,18156,10720,53,-1,2450,2020-11-02 15:17:29,2020-11-02 15:17:59,2,D7:F2:3B:06:4D:C8,53,53,7464.187085630985,6486.134530102444,-15793.877896454447
61769,1022,7408,25338,12774,28423,30964,17724,9196,-10014,53,-1,2475,2020-11-02 15:17:29,2020-11-02 15:17:59,2,D7:F2:3B:06:4D:C8,53,53,-19811.038173693207,10662.272880348148,-13848.317425068759
61770,10994,27378,-8193,-22553,-3575,-6153,-6347,-16405,9958,53,-1,2501,2020-11-02 15:17:29,2020-11-02 15:17:59,2,D7:F2:3B:06:4D:C8,53,53,4375.106022621061,21431.98242771661,21426.076297560212
61771,3570,25843,3072,-27159,15365,10498,8497,15595,-13337,53,-1,2527,2020-11-02 15:17:29,2020-11-02 15:17:59,2,D7:F2:3B:06:4D:C8,53,53,2107.424670613338,-22736.584695702608,-12986.501092782166
61772,-32522,-23056,25090,-29207,8194,15628,11566,-7959,18407,53,1,2552,2020-11-02 15:17:29,2020-11-02 15:17:59,2,D7:F2:3B:06:4D:C8,53,53,-6901.260364913917,14336.974212112375,-44334.991776438765
61773,-19199,-30737,9994,-21270,-18943,-30191,17708,31975,-26651,53,1,2578,2020-11-02 15:17:29,2020-11-02 15:17:59,2,D7:F2:3B:06:4D:C8,53,53,-27322.209587130394,-12761.586510352587,-22447.351269486262
61774,-29945,-30221,-7918,-29456,31746,-21488,-14806,-15388,10724,53,1,2603,2020-11-02 15:17:29,2020-11-02 15:17:59,2,D7:F2:3B:06:4D:C8,53,53,-12910.8135522197,-10156.38544047085,-40035.80045664645
61775,30468,-5133,-1009,19194,-13571,-18416,-14549,19170,-28959,53,1,2654,2020-11-02 15:17:29,2020-11-02 15:17:59,2,D7:F2:3B:06:4D:C8,53,53,-9521.026788686577,-27890.016732899487,-9336.04892487712
61776,15107,-14097,18437,-3330,7165,-9453,-1739,7392,-9770,53,1,2656,2020-11-02 15:17:29,2020-11-02 15:17:59,2,D7:F2:3B:06:4D:C8,53,53,930.2767264967915,-27539.769332060787,-2750.5485542019997
61777,-28150,-20,24840,-19972,-10242,18711,-10301,-22049,-12869,53,1,2680,2020-11-02 15:17:29,2020-11-02 15:17:59,2,D7:F2:3B:06:4D:C8,53,53,8188.300375687088,-32310.068403702928,-17275.986707148168
61778,13075,29932,-8179,-25602,-520,-25575,12240,-8222,-31685,53,1,2705,2020-11-02 15:17:29,2020-11-02 15:17:59,2,D7:F2:3B:06:4D:C8,53,53,-492.2513013658772,-19357.515597890382,27546.69796062197
61779,18454,-27926,14597,-16127,20730,27416,7635,-14874,-27336,53,1,2731,2020-11-02 15:17:29,2020-11-02 15:17:59,2,D7:F2:3B:06:4D:C8,53,53,16455.30608606754,22822.86092261222,23277.11154591413
61780,29975,32480,-756,-22278,8448,-9447,-4908,29930,11574,53,1,2757,2020-11-02 15:17:29,2020-11-02 15:17:59,2,D7:F2:3B:06:4D:C8,53,53,-33374.06722648937,-5125.706507693856,28529.306520817376
61781,-4566,-32021,6688,16907,-9993,15381,22486,6382,23093,53,1,2782,2020-11-02 15:17:29,2020-11-02 15:17:59,2,D7:F2:3B:06:4D:C8,53,53,31016.506143089522,-11142.72310237136,-2176.742874013699
61782,-22489,-13594,-8183,-25834,29171,-10740,-19240,-20752,25910,53,1,2808,2020-11-02 15:17:29,2020-11-02 15:17:59,2,D7:F2:3B:06:4D:C8,53,53,-4317.39107248795,-23821.215128114192,-13092.871730346425
61783,8987,-22303,28148,15637,-20499,-13559,31706,-29966,15673,53,1,2833,2020-11-02 15:17:29,2020-11-02 15:17:59,2,D7:F2:3B:06:4D:C8,53,53,-31572.518644801283,19328.579469763157,-286.2937385368109
61784,11556,-26655,-1547,14097,19180,5384,30683,8692,-31684,53,1,2859,2020-11-02 15:17:29,2020-11-02 15:17:59,2,D7:F2:3B:06:4D:C8,53,53,16440.365515438294,23692.245618454566,3849.0582320364933
61785,16929,-13343,-30223,-20210,17128,22274,-3621,-6924,27456,53,1,2885,2020-11-02 15:17:29,2020-11-02 15:17:59,2,D7:F2:3B:06:4D:C8,53,53,-32700.06779188338,-17447.570109485387,-2084.294288439909
61786,17180,-27422,-18955,-19956,-14616,-22535,-7205,-31500,-19644,53,1,2910,2020-11-02 15:17:29,2020-11-02 15:17:59,2,D7:F2:3B:06:4D:C8,53,53,-21349.372045009364,28033.978932959613,-12833.972396345147
61787,28176,-31009,14835,-26104,8431,-32012,-26149,8435,-24901,53,-1,2936,2020-11-02 15:17:29,2020-11-02 15:17:59,2,D7:F2:3B:06:4D:C8,53,53,1447.66488058502,-15508.858484795413,-41628.13780235803
61788,-20461,-11039,22259,30467,-12301,-4115,-21286,-1040,-29250,53,-1,2961,2020-11-02 15:17:29,2020-11-02 15:17:59,2,D7:F2:3B:06:4D:C8,53,53,-19295.805557443633,-15629.502789015378,-20478.41921285644
61789,-27633,-24608,-11274,-2560,-28681,9706,14553,5102,3009,53,-1,2987,2020-11-02 15:17:29,2020-11-02 15:17:59,2,D7:F2:3B:06:4D:C8,53,53,-27633.0,20491.960543784815,-17684.351644093895
61790,20996,21474,-15885,3837,-6,7913,-3882,-2070,-15421,53,-1,3012,2020-11-02 15:17:29,2020-11-02 15:17:59,2,D7:F2:3B:06:4D:C8,53,53,10788.833963510888,-28027.945941645346,-15885.0
61791,522,20708,-11017,24058,12027,-22549,-31533,-27928,4551,53,-1,3038,2020-11-02 15:17:29,2020-11-02 15:17:59,2,D7:F2:3B:06:4D:C8,53,53,12321.842592561776,16438.545270536284,-11332.010479727749
61792,-9466,-8732,14324,-3336,-4099,14825,30670,-795,-25397,53,-1,3064,2020-11-02 15:17:29,2020-11-02 15:17:59,2,D7:F2:3B:06:4D:C8,53,53,-2333.216522044956,-14523.065349112261,12436.503910933778
61793,-15625,8936,18943,-269,20222,-16406,-11579,-5149,7635,53,-1,3115,2020-11-02 15:17:29,2020-11-02 15:17:59,2,D7:F2:3B:06:4D:C8,53,53,-19807.242586660694,-5850.589320868301,-16008.55133082681
61794,-27906,4330,24554,-25617,32251,6129,13244,228,14299,53,-1,3117,2020-11-02 15:17:29,2020-11-02 15:17:59,2,D7:F2:3B:06:4D:C8,53,53,33553.25375636879,-15333.728197271757,-6280.811566423333
61795,-31498,6635,-5388,-14104,-4098,17909,26432,-31516,-14880,53,-1,3140,2020-11-02 15:17:29,2020-11-02 15:17:59,2,D7:F2:3B:06:4D:C8,53,53,-3334.7667639778488,12933.613712549746,29778.830399537415
61796,14579,24813,5884,-12827,13316,2556,-9415,-25628,-21533,53,-1,3166,2020-11-02 15:17:29,2020-11-02 15:17:59,2,D7:F2:3B:06:4D:C8,53,53,25286.308030400654,-14938.832817265553,536.2520391429853
61797,3061,27632,-17914,31207,-7166,-28923,-14027,-3869,-7709,53,-1,3192,2020-11-02 15:17:29,2020-11-02 15:17:59,2,D7:F2:3B:06:4D:C8,53,53,-21729.034282199515,-17589.72988277107,-17670.85206814173
61798,31742,-10766,-11765,-6676,6659,11,7221,-29726,12257,53,1,3217,2020-11-02 15:17:29,2020-11-02 15:17:59,2,D7:F2:3B:06:4D:C8,53,53,-1307.8810071442167,-6953.696202302571,-34811.09164328568
61799,19202,32756,25609,9713,-12286,18188,26423,-8224,20700,53,1,3243,2020-11-02 15:17:29,2020-11-02 15:17:59,2,D7:F2:3B:06:4D:C8,53,53,-44580.33030388997,8405.085839577354,-6280.278897103673
61800,20996,13044,21517,17651,768,-8691,-192,-18465,-31536,53,1,3268,2020-11-02 15:17:29,2020-11-02 15:17:59,2,D7:F2:3B:06:4D:C8,53,53,-19265.71141349426,-19143.75133994841,-18338.712860126812
61801,-22266,14838,16147,27129,-20482,-21747,-30269,-1825,-14913,53,1,3294,2020-11-02 15:17:29,2020-11-02 15:17:59,2,D7:F2:3B:06:4D:C8,53,53,-986.1945730871521,24938.37668822238,18808.811696126362
61802,23557,15604,26382,-12033,-27904,-5619,32717,15073,-2239,53,1,3320,2020-11-02 15:17:29,2020-11-02 15:17:59,2,D7:F2:3B:06:4D:C8,53,53,-16604.241678022336,29724.6049561311,-18307.75812325945
61803,-19187,17909,-23285,-25857,27904,271,8659,13795,17468,53,1,3345,2020-11-02 15:17:29,2020-11-02 15:17:59,2,D7:F2:3B:06:4D:C8,53,53,-14275.835624004556,-27530.834761188693,16410.914952814997
61804,-9969,19954,-8438,-25599,-26377,-7662,-22828,-5403,-13766,53,1,3371,2020-11-02 15:17:29,2020-11-02 15:17:59,2,D7:F2:3B:06:4D:C8,53,53,-14896.740358192383,17781.015207937522,5537.6480454879675
61805,28183,-28173,-17395,-7673,13303,30483,27093,7913,-10182,53,1,3396,2020-11-02 15:17:29,2020-11-02 15:17:59,2,D7:F2:3B:06:4D:C8,53,53,27508.689954786398,-33124.49698611479,-6051.869082218003
61806,-19170,-27665,18192,-9202,-5387,-2798,-9258,18156,29499,53,1,3422,2020-11-02 15:17:29,2020-11-02 15:17:59,2,D7:F2:3B:06:4D:C8,53,53,7054.496959001899,-22576.68397105146,-30071.870619013727
61807,-14044,15082,26119,-16622,6895,-752,13016,23791,25405,53,1,3447,2020-11-02 15:17:29,2020-11-02 15:17:59,2,D7:F2:3B:06:4D:C8,53,53,-27317.045788764473,14308.496807984,-12487.94416509206
61808,-25306,-19483,-11514,-8939,-1304,-4598,9433,-4623,-4544,53,1,3473,2020-11-02 15:17:29,2020-11-02 15:17:59,2,D7:F2:3B:06:4D:C8,53,53,-25306.0,-838.0129061508469,-22615.41994677801
61809,3845,-18980,13297,-3303,-4121,-7928,-17446,-26381,69,53,1,3499,2020-11-02 15:17:29,2020-11-02 15:17:59,2,D7:F2:3B:06:4D:C8,53,53,-10448.69145526844,20666.53033264851,3943.856600121173
61810,10212,11222,30649,-17914,14051,-26858,-6438,-31498,-5700,53,1,3524,2020-11-02 15:17:29,2020-11-02 15:17:59,2,D7:F2:3B:06:4D:C8,53,53,9721.171044385326,31853.516689829485,-7773.785243789468
61811,-12749,-26662,23815,-24331,-8220,-7409,21720,-26374,18625,53,1,3550,2020-11-02 15:17:29,2020-11-02 15:17:59,2,D7:F2:3B:06:4D:C8,53,53,8982.802831007291,-24547.721567363995,27518.57716435244
61812,-6352,30183,-8463,-16637,-19208,-24852,-10281,16634,-4413,53,1,3576,2020-11-02 15:17:29,2020-11-02 15:17:59,2,D7:F2:3B:06:4D:C8,53,53,-24608.91309202715,9186.575553588835,18248.068062873364
61813,-27129,-23076,-16147,24320,-11774,-4388,-17449,16373,-14908,53,1,3601,2020-11-02 15:17:29,2020-11-02 15:17:59,2,D7:F2:3B:06:4D:C8,53,53,6721.66863383762,-34733.90836901945,16660.876513240353
61814,-28422,17884,-31252,19449,9464,-18974,-13611,-13584,6599,53,1,3626,2020-11-02 15:17:29,2020-11-02 15:17:59,2,D7:F2:3B:06:4D:C8,53,53,38165.35362314785,-6930.741306270411,-24488.888332581235
61815,26616,13025,-32014,26611,31221,15853,-23599,23022,-10806,53,1,3652,2020-11-02 15:17:29,2020-11-02 15:17:59,2,D7:F2:3B:06:4D:C8,53,53,-8763.766682055582,42733.52538541684,21.878675155516248
61816,17407,7912,31990,2035,-31499,25845,7117,-15891,24782,53,1,3678,2020-11-02 15:17:29,2020-11-02 15:17:59,2,D7:F2:3B:06:4D:C8,53,53,1828.1111414000552,36759.02780439,5864.757243976207
61817,7428,-17942,-9486,-26384,29432,-30731,-8760,-16915,19153,53,1,3703,2020-11-02 15:17:29,2020-11-02 15:17:59,2,D7:F2:3B:06:4D:C8,53,53,14531.782497631018,15783.52616231022,2604.29324869792
61818,14328,29938,2295,10492,14066,12790,2757,6894,21972,53,1,3729,2020-11-02 15:17:29,2020-11-02 15:17:59,2,D7:F2:3B:06:4D:C8,53,53,-13800.679298835266,-28273.394113827802,-10816.60247836016
61819,-3070,-28945,-27194,-12047,-2826,-13303,-3646,27119,8149,53,1,3754,2020-11-02 15:17:29,2020-11-02 15:17:59,2,D7:F2:3B:06:4D:C8,53,53,36560.27929586487,3367.4004426462507,15451.800965169721
61820,-24056,-30236,-23567,9695,27396,-10498,9151,-9489,-32556,53,-1,3780,2020-11-02 15:17:29,2020-11-02 15:17:59,2,D7:F2:3B:06:4D:C8,53,53,2074.6327571320744,19332.086445039364,-40869.018260836165
61821,32499,490,-253,-23072,7436,-18949,-6983,27886,469,53,-1,3806,2020-11-02 15:17:29,2020-11-02 15:17:59,2,D7:F2:3B:06:4D:C8,53,53,-20827.26639761561,51.855970718990676,24954.185928638355
61822,2800,-8976,25862,3047,-19446,18182,-26814,-28948,-14380,53,-1,3831,2020-11-02 15:17:29,2020-11-02 15:17:59,2,D7:F2:3B:06:4D:C8,53,53,-3336.137672080058,25644.264607582358,-9407.098286359465
61823,10494,24307,16394,21484,14087,29198,25665,-1302,9682,53,-1,3857,2020-11-02 15:17:29,2020-11-02 15:17:59,2,D7:F2:3B:06:4D:C8,53,53,8599.173158978392,6949.552651514885,-29111.431773887867
61824,-6396,-32267,12561,8691,-23285,32269,-15295,-2328,-11314,53,-1,3908,2020-11-02 15:17:29,2020-11-02 15:17:59,2,D7:F2:3B:06:4D:C8,53,53,17454.35544193566,18808.287841716952,24113.079657515613
61825,28934,-23819,8977,19195,14090,25869,-11453,-12570,10443,53,-1,3910,2020-11-02 15:17:29,2020-11-02 15:17:59,2,D7:F2:3B:06:4D:C8,53,53,-14262.72721193551,-32051.032390286975,15950.347369091667
61826,-12024,-26637,21261,-3839,-2556,-16626,12988,-26395,-23867,53,-1,3934,2020-11-02 15:17:29,2020-11-02 15:17:59,2,D7:F2:3B:06:4D:C8,53,53,17462.97541282843,-7601.013614621743,30714.907581845087
61827,25354,-28175,-6394,24068,19715,-7409,-3390,-24859,1215,53,-1,3959,2020-11-02 15:17:29,2020-11-02 15:17:59,2,D7:F2:3B:06:4D:C8,53,53,-21411.475518374908,-28175.0,-15008.573154235277
61828,-3058,14321,-18934,-24060,-25341,-2032,30409,31974,22341,53,-1,3985,2020-11-02 15:17:29,2020-11-02 15:17:59,2,D7:F2:3B:06:4D:C8,53,53,-15287.897045023292,16415.653925126724,-8351.363430676434
61829,-17134,-2833,1034,13319,513,-22510,-6450,13800,23360,53,-1,4010,2020-11-02 15:17:29,2020-11-02 15:17:59,2,D7:F2:3B:06:4D:C8,53,53,-6909.518653571555,-6989.352268336171,14355.365124059044
61830,10776,-18195,11000,2052,-20739,8213,13266,491,-26563,53,-1,4036,2020-11-02 15:17:29,2020-11-02 15:17:59,2,D7:F2:3B:06:4D:C8,53,53,-5204.270326521898,9743.971439759498,-21122.281883111846
61831,-20173,-30220,27,-31990,-16386,23306,17108,16365,10556,53,-1,4061,2020-11-02 15:17:29,2020-11-02 15:17:59,2,D7:F2:3B:06:4D:C8,53,53,-19531.657691116852,-7188.414374993132,29783.218506575613
61832,-31453,28910,-8188,-27633,31230,-14589,-810,-11795,-22213,53,-1,4087,2020-11-02 15:17:29,2020-11-02 15:17:59,2,D7:F2:3B:06:4D:C8,53,53,-16249.116332186382,-31518.496892565054,-25192.721668300164
61833,-12006,24041,-19455,-8946,-14601,24582,-27944,-18706,-20932,53,-1,4113,2020-11-02 15:17:29,2020-11-02 15:17:59,2,D7:F2:3B:06:4D:C8,53,53,-7588.2074800445735,-81.00481372622926,-32295.871059006113
61834,12074,23781,14846,25108,1266,-6397,-5159,-12561,-14530,53,-1,4138,2020-11-02 15:17:29,2020-11-02 15:17:59,2,D7:F2:3B:06:4D:C8,53,53,29332.700490858668,6947.425341916961,4800.741196114405
61835,-22497,-4127,-18712,-32493,1259,-5892,-24870,-1041,-32446,53,-1,4164,2020-11-02 15:17:29,2020-11-02 15:17:59,2,D7:F2:3B:06:4D:C8,53,53,-22547.933161709014,-16790.693933915696,9107.655535464088
61836,-14345,-8476,-26396,11786,24813,11004,-14631,-23569,16570,53,-1,4189,2020-11-02 15:17:29,2020-11-02 15:17:59,2,D7:F2:3B:06:4D:C8,53,53,8828.632501930786,29909.39827584601,-1361.4550755244027
61837,25124,8674,-18452,-4864,-22543,-5897,-3625,-27665,-8515,53,-1,4215,2020-11-02 15:17:29,2020-11-02 15:17:59,2,D7:F2:3B:06:4D:C8,53,53,-9119.064209963835,30256.076577386077,-6952.8737999410205
61838,18712,13280,-25104,26620,22779,25319,31957,11245,-10048,53,-1,4241,2020-11-02 15:17:29,2020-11-02 15:17:59,2,D7:F2:3B:06:4D:C8,53,53,-20651.521605155383,-5419.456688446456,-26473.615253566208
61839,15878,-16158,-4622,-12291,-22018,26599,-14638,-16663,-23613,53,-1,4266,2020-11-02 15:17:29,2020-11-02 15:17:59,2,D7:F2:3B:06:4D:C8,53,53,12286.597821063919,-18083.02780091365,7523.187591361229
61840,17415,-20255,-26395,-23557,28926,26087,28878,-10266,6856,53,-1,4292,2020-11-02 15:17:29,2020-11-02 15:17:59,2,D7:F2:3B:06:4D:C8,53,53,25790.37489842205,-17313.514175958553,21103.1292579495
61841,26881,25827,32488,-27404,-27910,26347,28614,6117,24271,53,1,4317,2020-11-02 15:17:29,2020-11-02 15:17:59,2,D7:F2:3B:06:4D:C8,53,53,18768.726843290315,9942.533560794256,-44653.9265135154
61842,-2047,-21530,-22544,-5649,16120,-31504,15549,21989,-6442,53,1,4343,2020-11-02 15:17:29,2020-11-02 15:17:59,2,D7:F2:3B:06:4D:C8,53,53,25106.30625140562,15422.1335805159,10382.39987841708
61843,13825,15338,-26121,-18452,20218,17906,29762,30950,1756,53,1,4368,2020-11-02 15:17:29,2020-11-02 15:17:59,2,D7:F2:3B:06:4D:C8,53,53,25130.656989287032,-20697.25037784087,6983.223903310319
61844,-24831,30214,17243,26875,6650,18675,-13252,-26393,-13601,53,1,4394,2020-11-02 15:17:29,2020-11-02 15:17:59,2,D7:F2:3B:06:4D:C8,53,53,6981.981192941108,7793.264868900165,41440.34709440286
61845,26601,27637,11987,5113,-23807,-29694,20283,18408,21985,53,1,4420,2020-11-02 15:17:29,2020-11-02 15:17:59,2,D7:F2:3B:06:4D:C8,53,53,31284.105906007797,24886.264261760352,4133.244216776582
61846,5626,8424,16116,-1310,16386,5638,-28103,-4121,-25633,53,1,4445,2020-11-02 15:17:29,2020-11-02 15:17:59,2,D7:F2:3B:06:4D:C8,53,53,9720.21719622881,15829.173447491736,-4158.816373363983
61847,-7,-27155,-5619,22247,-32505,-17657,18998,-26906,-28962,53,1,4471,2020-11-02 15:17:29,2020-11-02 15:17:59,2,D7:F2:3B:06:4D:C8,53,53,-26166.551386117324,9111.042622352772,-1125.9333423220414
61848,-29442,-11537,-27898,23277,21262,-4856,14642,17636,-25121,53,1,4496,2020-11-02 15:17:29,2020-11-02 15:17:59,2,D7:F2:3B:06:4D:C8,53,53,-41986.935028891035,2458.7580786697363,3046.95464197605
61849,25087,17136,20233,1005,-13046,25097,-12757,-3871,19427,53,1,4522,2020-11-02 15:17:29,2020-11-02 15:17:59,2,D7:F2:3B:06:4D:C8,53,53,-26425.90175281197,-7613.693238513693,-24001.61964994321
61850,2306,2546,24341,-23312,1287,-26611,-477,-15137,-31000,53,1,4547,2020-11-02 15:17:29,2020-11-02 15:17:59,2,D7:F2:3B:06:4D:C8,53,53,-8991.987594229242,-21422.084059787325,-8032.5902821339705
61851,-8696,-15628,-30440,-30727,9729,-21233,-10484,-12579,10494,53,1,4573,2020-11-02 15:17:29,2020-11-02 15:17:59,2,D7:F2:3B:06:4D:C8,53,53,32233.712115046863,-12834.458896218941,-6535.508253039533
61852,-17912,1011,-32495,26112,-7429,-4848,27874,-1314,22824,53,1,4600,2020-11-02 15:17:29,2020-11-02 15:17:59,2,D7:F2:3B:06:4D:C8,53,53,21296.467619125462,22472.668409168364,20475.022137206757
61853,19483,-9483,4374,23813,-2567,28432,-5156,-23327,23342,53,1,4624,2020-11-02 15:17:29,2020-11-02 15:17:59,2,D7:F2:3B:06:4D:C8,53,53,-1016.3731277170264,13331.12724219187,-17603.820213741805
61854,17417,16112,-21741,19208,25336,-7152,25051,4836,6961,53,1,4650,2020-11-02 15:17:29,2020-11-02 15:17:59,2,D7:F2:3B:06:4D:C8,53,53,32117.665224295066,75.76187576683515,2017.2641567944465
61855,4119,-29204,22544,-1266,-30218,-10224,-28710,487,3892,53,-1,4675,2020-11-02 15:17:29,2020-11-02 15:17:59,2,D7:F2:3B:06:4D:C8,53,53,4119.0,-29902.05931227385,-21609.544208179323
61856,13593,-13592,23051,528,19959,14613,26587,4586,-7883,53,-1,4701,2020-11-02 15:17:29,2020-11-02 15:17:59,2,D7:F2:3B:06:4D:C8,53,53,29499.737227176018,2787.708772730807,-4780.6795883017585
61857,-14042,-27930,19205,13077,27891,19731,-32548,17901,16696,53,-1,4727,2020-11-02 15:17:29,2020-11-02 15:17:59,2,D7:F2:3B:06:4D:C8,53,53,19417.705894623672,20863.68264166954,23103.11956030168
61858,4650,-4382,-13575,-5355,25834,21006,16093,-18449,-1221,53,-1,4752,2020-11-02 15:17:29,2020-11-02 15:17:59,2,D7:F2:3B:06:4D:C8,53,53,-4838.380810277361,14167.268006908207,-991.7849339322265
61859,9753,12001,15090,7448,28129,-27897,12509,7665,-23999,53,-1,4778,2020-11-02 15:17:29,2020-11-02 15:17:59,2,D7:F2:3B:06:4D:C8,53,53,8171.344407276954,19171.58237113567,-5703.7417512036445
61860,-25584,14563,7154,-29933,7136,22790,-14116,6898,-2630,53,-1,4803,2020-11-02 15:17:29,2020-11-02 15:17:59,2,D7:F2:3B:06:4D:C8,53,53,-27471.09124133319,444.76741087489154,12764.915548509143
61861,-1775,32739,20974,12560,-24603,11517,12764,27122,-22336,53,-1,4854,2020-11-02 15:17:29,2020-11-02 15:17:59,2,D7:F2:3B:06:4D:C8,53,53,10002.048246366825,34452.10419091358,-15096.786734129375
61862,7184,-23839,-8726,18950,2802,-19214,-28709,12017,19908,53,-1,4856,2020-11-02 15:17:29,2020-11-02 15:17:59,2,D7:F2:3B:06:4D:C8,53,53,25539.66916241102,-5262.169882486498,4010.700712150401
61863,19221,30685,-4887,19455,14842,23530,25818,-19474,-32058,53,-1,4880,2020-11-02 15:17:29,2020-11-02 15:17:59,2,D7:F2:3B:06:4D:C8,53,53,18183.798857073867,-22275.306667370227,22540.164307300212
61864,25354,4824,-16664,3318,-27904,24802,23768,-18454,-11833,53,-1,4906,2020-11-02 15:17:29,2020-11-02 15:17:59,2,D7:F2:3B:06:4D:C8,53,53,-3463.9828687715635,30313.201475667393,-3591.076019865516
61865,2804,12767,-26374,-26895,-13830,-5399,-17709,14567,-11062,53,-1,4931,2020-11-02 15:17:29,2020-11-02 15:17:59,2,D7:F2:3B:06:4D:C8,53,53,-2455.2855200910835,-26457.562029324217,-12665.526656215
61866,-6678,23266,-3854,-25874,-266,-8457,-17204,19686,-4913,53,-1,4957,2020-11-02 15:17:29,2020-11-02 15:17:59,2,D7:F2:3B:06:4D:C8,53,53,6686.264501930813,-23577.04193696869,415.5917619966431
61867,-13566,741,-22526,-21784,-13575,-4873,9158,-538,-22317,53,-1,4982,2020-11-02 15:17:29,2020-11-02 15:17:59,2,D7:F2:3B:06:4D:C8,53,53,16161.663862765367,-17247.206758121374,-11547.319742243064
61868,-31990,32488,-5403,31723,-20221,-22027,29377,-7706,-4395,53,1,5008,2020-11-02 15:17:29,2020-11-02 15:17:59,2,D7:F2:3B:06:4D:C8,53,53,10220.183321625238,4034.5492253243565,-44579.06367815287
61869,18170,8680,16633,-24350,-6904,20211,-11335,6885,-10791,53,1,5034,2020-11-02 15:17:29,2020-11-02 15:17:59,2,D7:F2:3B:06:4D:C8,53,53,21793.16126327253,643.524988114365,-14380.263792527247
61870,2295,4075,-28153,-24351,5640,22007,21309,12516,-23842,53,1,5059,2020-11-02 15:17:29,2020-11-02 15:17:59,2,D7:F2:3B:06:4D:C8,53,53,-16236.621224012948,18892.83839123827,-13924.684834870968
61871,3320,7408,-21496,-18970,30723,-22274,3894,-21789,-5663,53,1,5085,2020-11-02 15:17:29,2020-11-02 15:17:59,2,D7:F2:3B:06:4D:C8,53,53,-253.25939545857318,7408.0,21749.39713368193
61872,2557,-15891,28673,28646,7934,-6650,-205,13539,8160,53,1,5110,2020-11-02 15:17:29,2020-11-02 15:17:59,2,D7:F2:3B:06:4D:C8,53,53,26883.802279979725,12457.728769267906,-14257.251764709483
61873,-6911,-16408,-20219,-27678,20222,-26612,-7372,8930,-13094,53,1,5136,2020-11-02 15:17:29,2020-11-02 15:17:59,2,D7:F2:3B:06:4D:C8,53,53,-22987.162458060284,11959.274867185926,7372.818509758602
61874,23301,-16920,2830,-286,11263,-2288,-31942,-17952,31440,53,1,5162,2020-11-02 15:17:29,2020-11-02 15:17:59,2,D7:F2:3B:06:4D:C8,53,53,-13130.813296550848,17902.053925534507,18556.13398362865
61875,-21496,-10255,-27622,-5399,-31739,-28145,1211,29407,21183,53,1,5187,2020-11-02 15:17:29,2020-11-02 15:17:59,2,D7:F2:3B:06:4D:C8,53,53,-18738.567260767413,13029.782354073708,-28448.35309502406
61876,-18686,-6413,-20194,-19212,18179,-20462,14799,-2849,13877,53,1,5213,2020-11-02 15:17:29,2020-11-02 15:17:59,2,D7:F2:3B:06:4D:C8,53,53,-11347.407053344861,-25743.15824248967,2572.3448189998962
61877,28170,-25103,-14056,9471,-3328,29720,15575,3043,22060,53,1,5238,2020-11-02 15:17:29,2020-11-02 15:17:59,2,D7:F2:3B:06:4D:C8,53,53,-31165.97036305835,-19019.817569461615,-16976.733371098453
61878,-17136,21479,-15338,27138,-13821,-28393,-19238,-19994,-3032,53,1,5264,2020-11-02 15:17:29,2020-11-02 15:17:59,2,D7:F2:3B:06:4D:C8,53,53,15249.425172576064,-23428.54751810321,-14449.995643528175
61879,-31210,-32537,-7396,-11510,17152,-10218,-8740,18410,-8409,53,1,5290,2020-11-02 15:17:29,2020-11-02 15:17:59,2,D7:F2:3B:06:4D:C8,53,53,-1552.8518594294956,-41637.16405042744,-18744.50602017721
61880,12831,-18974,22808,4885,11769,-32493,-5922,32493,-16344,53,1,5315,2020-11-02 15:17:29,2020-11-02 15:17:59,2,D7:F2:3B:06:4D:C8,53,53,17903.937041347406,17636.634397335736,20328.55790640798
61881,-220,-19744,9227,4124,-5905,-1524,-12064,-24337,-15317,53,1,5341,2020-11-02 15:17:29,2020-11-02 15:17:59,2,D7:F2:3B:06:4D:C8,53,53,10595.514508848113,-16753.74124471512,-9058.625259823959
61882,31262,-5919,7175,22301,-24597,-15867,-29982,14064,-7377,53,1,5366,2020-11-02 15:17:29,2020-11-02 15:17:59,2,D7:F2:3B:06:4D:C8,53,53,-16020.10029690691,9108.181426669096,-26911.43339876052
61883,-22255,-16417,3578,-10723,17135,13569,-29980,-15377,-15309,53,1,5392,2020-11-02 15:17:29,2020-11-02 15:17:59,2,D7:F2:3B:06:4D:C8,53,53,-16781.385533039873,-17232.75752801737,-14107.521595660972
61884,-29937,-5409,7940,-19685,-7697,-26876,-21786,25583,-10698,53,1,5417,2020-11-02 15:17:29,2020-11-02 15:17:59,2,D7:F2:3B:06:4D:C8,53,53,18923.60407414959,-17487.064881392656,-18017.342220172002
61885,-6892,12767,-27653,7455,16108,-28931,28136,9198,-6598,53,1,5443,2020-11-02 15:17:29,2020-11-02 15:17:59,2,D7:F2:3B:06:4D:C8,53,53,-22819.267690613488,-18639.8905662975,10345.040538372803
61886,17699,-1313,-31239,-24039,-19986,8438,-16406,-3349,25661,53,1,5468,2020-11-02 15:17:29,2020-11-02 15:17:59,2,D7:F2:3B:06:4D:C8,53,53,-32652.706265305085,4815.30277297407,14193.918548318301
61887,19735,25825,30712,-13806,-8716,-14359,-6163,28136,32573,53,1,5494,2020-11-02 15:17:29,2020-11-02 15:17:59,2,D7:F2:3B:06:4D:C8,53,53,35605.586281081385,19930.407455229823,18293.41078773963
61888,-30191,-2590,-5890,7438,16117,6629,30452,-12316,-9928,53,-1,5520,2020-11-02 15:17:29,2020-11-02 15:17:59,2,D7:F2:3B:06:4D:C8,53,53,1018.0537558213214,-13398.817025187298,-27790.86090562524
61889,-31219,-16152,22775,20233,-19727,29414,17409,-4895,21293,53,-1,5545,2020-11-02 15:17:29,2020-11-02 15:17:59,2,D7:F2:3B:06:4D:C8,53,53,29103.57704868374,-17054.11678086908,-24826.44948025812
61890,17414,15596,-6407,-16898,-26637,18663,5909,-10015,-30695,53,-1,5571,2020-11-02 15:17:29,2020-11-02 15:17:59,2,D7:F2:3B:06:4D:C8,53,53,-12887.57735229711,5145.728518178997,19873.703454710147
61891,-8430,-19470,-12045,7162,-4113,31980,16672,-20253,-31987,53,-1,5596,2020-11-02 15:17:29,2020-11-02 15:17:59,2,D7:F2:3B:06:4D:C8,53,53,-15396.785157623917,15125.440027415028,11374.880033962694
61892,-10233,-6672,27389,27373,18169,2277,3618,13799,20233,53,-1,5623,2020-11-02 15:17:29,2020-11-02 15:17:59,2,D7:F2:3B:06:4D:C8,53,53,-27929.774506947586,10720.737823747606,-2093.0051374824834
61893,-3584,18674,-7427,24808,-16397,-4629,-11743,-29718,-16379,53,-1,5648,2020-11-02 15:17:29,2020-11-02 15:17:59,2,D7:F2:3B:06:4D:C8,53,53,-7241.3468735352,19079.659482064722,-503.1406419677719
61894,20736,-7439,-1801,-13602,27636,-20750,-2273,-13076,29442,53,-1,5673,2020-11-02 15:17:29,2020-11-02 15:17:59,2,D7:F2:3B:06:4D:C8,53,53,-9116.683446052763,4594.229078195322,19604.671895278738
61895,-14336,-15130,-9984,-6444,-16905,6132,-3045,14574,-16641,53,-1,5699,2020-11-02 15:17:29,2020-11-02 15:17:59,2,D7:F2:3B:06:4D:C8,53,53,-12462.394536945018,9126.530305942186,17190.49792705964
61896,8440,-28959,2574,-32049,6396,14330,-3563,-3858,1790,53,-1,5724,2020-11-02 15:17:29,2020-11-02 15:17:59,2,D7:F2:3B:06:4D:C8,53,53,8440.0,-28959.0,2574.0
61897,-15381,21475,-6891,-14639,-15616,-5627,26126,-8466,15358,53,-1,5750,2020-11-02 15:17:29,2020-11-02 15:17:59,2,D7:F2:3B:06:4D:C8,53,53,16850.36005322829,9444.10330818661,-19290.17744295959
61898,-12552,-7461,30998,23509,4088,-16618,13061,-24083,29953,53,-1,5776,2020-11-02 15:17:29,2020-11-02 15:17:59,2,D7:F2:3B:06:4D:C8,53,53,-25949.65646530794,-697.2187187666282,22365.697941059276
61899,-1269,-24100,6934,5595,23280,-31458,-25095,-14869,-30200,53,-1,5801,2020-11-02 15:17:29,2020-11-02 15:17:59,2,D7:F2:3B:06:4D:C8,53,53,-4050.3594043559315,23341.69003030262,8322.308106818495
61900,-9196,-16406,-14049,-1052,19197,21528,14575,-16660,-24561,53,-1,5827,2020-11-02 15:17:29,2020-11-02 15:17:59,2,D7:F2:3B:06:4D:C8,53,53,-22727.977647576008,-3673.919971413843,-4586.8286533215905
61901,26892,28655,19234,-27661,-7685,-24815,-28438,4847,14354,53,-1,5852,2020-11-02 15:17:29,2020-11-02 15:17:59,2,D7:F2:3B:06:4D:C8,53,53,19076.30547865475,38304.89689115368,9113.99409935797
61902,-4850,7148,-13807,-5889,-29448,-27121,-281,-20496,16661,53,-1,5878,2020-11-02 15:17:29,2020-11-02 15:17:59,2,D7:F2:3B:06:4D:C8,53,53,-9308.610684944199,3163.0559877936057,12984.394361471994
61903,31253,30700,-25332,-6396,5879,-26866,-7962,12018,-4585,53,-1,5903,2020-11-02 15:17:29,2020-11-02 15:17:59,2,D7:F2:3B:06:4D:C8,53,53,-48941.35981616372,-4728.862197001745,-11972.109031685395
61904,-16123,13298,-1534,-15867,24820,-3832,21990,243,27162,53,-1,5929,2020-11-02 15:17:29,2020-11-02 15:17:59,2,D7:F2:3B:06:4D:C8,53,53,739.282786795535,20665.593228565278,3395.262356965198
61905,12303,-3603,11065,11038,-12557,12552,-15897,29939,28189,53,-1,5955,2020-11-02 15:17:29,2020-11-02 15:17:59,2,D7:F2:3B:06:4D:C8,53,53,5635.383038941889,-11161.863898218427,11420.809748965008
61906,269,7892,6932,-15057,-5386,-9208,7149,-19469,-12257,53,-1,5980,2020-11-02 15:17:29,2020-11-02 15:17:59,2,D7:F2:3B:06:4D:C8,53,53,-705.9240303398128,2227.8582534642105,-10244.362735956794
61907,2333,20949,-25332,31537,13057,-24570,-15117,20724,10273,53,-1,6006,2020-11-02 15:17:29,2020-11-02 15:17:59,2,D7:F2:3B:06:4D:C8,53,53,24821.98945433475,-20109.4803152582,8092.672919322602
61908,10785,-24611,11272,-5842,1786,24573,-18182,-10765,-18399,53,-1,6031,2020-11-02 15:17:29,2020-11-02 15:17:59,2,D7:F2:3B:06:4D:C8,53,53,-8508.915091827748,-27430.701065185855,4922.451932977869
61909,1821,14309,24063,-22233,19460,-6926,-7167,-31757,15136,53,-1,6057,2020-11-02 15:17:29,2020-11-02 15:17:59,2,D7:F2:3B:06:4D:C8,53,53,-26040.0142875027,-10336.217022959785,-1473.6907955646002
61910,25111,6640,-10237,-481,-27138,13295,24840,15604,-22499,53,-1,6082,2020-11-02 15:17:29,2020-11-02 15:17:59,2,D7:F2:3B:06:4D:C8,53,53,7139.59432573694,13227.494592899857,-23526.743711332216
61911,-30461,31734,-19205,29720,3828,29938,4878,17652,-25318,53,-1,6108,2020-11-02 15:17:29,2020-11-02 15:17:59,2,D7:F2:3B:06:4D:C8,53,53,-41956.241622981535,28.438056184548714,23311.462462723168
61912,-25070,28158,17929,18451,-14863,-12813,-14318,-15373,27159,53,-1,6134,2020-11-02 15:17:29,2020-11-02 15:17:59,2,D7:F2:3B:06:4D:C8,53,53,-23001.89882034665,-33646.50807280047,-9036.152398311366
61913,25361,-26881,10498,-13295,17141,16877,22295,-26892,1556,53,-1,6159,2020-11-02 15:17:29,2020-11-02 15:17:59,2,D7:F2:3B:06:4D:C8,53,53,-27313.349832134085,25130.510456504086,-9920.425955723851
61914,11,-24578,-21508,5389,-27148,19180,9499,-30474,-12272,53,-1,6185,2020-11-02 15:17:29,2020-11-02 15:17:59,2,D7:F2:3B:06:4D:C8,53,53,17270.84877840481,26157.907569350744,-9173.544738364579
61915,24327,-29699,12533,26625,25839,10732,24093,-19976,-30707,53,-1,6211,2020-11-02 15:17:29,2020-11-02 15:17:59,2,D7:F2:3B:06:4D:C8,53,53,-35113.97158112798,-16830.132474148333,-10708.186573942112
61916,-29696,-13063,28152,-5645,20206,-22545,19997,-23302,8458,53,-1,6236,2020-11-02 15:17:29,2020-11-02 15:17:59,2,D7:F2:3B:06:4D:C8,53,53,-9201.53770869387,2251.766289899071,41896.19005794153
61917,-20476,3319,-32007,11755,6124,20463,26139,3324,-30714,53,-1,6262,2020-11-02 15:17:29,2020-11-02 15:17:59,2,D7:F2:3B:06:4D:C8,53,53,19500.065914034578,-27121.465167818587,18409.34389105461
61918,-17934,23793,-11004,-13090,3306,2805,-24809,-17924,-21502,53,-1,6287,2020-11-02 15:17:29,2020-11-02 15:17:59,2,D7:F2:3B:06:4D:C8,53,53,-15075.801595514278,5148.312525270153,-27477.960357254233
61919,6898,-18448,528,-20772,27885,-30210,-20974,-31493,-24833,53,-1,6313,2020-11-02 15:17:29,2020-11-02 15:17:59,2,D7:F2:3B:06:4D:C8,53,53,-16461.299170113463,-8995.636866798588,-6024.453418586263
61920,-19219,7920,18191,-1057,-26894,23049,-24307,-21255,-16898,53,-1,6338,2020-11-02 15:17:29,2020-11-02 15:17:59,2,D7:F2:3B:06:4D:C8,53,53,-25489.7672685894,-10174.120638420049,3125.360111734928
61921,-29698,29672,-24825,-12063,1004,21527,19976,6134,6912,53,-1,6364,2020-11-02 15:17:29,2020-11-02 15:17:59,2,D7:F2:3B:06:4D:C8,53,53,26178.153477590335,-7113.788947515692,40531.19416343329
61922,18698,31960,13309,19677,14318,-6371,6401,17394,15364,53,1,6389,2020-11-02 15:17:29,2020-11-02 15:17:59,2,D7:F2:3B:06:4D:C8,53,53,183.1303739423256,-14983.760031131384,-36381.85926523835
61923,2331,32211,18436,-11049,1261,-21731,-7690,14064,-7414,53,1,6415,2020-11-02 15:17:29,2020-11-02 15:17:59,2,D7:F2:3B:06:4D:C8,53,53,18752.039641429517,31718.797421140513,5014.686175914327
61924,-23261,-18459,-19425,26845,26862,4885,-8980,15856,11537,53,1,6441,2020-11-02 15:17:29,2020-11-02 15:17:59,2,D7:F2:3B:06:4D:C8,53,53,17997.377995742205,23919.548987483955,19054.894082983763
61925,-6630,-28683,1069,753,20454,-22519,15590,17648,5142,53,1,6466,2020-11-02 15:17:29,2020-11-02 15:17:59,2,D7:F2:3B:06:4D:C8,53,53,2820.26718224626,10964.300763405032,27196.40328775738
61926,-2805,4340,8484,3337,-24864,23815,29410,-5905,6684,53,1,6492,2020-11-02 15:17:29,2020-11-02 15:17:59,2,D7:F2:3B:06:4D:C8,53,53,-7902.609675157067,5028.2789019017655,-3308.633042028612
61927,-27636,31213,-28913,-3304,-13085,30472,32225,12272,17954,53,1,6517,2020-11-02 15:17:29,2020-11-02 15:17:59,2,D7:F2:3B:06:4D:C8,53,53,25604.316418113427,15412.387943924157,40998.03303363599
61928,25614,-16154,-10496,5153,-17179,-15098,-24094,28656,-21209,53,1,6543,2020-11-02 15:17:29,2020-11-02 15:17:59,2,D7:F2:3B:06:4D:C8,53,53,-9674.859430053068,-20068.50996462495,23040.111345400706
61929,14098,12008,-1013,-17889,26603,-24831,-15644,4848,-6101,53,1,6569,2020-11-02 15:17:29,2020-11-02 15:17:59,2,D7:F2:3B:06:4D:C8,53,53,2637.1803262835283,-15060.680186866011,-10497.286755900532
61930,26656,6372,-30698,-32218,12270,22012,6631,-19986,-29392,53,1,6594,2020-11-02 15:17:29,2020-11-02 15:17:59,2,D7:F2:3B:06:4D:C8,53,53,-35108.13446777356,-15482.35901619832,14873.714313723809
