id,accelerationx,accelerationy,accelerationz,angularvelocityx,angularvelocityy,angularvelocityz,pitch,roll,yaw,mdlcircle_id,hallsensor,timestamp,starttime,endtime,train_mode,blemac,training_id,training_handle_id,accelerationWorldx,accelerationWorldy,accelerationWorldz
66027,27367,-6730,15115,25113,-27353,22493,-21536,10505,15365,57,1,7797,2020-11-02 15:20:58,2020-11-02 15:21:28,4,D7:F2:3B:06:4D:C8,57,57,-9243.864562924186,-937.7847641276367,-30600.332378562238
66028,-4633,27066,23813,-16872,26403,-10759,17634,-24057,-13058,57,1,7822,2020-11-02 15:20:58,2020-11-02 15:21:28,4,D7:F2:3B:06:4D:C8,57,57,-22458.963007504288,23390.18235434257,16419.085359975303
66029,6140,21695,-19965,15381,7967,20237,-16413,-3319,-11015,57,1,7848,2020-11-02 15:20:58,2020-11-02 15:21:28,4,D7:F2:3B:06:4D:C8,57,57,-19555.768927886522,-19853.360776991623,-11418.836083319467
66030,-32763,26052,-17157,-19178,5398,3348,23269,-21235,-29962,57,1,7899,2020-11-02 15:20:58,2020-11-02 15:21:28,4,D7:F2:3B:06:4D:C8,57,57,38321.31366072009,23739.695414497484,3793.059839179299
66031,15354,-16698,21227,-6122,14352,21269,-23321,31249,-9228,57,1,7901,2020-11-02 15:20:58,2020-11-02 15:21:28,4,D7:F2:3B:06:4D:C8,57,57,11755.636946577826,-27840.215786294924,7202.876783118607
66032,-31242,24517,24786,30991,-16886,32281,16874,32277,-23052,57,1,7924,2020-11-02 15:20:58,2020-11-02 15:21:28,4,D7:F2:3B:06:4D:C8,57,57,38078.95114851353,6000.628843958853,-26560.827959726124
66033,16893,-30251,-27179,-9988,-14072,5146,23532,27929,-23562,57,1,7950,2020-11-02 15:20:58,2020-11-02 15:21:28,4,D7:F2:3B:06:4D:C8,57,57,27933.130924243174,-31124.148833766703,-13792.100896622978
66034,-12030,-1064,2784,-5134,-28155,-23787,5870,-12260,14842,57,1,7976,2020-11-02 15:20:58,2020-11-02 15:21:28,4,D7:F2:3B:06:4D:C8,57,57,799.9747768634863,5262.858387182198,-11192.230070582369
66035,18446,489,5109,-7439,20733,3349,9718,-15074,-10748,57,1,8001,2020-11-02 15:20:58,2020-11-02 15:21:28,4,D7:F2:3B:06:4D:C8,57,57,-9101.04872456958,6706.247520843415,15452.930929185957
66036,18684,-5909,-12,29430,10232,28439,23300,24350,5141,57,1,8027,2020-11-02 15:20:58,2020-11-02 15:21:28,4,D7:F2:3B:06:4D:C8,57,57,-15602.993411583013,3853.298525739388,11211.911882887402
66037,26623,-27677,-20755,6384,4604,-21477,10510,-11749,14113,57,1,8052,2020-11-02 15:20:58,2020-11-02 15:21:28,4,D7:F2:3B:06:4D:C8,57,57,-10728.642964149945,17409.105234509956,38566.69234043223
66038,-21249,17897,-31762,-23831,16387,-17388,17170,-19175,-3288,57,-1,8078,2020-11-02 15:20:58,2020-11-02 15:21:28,4,D7:F2:3B:06:4D:C8,57,57,16874.5307466284,21433.324937153095,-32194.876117474098
66039,6660,-4889,25845,7905,11524,-22769,25362,19480,-8403,57,-1,8104,2020-11-02 15:20:58,2020-11-02 15:21:28,4,D7:F2:3B:06:4D:C8,57,57,14579.494426592028,19409.50928136389,12121.519612722688
66040,-14845,8672,-12023,-30753,6398,7440,25872,-9450,24369,57,-1,8129,2020-11-02 15:20:58,2020-11-02 15:21:28,4,D7:F2:3B:06:4D:C8,57,57,-5220.594078276637,16547.9703473521,-11791.531404063611
66041,-23028,-30728,29708,-11547,-2834,-10735,27917,-7661,4659,57,-1,8155,2020-11-02 15:20:58,2020-11-02 15:21:28,4,D7:F2:3B:06:4D:C8,57,57,-15670.454259190246,42568.249712505,-17304.47952769584
66042,8226,18688,22313,10213,6138,-13300,19722,-5616,-25548,57,-1,8180,2020-11-02 15:20:58,2020-11-02 15:21:28,4,D7:F2:3B:06:4D:C8,57,57,11007.743060412453,20376.704790421878,-19452.451866022937
66043,-23522,20486,-27598,-5908,1534,5374,12807,-10993,1077,57,-1,8206,2020-11-02 15:20:58,2020-11-02 15:21:28,4,D7:F2:3B:06:4D:C8,57,57,-38047.943628462155,16569.606292030407,-3523.1260227917483
66044,290,6903,-25550,-17420,-31743,3315,-23805,4880,13363,57,-1,8231,2020-11-02 15:20:58,2020-11-02 15:21:28,4,D7:F2:3B:06:4D:C8,57,57,-13600.29117072441,-5905.348446396081,21924.80213817591
66045,5144,5346,-17887,-29701,-21257,-786,32512,21007,-4817,57,-1,8257,2020-11-02 15:20:58,2020-11-02 15:21:28,4,D7:F2:3B:06:4D:C8,57,57,-6531.984248093509,-15635.820457413149,9372.274078696093
66046,32524,-26664,13352,3319,-8970,-5908,2557,-29683,17452,57,-1,8283,2020-11-02 15:20:58,2020-11-02 15:21:28,4,D7:F2:3B:06:4D:C8,57,57,-18046.102786762953,29505.947035986894,-27400.595608838918
66047,6175,-16422,5416,28396,31224,-22301,-5128,-11510,-11992,57,-1,8308,2020-11-02 15:20:58,2020-11-02 15:21:28,4,D7:F2:3B:06:4D:C8,57,57,-11813.685865453877,13648.657979339063,3361.060343909261
66048,14333,-24591,4149,15089,-26877,-17444,-20237,-26616,20771,57,-1,8334,2020-11-02 15:20:58,2020-11-02 15:21:28,4,D7:F2:3B:06:4D:C8,57,57,6234.143133570775,-26071.081159935937,-10430.750574248515
66049,13069,-23065,4635,-18441,31490,24292,-16,13318,7967,57,-1,8359,2020-11-02 15:20:58,2020-11-02 15:21:28,4,D7:F2:3B:06:4D:C8,57,57,18747.18233922492,-13492.057937687694,-13812.448658580839
66050,-21770,-16406,-30937,-32260,10513,730,-9234,-8189,-12775,57,-1,8385,2020-11-02 15:20:58,2020-11-02 15:21:28,4,D7:F2:3B:06:4D:C8,57,57,-27855.74785046967,22990.989727861746,-19891.18920588737
66051,32242,21220,3090,-12538,16670,-21792,-28434,1283,10515,57,-1,8410,2020-11-02 15:20:58,2020-11-02 15:21:28,4,D7:F2:3B:06:4D:C8,57,57,31059.693269280026,18373.03529910825,14039.590161965676
66052,-16153,30942,22541,-21497,-5085,-282,-14098,-6141,21004,57,1,8436,2020-11-02 15:20:58,2020-11-02 15:21:28,4,D7:F2:3B:06:4D:C8,57,57,-23687.754736057894,-4320.478950144638,-33862.179362907584
66053,23546,21211,-17159,-30703,11039,32248,-16657,-31738,-14330,57,1,8462,2020-11-02 15:20:58,2020-11-02 15:21:28,4,D7:F2:3B:06:4D:C8,57,57,-20146.11606795656,14684.032315325916,-26024.317865006313
66054,-23293,18386,-5916,-25323,-14060,-1788,-15887,-21751,-5117,57,1,8487,2020-11-02 15:20:58,2020-11-02 15:21:28,4,D7:F2:3B:06:4D:C8,57,57,25071.761018804737,-13030.679313856494,10826.638307220555
66055,20432,-3891,6632,-20968,28932,11541,-8716,21260,-4093,57,1,8513,2020-11-02 15:20:58,2020-11-02 15:21:28,4,D7:F2:3B:06:4D:C8,57,57,-19259.80350373974,3478.319299113038,-9672.186559964206
66056,-19740,8142,6882,-6379,29695,1567,-262,-15347,-17400,57,1,8538,2020-11-02 15:20:58,2020-11-02 15:21:28,4,D7:F2:3B:06:4D:C8,57,57,-788.3703359773117,-8336.684223878758,-20813.453734656392
66057,25071,-3626,-4651,-24051,18951,12059,-21248,-2290,17934,57,1,8564,2020-11-02 15:20:58,2020-11-02 15:21:28,4,D7:F2:3B:06:4D:C8,57,57,-25234.058182109846,634.0117334334196,5116.15625091375
66058,15586,17115,29157,25864,30982,-22752,-32251,-25841,11284,57,1,8589,2020-11-02 15:20:58,2020-11-02 15:21:28,4,D7:F2:3B:06:4D:C8,57,57,24030.134557898233,-5337.411573721678,-27929.230938606364
66059,-15118,26338,-3356,1282,-5107,-20962,32266,15375,-9702,57,1,8615,2020-11-02 15:20:58,2020-11-02 15:21:28,4,D7:F2:3B:06:4D:C8,57,57,-5897.992485176859,17056.99609229771,24653.183829926264
66060,14568,17633,-30995,8698,-30441,-17376,32526,-21489,9506,57,1,8641,2020-11-02 15:20:58,2020-11-02 15:21:28,4,D7:F2:3B:06:4D:C8,57,57,14968.467362313044,-22440.236646777277,27499.45639571814
66061,-8196,-3353,3076,-17427,26651,24354,-25327,12559,29226,57,1,8666,2020-11-02 15:20:58,2020-11-02 15:21:28,4,D7:F2:3B:06:4D:C8,57,57,-336.286314437255,656.4699310741553,9345.306829864801
66062,-13019,25340,8467,28907,18707,-11240,-7662,19982,-15823,57,1,8693,2020-11-02 15:20:58,2020-11-02 15:21:28,4,D7:F2:3B:06:4D:C8,57,57,14547.895854616327,-18233.06180984736,18417.76949691582
66063,28717,-26619,13340,-2850,-16632,-10746,-21232,30733,2869,57,1,8717,2020-11-02 15:20:58,2020-11-02 15:21:28,4,D7:F2:3B:06:4D:C8,57,57,17207.786700804274,28235.151174525887,24856.81325132594
66064,16927,28654,16948,16601,-7413,25587,-246,527,24885,57,1,8743,2020-11-02 15:20:58,2020-11-02 15:21:28,4,D7:F2:3B:06:4D:C8,57,57,10621.193130195015,-31539.900150303238,16948.0
66065,-25855,-16425,-12748,3037,-2553,21482,1795,5393,10802,57,1,8769,2020-11-02 15:20:58,2020-11-02 15:21:28,4,D7:F2:3B:06:4D:C8,57,57,-148.35519275105435,-30630.69768609236,-12748.0
66066,-28427,-19744,2098,27625,-15105,25064,-6406,7185,-2004,57,1,8794,2020-11-02 15:20:58,2020-11-02 15:21:28,4,D7:F2:3B:06:4D:C8,57,57,-425.1190777800805,-8902.322600933585,33509.541851219255
66067,-12548,12780,14882,7153,-2561,5868,26869,-22513,-12504,57,1,8820,2020-11-02 15:20:58,2020-11-02 15:21:28,4,D7:F2:3B:06:4D:C8,57,57,-3663.5183100331833,-14995.661350583494,17434.546230133663
66068,11285,-20497,-11490,25078,21253,27882,30961,19470,21541,57,-1,8845,2020-11-02 15:20:58,2020-11-02 15:21:28,4,D7:F2:3B:06:4D:C8,57,57,11145.010792380936,15413.732700874934,-17824.250690104513
66069,21256,5109,9513,-14593,17426,15327,-11539,28172,-2529,57,-1,8871,2020-11-02 15:20:58,2020-11-02 15:21:28,4,D7:F2:3B:06:4D:C8,57,57,-7382.013320355736,6524.05223347336,21710.808547656663
66070,31741,-19986,-13798,-28150,-30434,32223,23531,11,-19432,57,-1,8896,2020-11-02 15:20:58,2020-11-02 15:21:28,4,D7:F2:3B:06:4D:C8,57,57,-31053.42540893645,-7074.4174772706065,24144.42935190037
66071,20714,8679,-24549,-19180,26146,23016,-17430,-29174,19217,57,-1,8922,2020-11-02 15:20:58,2020-11-02 15:21:28,4,D7:F2:3B:06:4D:C8,57,57,-26024.668701400682,15888.101643968468,-13316.646842702643
66072,25827,-11559,-3068,-20711,25635,5366,12011,-12021,-23542,57,-1,8948,2020-11-02 15:20:58,2020-11-02 15:21:28,4,D7:F2:3B:06:4D:C8,57,57,-4214.613059498004,-6747.309953300059,27327.053978663833
66073,8156,-21037,3036,28,2576,-1026,493,-16627,-27898,57,-1,8973,2020-11-02 15:20:58,2020-11-02 15:21:28,4,D7:F2:3B:06:4D:C8,57,57,19943.847943501187,9092.792954154076,6152.808017433135
66074,23229,32708,-14144,1564,-26634,-15591,-2063,28687,1800,57,-1,8999,2020-11-02 15:20:58,2020-11-02 15:21:28,4,D7:F2:3B:06:4D:C8,57,57,20152.213846960713,32708.0,18262.734024958172
66075,1280,-554,4050,17672,-27650,-27871,-32264,-8688,-25586,57,-1,9024,2020-11-02 15:20:58,2020-11-02 15:21:28,4,D7:F2:3B:06:4D:C8,57,57,2945.717158815737,2771.3359528788,1410.766974570886
66076,733,-7977,-15911,19973,-31998,32544,-3844,-4590,-28397,57,-1,9050,2020-11-02 15:20:58,2020-11-02 15:21:28,4,D7:F2:3B:06:4D:C8,57,57,5557.892730978316,5768.851392689744,-15911.0
66077,4337,20703,-19727,-27654,14348,-11224,-32509,1812,-22756,57,-1,9075,2020-11-02 15:20:58,2020-11-02 15:21:28,4,D7:F2:3B:06:4D:C8,57,57,-795.3231428087606,-25153.315288508085,14256.80532571789
66078,-4097,26846,-30480,-12560,-1515,-16853,11,-19180,15656,57,-1,9101,2020-11-02 15:20:58,2020-11-02 15:21:28,4,D7:F2:3B:06:4D:C8,57,57,-27888.878118448443,-3572.57284994729,29596.8026233603
66079,1294,501,-25082,9966,-24812,-29667,-25840,-32236,-8910,57,-1,9127,2020-11-02 15:20:58,2020-11-02 15:21:28,4,D7:F2:3B:06:4D:C8,57,57,24586.346249206807,-3764.6558894820027,3517.2581861306107
66080,-32236,25580,-19955,19691,-10749,25612,-26607,24083,-5833,57,1,9152,2020-11-02 15:20:58,2020-11-02 15:21:28,4,D7:F2:3B:06:4D:C8,57,57,-3226.4824187160166,2029.9400883706567,-45575.95062573398
66081,-31203,-6418,-22235,12258,-7,-14587,-10483,3090,31032,57,1,9178,2020-11-02 15:20:58,2020-11-02 15:21:28,4,D7:F2:3B:06:4D:C8,57,57,-30117.91083095919,23630.32013144488,-6613.060990481009
66082,309,29676,-30139,-23324,-28933,-2058,21768,1297,22071,57,1,9203,2020-11-02 15:20:58,2020-11-02 15:21:28,4,D7:F2:3B:06:4D:C8,57,57,3239.8456155038157,24917.960945699917,34025.261214225444
66083,11275,-24615,-27589,-1046,-4099,-4123,20993,-11504,-27598,57,1,9229,2020-11-02 15:20:58,2020-11-02 15:21:28,4,D7:F2:3B:06:4D:C8,57,57,-4152.836215051097,-38429.42483373391,331.7066766824246
66084,10491,-24864,-26581,8940,-14594,-31769,25338,-1009,6701,57,1,9255,2020-11-02 15:20:58,2020-11-02 15:21:28,4,D7:F2:3B:06:4D:C8,57,57,8920.068520017476,6739.942924386774,36191.638329511996
66085,-18176,5618,19742,31472,3327,9195,6389,-30706,809,57,1,9280,2020-11-02 15:20:58,2020-11-02 15:21:28,4,D7:F2:3B:06:4D:C8,57,57,9605.867197133322,-13576.901827710282,21796.112409137444
66086,5909,-11794,-5082,13045,15354,15853,-12815,11532,-19930,57,1,9306,2020-11-02 15:20:58,2020-11-02 15:21:28,4,D7:F2:3B:06:4D:C8,57,57,-9082.835664140926,-1584.6141406383204,-10715.99436932937
66087,-3828,10227,19492,-19459,27140,-5662,-28433,32265,31523,57,1,9331,2020-11-02 15:20:58,2020-11-02 15:21:28,4,D7:F2:3B:06:4D:C8,57,57,-19503.583229928227,-9638.04231628062,-5089.3573762162105
66088,-29697,-9490,-23526,23045,-30447,-18466,6126,22279,18462,57,1,9357,2020-11-02 15:20:58,2020-11-02 15:21:28,4,D7:F2:3B:06:4D:C8,57,57,-28284.183720706173,-10785.448685656535,24680.43016040056
66089,5112,-4889,-16599,-6897,8217,32481,-2323,-1275,26648,57,1,9382,2020-11-02 15:20:58,2020-11-02 15:21:28,4,D7:F2:3B:06:4D:C8,57,57,-7041.4335894152455,-673.11069361193,-16599.0
66090,749,2781,-31467,2583,-17628,-15129,22255,-32762,-12527,57,1,9408,2020-11-02 15:20:58,2020-11-02 15:21:28,4,D7:F2:3B:06:4D:C8,57,57,-11141.974405529372,-28400.607139880525,8229.761322948296
66091,24537,15824,-14335,8729,26404,30447,-13328,3081,29707,57,1,9434,2020-11-02 15:20:58,2020-11-02 15:21:28,4,D7:F2:3B:06:4D:C8,57,57,-11853.766055510874,-29094.544712695748,-8423.257580186302
66092,6366,13772,7650,15132,-7405,2570,-23565,-32756,-18680,57,1,9459,2020-11-02 15:20:58,2020-11-02 15:21:28,4,D7:F2:3B:06:4D:C8,57,57,-9022.651348526071,13654.893800745458,-4566.407552256355
66093,-32266,7367,10198,22807,10503,-25570,-14344,-6641,17163,57,-1,9485,2020-11-02 15:20:58,2020-11-02 15:21:28,4,D7:F2:3B:06:4D:C8,57,57,-2221.246147656442,-10062.52514679556,-33063.24700058402
66094,-24894,-61,-30257,-30957,-29174,23580,-23042,28946,18959,57,-1,9510,2020-11-02 15:20:58,2020-11-02 15:21:28,4,D7:F2:3B:06:4D:C8,57,57,22485.056040053412,-26375.489451352896,-18274.48541210475
66095,22763,-31025,10456,-31225,4618,-27611,-15098,18451,-16105,57,-1,9536,2020-11-02 15:20:58,2020-11-02 15:21:28,4,D7:F2:3B:06:4D:C8,57,57,28361.898032966703,8100.100989528264,-26833.259845330806
66096,11246,29653,-1575,-1539,-27630,20261,-9203,2067,-5344,57,-1,9561,2020-11-02 15:20:58,2020-11-02 15:21:28,4,D7:F2:3B:06:4D:C8,57,57,11246.0,14696.267474835511,-25803.115244250876
66097,764,-12831,21235,15084,15138,28959,30995,-1006,15147,57,-1,9587,2020-11-02 15:20:58,2020-11-02 15:21:28,4,D7:F2:3B:06:4D:C8,57,57,-15524.196588894973,-6264.556714176875,18327.523876514337
66098,12307,-6163,-8958,2018,-32492,-12522,-7147,13074,-12749,57,-1,9613,2020-11-02 15:20:58,2020-11-02 15:21:28,4,D7:F2:3B:06:4D:C8,57,57,-7881.651382094618,8893.531193957557,-11334.692602502719
66099,-30433,-2319,3860,11486,-17920,24073,21779,1809,11575,57,-1,9638,2020-11-02 15:20:58,2020-11-02 15:21:28,4,D7:F2:3B:06:4D:C8,57,57,11072.353805664003,-28401.350568864073,-4148.628335568551
66100,-17628,-10772,27450,16858,-8706,-20999,11277,-25584,-15306,57,-1,9664,2020-11-02 15:20:58,2020-11-02 15:21:28,4,D7:F2:3B:06:4D:C8,57,57,-32906.809930510004,-2411.5589376887838,9571.369373675932
66101,9234,4584,-26802,-32285,-15629,10486,-2299,-13809,820,57,-1,9689,2020-11-02 15:20:58,2020-11-02 15:21:28,4,D7:F2:3B:06:4D:C8,57,57,20528.28974510561,4584.0,19550.019952444854
66102,-13049,31979,8251,-25876,9201,-20492,-18944,14861,22577,57,-1,9717,2020-11-02 15:20:58,2020-11-02 15:21:28,4,D7:F2:3B:06:4D:C8,57,57,10343.120849732422,29328.472351365286,17142.707009776263
66103,24075,-5394,24595,29418,22783,-10512,14332,-3573,-18642,57,-1,9741,2020-11-02 15:20:58,2020-11-02 15:21:28,4,D7:F2:3B:06:4D:C8,57,57,-26673.329713595558,16520.66427618305,-15139.881765174694
66104,-18659,22257,4635,9453,16641,2797,22007,29451,31787,57,1,9766,2020-11-02 15:20:58,2020-11-02 15:21:28,4,D7:F2:3B:06:4D:C8,57,57,-22864.004156571933,-2691.601741737457,-18303.22782987026
66105,-3806,-13337,-13789,24052,32512,-14111,-27149,11529,-3033,57,1,9792,2020-11-02 15:20:58,2020-11-02 15:21:28,4,D7:F2:3B:06:4D:C8,57,57,601.465385437994,19153.194579259012,3910.383970809391
66106,5118,23792,-9430,30204,-10742,4830,-23056,-8954,-23262,57,1,9817,2020-11-02 15:20:58,2020-11-02 15:21:28,4,D7:F2:3B:06:4D:C8,57,57,17854.746298595153,-7798.859948022331,17365.595472771318
66107,-3584,2552,-11207,24584,-17906,-20512,-8209,-1020,-15331,57,1,9843,2020-11-02 15:20:58,2020-11-02 15:21:28,4,D7:F2:3B:06:4D:C8,57,57,-5829.750556548492,6609.533992576403,-8202.601895093994
66108,-8460,15337,6697,-20464,-741,20450,-9744,-32764,-5353,57,1,9868,2020-11-02 15:20:58,2020-11-02 15:21:28,4,D7:F2:3B:06:4D:C8,57,57,-11305.538087532132,13921.947650358143,5478.061716706712
66109,-2829,-21296,-24567,22805,-8418,-8220,22258,-16379,-29935,57,1,9894,2020-11-02 15:20:58,2020-11-02 15:21:28,4,D7:F2:3B:06:4D:C8,57,57,-28705.49442249891,-10493.53817630224,-11442.92761938007
66110,22719,-28726,11752,-22498,-17134,-3334,-2316,4616,-7668,57,1,9920,2020-11-02 15:20:58,2020-11-02 15:21:28,4,D7:F2:3B:06:4D:C8,57,57,-11896.967422573369,-34638.10334221878,11752.0
66111,1771,2499,-3657,31002,12034,32275,18937,23050,-30707,57,1,9945,2020-11-02 15:20:58,2020-11-02 15:21:28,4,D7:F2:3B:06:4D:C8,57,57,696.2024956791511,-4548.755429754159,-1256.6690595746245
66112,4264,-7217,28902,-29166,29451,-17392,9980,14092,-15858,57,1,9971,2020-11-02 15:20:58,2020-11-02 15:21:28,4,D7:F2:3B:06:4D:C8,57,57,-28532.59125614663,5466.686598799612,-7848.500674661995
66113,31462,-3894,1261,16138,-31481,-10710,-1279,19981,-31979,57,1,9996,2020-11-02 15:20:58,2020-11-02 15:21:28,4,D7:F2:3B:06:4D:C8,57,57,-5050.737445145685,-30801.690140094375,-5688.2982317927035
66114,-17680,-10803,504,12544,15890,28716,17671,-32754,-6627,57,1,10022,2020-11-02 15:20:58,2020-11-02 15:21:28,4,D7:F2:3B:06:4D:C8,57,57,5181.512867268756,11592.90207254021,16379.797646577363
66115,-4880,19163,-16631,13561,26397,-27359,-18165,-1265,-30682,57,1,10047,2020-11-02 15:20:58,2020-11-02 15:21:28,4,D7:F2:3B:06:4D:C8,57,57,19058.26135826389,-10726.715695697565,13760.28249651077
66116,22542,-1816,-21738,32242,29981,-15070,-5873,30224,-29649,57,1,10099,2020-11-02 15:20:58,2020-11-02 15:21:28,4,D7:F2:3B:06:4D:C8,57,57,23074.380558324207,10059.495171419647,18717.90006239521
66117,-30680,17905,-20719,-29964,-25333,17685,-32750,-6385,31030,57,-1,10101,2020-11-02 15:20:58,2020-11-02 15:21:28,4,D7:F2:3B:06:4D:C8,57,57,16524.682752960896,32083.952394574564,-19715.05122125403
66118,-23746,29180,-3056,12522,19194,24585,-3824,-18675,14648,57,-1,10124,2020-11-02 15:20:58,2020-11-02 15:21:28,4,D7:F2:3B:06:4D:C8,57,57,-36495.69794724951,9625.074329232688,-325.6186417786457
66119,20544,-28686,-19655,31712,-30729,-18181,-5877,7436,23095,57,-1,10150,2020-11-02 15:20:58,2020-11-02 15:21:28,4,D7:F2:3B:06:4D:C8,57,57,-38937.66943099535,3931.957237316041,-9982.94388276563
66120,12824,11494,12359,-4636,29174,-12049,-8955,-5110,-29900,57,-1,10175,2020-11-02 15:20:58,2020-11-02 15:21:28,4,D7:F2:3B:06:4D:C8,57,57,-12290.023983786105,17008.866595191645,-2994.2713011576225
66121,4875,-16669,13602,-3357,-29184,-6678,512,29450,4145,57,-1,10201,2020-11-02 15:20:58,2020-11-02 15:21:28,4,D7:F2:3B:06:4D:C8,57,57,-11660.434829834781,-16669.0,8533.128885653603
66122,12049,-18452,13085,-16412,30730,-23323,26105,-5878,-31188,57,-1,10226,2020-11-02 15:20:58,2020-11-02 15:21:28,4,D7:F2:3B:06:4D:C8,57,57,-20506.65616072995,8106.340839298655,13062.779999016868
66123,-8930,-24346,-3554,6126,-9206,18653,-25101,-1015,10791,57,-1,10252,2020-11-02 15:20:58,2020-11-02 15:21:28,4,D7:F2:3B:06:4D:C8,57,57,-20479.02301501678,2537.061164892869,-16102.064122217542
66124,-19203,-1045,-18393,-7430,30484,-10281,20719,6152,15904,57,-1,10278,2020-11-02 15:20:58,2020-11-02 15:21:28,4,D7:F2:3B:06:4D:C8,57,57,-5307.878154128744,2874.6523467213556,25917.416661126015
66125,-28176,-31264,28192,-19960,-30178,-25893,21997,-15354,-12776,57,-1,10303,2020-11-02 15:20:58,2020-11-02 15:21:28,4,D7:F2:3B:06:4D:C8,57,57,7416.084643572152,-48610.830808704966,-12169.73100141633
66126,-28700,-29987,16669,-16879,13596,26089,-17171,-29434,28434,57,-1,10329,2020-11-02 15:20:58,2020-11-02 15:21:28,4,D7:F2:3B:06:4D:C8,57,57,13493.474387320366,-26657.0013879696,33288.07828578448
66127,26303,19667,-27369,-14314,32027,8179,5871,-23545,17421,57,-1,10354,2020-11-02 15:20:58,2020-11-02 15:21:28,4,D7:F2:3B:06:4D:C8,57,57,10951.249201957657,-35557.62829439819,-21057.68434548383
66128,12252,18640,27115,23072,518,-16120,9971,-20471,21772,57,-1,10380,2020-11-02 15:20:58,2020-11-02 15:21:28,4,D7:F2:3B:06:4D:C8,57,57,18044.691809434138,10301.879815372971,-28302.733061882056
66129,20704,7375,19401,-14569,9467,-8172,14072,3595,-15346,57,-1,10406,2020-11-02 15:20:58,2020-11-02 15:21:28,4,D7:F2:3B:06:4D:C8,57,57,-27447.78324950749,-10207.542171198926,-1367.5962530117076
66130,-26708,-30265,-25640,23,-2564,16672,-6404,1804,-12015,57,-1,10431,2020-11-02 15:20:58,2020-11-02 15:21:28,4,D7:F2:3B:06:4D:C8,57,57,-23372.98785671762,40068.95200882666,11613.768232751883
66131,-18980,28366,-8735,14856,-13047,16934,-27134,-18164,-17128,57,-1,10457,2020-11-02 15:20:58,2020-11-02 15:21:28,4,D7:F2:3B:06:4D:C8,57,57,-17071.857223604413,-8633.516768904852,-29583.52007685874
66132,-17187,13517,12267,11526,14094,-3032,-31225,-7667,-993,57,-1,10482,2020-11-02 15:20:58,2020-11-02 15:21:28,4,D7:F2:3B:06:4D:C8,57,57,-23121.190171657003,-7928.86231638629,-5579.001202174186
66133,3322,23513,13317,-6660,-6886,22823,19468,6158,-28888,57,-1,10508,2020-11-02 15:20:58,2020-11-02 15:21:28,4,D7:F2:3B:06:4D:C8,57,57,22277.939262584594,-13375.529647493353,-8125.759709812873
66134,3342,-21533,-5623,-3592,25113,-5338,29456,-12019,21297,57,-1,10534,2020-11-02 15:20:58,2020-11-02 15:21:28,4,D7:F2:3B:06:4D:C8,57,57,20151.644045972746,8743.83280231756,-4890.175065325024
66135,-31428,-24339,18187,-21519,25625,13332,-20974,12557,-30408,57,-1,10559,2020-11-02 15:20:58,2020-11-02 15:21:28,4,D7:F2:3B:06:4D:C8,57,57,-25615.05355076018,7399.929995233762,34640.77282130594
66136,16701,-8206,-28402,31204,-3583,-24836,-21488,18189,-18630,57,1,10585,2020-11-02 15:20:58,2020-11-02 15:21:28,4,D7:F2:3B:06:4D:C8,57,57,12859.166212298343,-2324.3633932236785,-31339.66528443988
66137,-21460,3049,-13251,29407,4095,-18193,19722,-5619,-23752,57,1,10610,2020-11-02 15:20:58,2020-11-02 15:21:28,4,D7:F2:3B:06:4D:C8,57,57,14896.384231197339,-15490.267997299174,13548.665477027038
66138,1811,-26665,17992,1509,28416,-10264,18947,10766,-21452,57,1,10636,2020-11-02 15:20:58,2020-11-02 15:21:28,4,D7:F2:3B:06:4D:C8,57,57,20371.281716234003,-21196.446810366193,-13180.877582814695
66139,1778,-30493,554,12006,-30962,21727,13307,20239,30254,57,1,10661,2020-11-02 15:20:58,2020-11-02 15:21:28,4,D7:F2:3B:06:4D:C8,57,57,10066.809202743578,8927.897792657333,27427.053113293478
66140,-2560,-18190,534,-7702,27145,-26140,-24077,19983,7720,57,1,10687,2020-11-02 15:20:58,2020-11-02 15:21:28,4,D7:F2:3B:06:4D:C8,57,57,-9371.759729331536,6662.161169953531,14335.29156038492
66141,-25073,-7956,-4315,7157,18184,-28961,12270,14349,-222,57,1,10712,2020-11-02 15:20:58,2020-11-02 15:21:28,4,D7:F2:3B:06:4D:C8,57,57,5488.656692577908,7234.482628321881,25062.110821148497
66142,10220,5351,-6871,-3581,-4588,28122,-10518,15114,-12772,57,1,10738,2020-11-02 15:20:58,2020-11-02 15:21:28,4,D7:F2:3B:06:4D:C8,57,57,2250.0903348122665,11862.617749169265,-5874.320013608278
66143,23501,19187,4913,-13304,-1508,16098,30953,14088,7958,57,1,10764,2020-11-02 15:20:58,2020-11-02 15:21:28,4,D7:F2:3B:06:4D:C8,57,57,-22182.832237561313,-15754.86219920667,-14292.71877580397
66144,-2342,23535,-11752,-30702,4380,19957,-6167,-26872,23824,57,1,10789,2020-11-02 15:20:58,2020-11-02 15:21:28,4,D7:F2:3B:06:4D:C8,57,57,14076.563139070215,11973.084574012326,18867.599449196437
66145,30716,9196,-24565,6680,32536,12031,-15637,-30966,31500,57,1,10815,2020-11-02 15:20:58,2020-11-02 15:21:28,4,D7:F2:3B:06:4D:C8,57,57,-22111.39892943736,-17487.774800019888,-28926.49420387935
66146,-11819,-26666,18421,-5605,-8946,-20723,-6162,17165,-26358,57,1,10840,2020-11-02 15:20:58,2020-11-02 15:21:28,4,D7:F2:3B:06:4D:C8,57,57,-23294.260112803884,25298.37044077245,-2732.6647870686447
66147,-1583,-28468,5073,17433,18690,10263,9204,6416,-20468,57,-1,10866,2020-11-02 15:20:58,2020-11-02 15:21:28,4,D7:F2:3B:06:4D:C8,57,57,15746.072891990112,22093.29298749326,-10129.94745538768
66148,-11756,24286,22246,-4853,-26123,-26849,-27910,-5616,5395,57,-1,10892,2020-11-02 15:20:58,2020-11-02 15:21:28,4,D7:F2:3B:06:4D:C8,57,57,-11756.0,-32710.217286913852,3838.749411316434
66149,16603,10207,7384,-31731,26855,29469,-13057,12303,5400,57,-1,10917,2020-11-02 15:20:58,2020-11-02 15:21:28,4,D7:F2:3B:06:4D:C8,57,57,-18142.77095894652,2466.6414390441514,-9955.975891011236
66150,-9477,-24606,32484,-763,16115,24097,-32764,-28405,-227,57,-1,10943,2020-11-02 15:20:58,2020-11-02 15:21:28,4,D7:F2:3B:06:4D:C8,57,57,-4688.85098818521,-38129.48787366554,16572.14083643352
66151,7162,-20245,-17933,-7931,-24060,17690,24327,-29942,-26334,57,-1,10968,2020-11-02 15:20:58,2020-11-02 15:21:28,4,D7:F2:3B:06:4D:C8,57,57,-18022.159171877676,21384.64849946658,803.3338893431346
66152,787,-30217,-28422,-18947,-3059,-14315,-25079,23306,10023,57,-1,10994,2020-11-02 15:20:58,2020-11-02 15:21:28,4,D7:F2:3B:06:4D:C8,57,57,-33243.49581966332,24592.811289410314,3400.0236133709077
66153,2838,-5637,25863,25588,2832,2321,10506,15627,12331,57,-1,11019,2020-11-02 15:20:58,2020-11-02 15:21:28,4,D7:F2:3B:06:4D:C8,57,57,19557.099577422963,16882.08881901507,-6421.815570821776
66154,1318,14590,15385,747,4,6664,-6648,-30197,-5843,57,-1,11045,2020-11-02 15:20:58,2020-11-02 15:21:28,4,D7:F2:3B:06:4D:C8,57,57,15674.986684042171,14138.372498225666,-2388.4439613515824
66155,-10229,-28953,-19932,23261,-6155,-16127,-26876,19210,9262,57,-1,11071,2020-11-02 15:20:58,2020-11-02 15:21:28,4,D7:F2:3B:06:4D:C8,57,57,-23823.917760654702,25841.821142826742,10237.89512330119
66156,26885,19164,-31167,22233,12541,18170,24318,15113,-21715,57,-1,11096,2020-11-02 15:20:58,2020-11-02 15:21:28,4,D7:F2:3B:06:4D:C8,57,57,696.7457108577582,36578.06963807657,-26888.722114790464
66157,9249,20460,25422,25056,32251,5110,-16136,-4857,-8404,57,1,11122,2020-11-02 15:20:58,2020-11-02 15:21:28,4,D7:F2:3B:06:4D:C8,57,57,17284.24276902027,106.6183206624246,-29183.5102315549
66158,22821,1269,10024,-18963,-3068,-13581,-16652,1543,-9942,57,1,11147,2020-11-02 15:20:58,2020-11-02 15:21:28,4,D7:F2:3B:06:4D:C8,57,57,19555.70377744274,-14563.791714067422,-5325.354324190345
66159,10002,-8720,27160,30711,-8684,6371,18673,-6650,-219,57,1,11173,2020-11-02 15:20:58,2020-11-02 15:21:28,4,D7:F2:3B:06:4D:C8,57,57,29065.226585487362,4799.91515144989,-6776.239523006869
66160,-251,28655,18954,-25090,-19180,11998,3311,-2043,-4321,57,1,11199,2020-11-02 15:20:58,2020-11-02 15:21:28,4,D7:F2:3B:06:4D:C8,57,57,-251.0,28655.0,18954.0
66161,-11790,32497,-31459,10498,23316,-5146,-18451,1797,24090,57,1,11224,2020-11-02 15:20:58,2020-11-02 15:21:28,4,D7:F2:3B:06:4D:C8,57,57,-20001.050145491467,32853.43136726474,26558.197048631908
66162,-9498,-29974,13599,12303,-28392,7401,14318,-17404,22549,57,1,11252,2020-11-02 15:20:58,2020-11-02 15:21:28,4,D7:F2:3B:06:4D:C8,57,57,-13922.502032801232,1875.4627274414343,31244.712475947403
66163,-15892,17124,27150,14352,15136,28915,26863,17670,25616,57,1,11277,2020-11-02 15:20:58,2020-11-02 15:21:28,4,D7:F2:3B:06:4D:C8,57,57,-372.09128447052717,-14741.663023927797,32641.299903113246
66164,7157,-5924,-7955,-8679,-15346,12541,-18191,27144,5133,57,1,11302,2020-11-02 15:20:58,2020-11-02 15:21:28,4,D7:F2:3B:06:4D:C8,57,57,-11270.925480381698,4742.105885744794,-277.70593091811315
66165,14544,-29734,-7456,-12774,3587,-20220,7413,-23799,1292,57,1,11326,2020-11-02 15:20:58,2020-11-02 15:21:28,4,D7:F2:3B:06:4D:C8,57,57,-31490.79128597797,-9791.341099955593,7980.622259403971
66166,1731,-3884,-30230,540,-22787,-30190,-3079,26634,-1011,57,1,11352,2020-11-02 15:20:58,2020-11-02 15:21:28,4,D7:F2:3B:06:4D:C8,57,57,21746.68232544376,-3884.0,21069.671778085012
66167,-6694,9688,-13063,-21742,21510,-3553,21759,-32501,-24558,57,1,11378,2020-11-02 15:20:58,2020-11-02 15:21:28,4,D7:F2:3B:06:4D:C8,57,57,-1858.253708817403,14004.462666418854,10475.250239423727
66168,-20249,9686,-32522,13069,-16622,-16859,-3580,24845,3353,57,1,11403,2020-11-02 15:20:58,2020-11-02 15:21:28,4,D7:F2:3B:06:4D:C8,57,57,37848.36043127172,9686.0,5933.304110236148
66169,-26634,-30753,5121,-28927,-2532,8482,31498,-32753,4897,57,1,11429,2020-11-02 15:20:58,2020-11-02 15:21:28,4,D7:F2:3B:06:4D:C8,57,57,22116.390773648734,-3812.811979000665,34317.18709276817
66170,-8960,-23574,-7417,23038,8730,-18399,-13809,3344,-28631,57,1,11454,2020-11-02 15:20:58,2020-11-02 15:21:28,4,D7:F2:3B:06:4D:C8,57,57,3536.300601592351,-8785.012881871975,24522.338626658777
66171,8725,-7697,13814,10740,-13287,4377,-3309,-18929,-28367,57,1,11480,2020-11-02 15:20:58,2020-11-02 15:21:28,4,D7:F2:3B:06:4D:C8,57,57,12745.309855025014,-2981.261102465908,-12444.48427771621
66172,10022,-3600,10751,-32032,-14073,-1267,24083,-7922,15926,57,1,11505,2020-11-02 15:20:58,2020-11-02 15:21:28,4,D7:F2:3B:06:4D:C8,57,57,-13298.22035850019,3850.8928830918453,6108.391302112506
66173,-14282,-1805,11058,13018,-6142,-17410,10766,-32754,18999,57,1,11531,2020-11-02 15:20:58,2020-11-02 15:21:28,4,D7:F2:3B:06:4D:C8,57,57,1231.444345560949,10208.613106494857,14959.300660983032
66174,17710,32489,16187,12258,7165,-14096,-15353,-18418,27189,57,1,11557,2020-11-02 15:20:58,2020-11-02 15:21:28,4,D7:F2:3B:06:4D:C8,57,57,9020.894037000968,8610.85775491407,38414.512745807886
66175,-29934,11485,8496,-15129,-27906,2276,-15872,29454,-16080,57,-1,11582,2020-11-02 15:20:58,2020-11-02 15:21:28,4,D7:F2:3B:06:4D:C8,57,57,633.9903834416464,-5693.80441752541,-32669.71448373358
66176,-14587,-17694,21281,-23317,-3322,-28961,-28935,11534,-24278,57,-1,11608,2020-11-02 15:20:58,2020-11-02 15:21:28,4,D7:F2:3B:06:4D:C8,57,57,21771.282254834572,13691.597648205181,17812.652492539884
66177,20745,13279,24862,-11278,26885,21472,-26381,-4340,-19932,57,-1,11633,2020-11-02 15:20:58,2020-11-02 15:21:28,4,D7:F2:3B:06:4D:C8,57,57,-24417.539382909643,24292.662831142166,-6201.307366717141
66178,16631,9187,-1499,-10503,30217,25563,25327,21770,5151,57,-1,11659,2020-11-02 15:20:58,2020-11-02 15:21:28,4,D7:F2:3B:06:4D:C8,57,57,-17307.46552690889,-7139.470885340587,3566.1917380077
66179,27366,-13074,19748,-13055,5650,20448,-2068,6408,23321,57,-1,11685,2020-11-02 15:20:58,2020-11-02 15:21:28,4,D7:F2:3B:06:4D:C8,57,57,-30420.99071855338,-15220.345411458391,-12357.80503396887
66180,-25628,-26639,-25561,17677,26905,-16666,27372,9479,-15341,57,-1,11710,2020-11-02 15:20:58,2020-11-02 15:21:28,4,D7:F2:3B:06:4D:C8,57,57,-8904.985225597557,-14814.636190266885,41485.216869168275
66181,-3089,5348,29204,3093,14880,23277,31469,-21497,9998,57,-1,11736,2020-11-02 15:20:58,2020-11-02 15:21:28,4,D7:F2:3B:06:4D:C8,57,57,-23429.76958645979,18149.0593152722,-3560.082035028883
66182,10450,14803,-10505,-32483,-12008,-27142,23023,-23799,-760,57,-1,11762,2020-11-02 15:20:58,2020-11-02 15:21:28,4,D7:F2:3B:06:4D:C8,57,57,-10112.390147869884,-17626.09673285383,-5074.112086005147
66183,15051,27861,7649,27933,-2038,28165,1523,-19445,-27897,57,-1,11787,2020-11-02 15:20:58,2020-11-02 15:21:28,4,D7:F2:3B:06:4D:C8,57,57,-10640.177369305173,-30304.720468654432,-5448.455365187745
66184,-14858,-293,-20998,-15080,-28669,-8437,-15881,32269,28937,57,-1,11812,2020-11-02 15:20:58,2020-11-02 15:21:28,4,D7:F2:3B:06:4D:C8,57,57,-21837.132745316187,6940.157814594784,-11693.410963955657
66185,-9253,-21042,22745,-11238,-15102,6942,6142,-7410,9741,57,-1,11838,2020-11-02 15:20:58,2020-11-02 15:21:28,4,D7:F2:3B:06:4D:C8,57,57,25433.5092407424,-16854.894940661707,-10712.97914869284
66186,-2851,18132,4335,18695,31765,23329,11012,-3312,-24557,57,-1,11864,2020-11-02 15:20:58,2020-11-02 15:21:28,4,D7:F2:3B:06:4D:C8,57,57,-2790.02899457009,-6176.888532090819,17599.762392475164
66187,12012,26072,31230,-24328,-3814,-1755,25098,-20206,-7652,57,-1,11889,2020-11-02 15:20:58,2020-11-02 15:21:28,4,D7:F2:3B:06:4D:C8,57,57,2183.7065438925274,8801.775779299413,41438.0308033707
66188,10223,15837,-10234,9708,-14820,-5590,-27888,15123,17704,57,-1,11915,2020-11-02 15:20:58,2020-11-02 15:21:28,4,D7:F2:3B:06:4D:C8,57,57,-12231.530477965323,4376.5492982512305,-17067.235640448107
66189,-19434,31221,-2294,27367,-21227,3110,25364,1553,30514,57,-1,11940,2020-11-02 15:20:58,2020-11-02 15:21:28,4,D7:F2:3B:06:4D:C8,57,57,-26746.642489714926,12354.457229404916,-22128.6722397477
66190,-28376,26367,11014,2271,31753,27924,-18925,-13810,4408,57,-1,11966,2020-11-02 15:20:58,2020-11-02 15:21:28,4,D7:F2:3B:06:4D:C8,57,57,25106.77435512688,-24548.836389092565,-19716.205883037128
66191,-20439,20210,5681,8153,21520,1278,12559,-3570,32058,57,-1,11991,2020-11-02 15:20:58,2020-11-02 15:21:28,4,D7:F2:3B:06:4D:C8,57,57,-18816.171710236926,15748.442301064812,16012.77081772271
66192,20497,27607,2587,-17697,-6902,-28692,3081,3602,-25799,57,-1,12017,2020-11-02 15:20:58,2020-11-02 15:21:28,4,D7:F2:3B:06:4D:C8,57,57,-34290.779784807426,-2532.9586948551296,2587.0
66193,-20722,24793,5922,28388,6391,240,9473,-495,17717,57,-1,12043,2020-11-02 15:20:58,2020-11-02 15:21:28,4,D7:F2:3B:06:4D:C8,57,57,19327.449074355663,-11252.624342871366,24062.2603816933
66194,27925,-285,-17638,-15640,-30207,19952,-20742,-2800,-16591,57,-1,12068,2020-11-02 15:20:58,2020-11-02 15:21:28,4,D7:F2:3B:06:4D:C8,57,57,-13627.653307955261,-24473.7250208885,17501.70685733572
66195,25895,11742,29199,749,1799,-3351,-23820,30224,-24275,57,-1,12094,2020-11-02 15:20:58,2020-11-02 15:21:28,4,D7:F2:3B:06:4D:C8,57,57,11338.046650004035,32421.79191167831,21938.16987349134
66196,-6135,-13859,5150,24307,15364,-10529,-13074,9486,21288,57,-1,12119,2020-11-02 15:20:58,2020-11-02 15:21:28,4,D7:F2:3B:06:4D:C8,57,57,-6905.8589461569245,-9571.492630758261,10813.336535737926
66197,-27412,-21022,-14554,6396,8458,-30751,12011,1803,-28381,57,-1,12145,2020-11-02 15:20:58,2020-11-02 15:21:28,4,D7:F2:3B:06:4D:C8,57,57,1281.5302778092318,-35113.96444081998,-13058.64944762237
66198,-24583,-17423,9278,9219,4116,-6172,21737,-8184,-7394,57,1,12171,2020-11-02 15:20:58,2020-11-02 15:21:28,4,D7:F2:3B:06:4D:C8,57,57,11529.927739438808,11543.959957377723,-26977.098747377917
66199,-29,-7454,-24028,-13805,11047,2530,16873,30471,-2025,57,1,12196,2020-11-02 15:20:58,2020-11-02 15:21:28,4,D7:F2:3B:06:4D:C8,57,57,-3097.1832404498537,24950.55709138988,885.9445831262572
66200,-15390,-18721,-30201,32025,11558,-4374,19690,-6137,19984,57,1,12222,2020-11-02 15:20:58,2020-11-02 15:21:28,4,D7:F2:3B:06:4D:C8,57,57,27721.442807916115,-26977.643988686006,1776.7035394656396
66201,29891,3544,25323,-13024,-5624,22528,-26643,-3064,-19956,57,1,12247,2020-11-02 15:20:58,2020-11-02 15:21:28,4,D7:F2:3B:06:4D:C8,57,57,-32623.26779565211,17047.833013600313,-13870.109367757947
66202,-29501,5323,6100,-15075,-30980,-9963,-12814,-22006,2062,57,1,12298,2020-11-02 15:20:58,2020-11-02 15:21:28,4,D7:F2:3B:06:4D:C8,57,57,30247.0488567259,3331.56469269622,3141.6623238686834
66203,5081,-23846,-8465,17429,10238,-22775,22775,-19701,-14320,57,1,12300,2020-11-02 15:20:58,2020-11-02 15:21:28,4,D7:F2:3B:06:4D:C8,57,57,24940.1460524125,-5103.802613683981,-4247.918992269696
66204,-6167,29387,-24608,-17899,13569,-31965,765,-1524,29205,57,1,12324,2020-11-02 15:20:58,2020-11-02 15:21:28,4,D7:F2:3B:06:4D:C8,57,57,26430.562961773932,14249.666646055404,-24608.0
66205,-19981,-8746,32767,29708,-17909,10019,-24318,16142,-7653,57,1,12350,2020-11-02 15:20:58,2020-11-02 15:21:28,4,D7:F2:3B:06:4D:C8,57,57,-25338.217957146157,4145.817883186744,29836.153754054918
66206,23551,11998,-11787,7173,11540,-10202,-23032,19727,-26845,57,1,12375,2020-11-02 15:20:58,2020-11-02 15:21:28,4,D7:F2:3B:06:4D:C8,57,57,12875.811894119532,-16557.12849359589,-19940.158929000663
66207,27923,-19471,-12807,22519,-9953,22559,-5363,-19696,32556,57,1,12401,2020-11-02 15:20:58,2020-11-02 15:21:28,4,D7:F2:3B:06:4D:C8,57,57,-25999.97787286328,19251.807970368453,16619.327889017575
66208,-487,7163,-19464,7405,-24561,7187,27920,2577,-30925,57,1,12426,2020-11-02 15:20:58,2020-11-02 15:21:28,4,D7:F2:3B:06:4D:C8,57,57,18476.928952032653,-5973.57497201185,7301.543162598654
66209,-16082,9973,-2286,-1573,-3330,1034,-16115,-18161,6198,57,1,12452,2020-11-02 15:20:58,2020-11-02 15:21:28,4,D7:F2:3B:06:4D:C8,57,57,14462.521359263239,10995.521780775423,5766.387578141779
66210,306,-28181,19010,-21286,22278,-16653,22535,5392,-18379,57,-1,12478,2020-11-02 15:20:58,2020-11-02 15:21:28,4,D7:F2:3B:06:4D:C8,57,57,3255.5849480239576,-25007.11783613251,-22796.660307509585
66211,-23781,-25886,-25029,-3098,25341,-28438,4608,11536,-12751,57,-1,12503,2020-11-02 15:20:58,2020-11-02 15:21:28,4,D7:F2:3B:06:4D:C8,57,57,-18185.41888939975,22468.14003369808,32039.741279279966
66212,-3830,26854,3882,8940,13826,-32026,-31751,10511,-3796,57,-1,12529,2020-11-02 15:20:58,2020-11-02 15:21:28,4,D7:F2:3B:06:4D:C8,57,57,20525.929666103777,3894.9202941871745,17731.101128922866
66213,-12293,11753,-8174,27890,11528,12262,-18957,21006,-27097,57,-1,12554,2020-11-02 15:20:58,2020-11-02 15:21:28,4,D7:F2:3B:06:4D:C8,57,57,1130.3898732685566,18256.76026012336,-4634.44252729411
66214,-6657,4837,-13548,-18953,16135,-9497,-29201,-10740,14627,57,-1,12580,2020-11-02 15:20:58,2020-11-02 15:21:28,4,D7:F2:3B:06:4D:C8,57,57,-11285.491533652756,-9856.404739829628,-5171.990762609313
66215,3836,28651,-17895,13566,-30963,18658,-26388,-14070,-22242,57,-1,12606,2020-11-02 15:20:58,2020-11-02 15:21:28,4,D7:F2:3B:06:4D:C8,57,57,30897.406060525325,9641.290164212747,-10402.958459037869
66216,-20763,12529,-13560,-8957,-26345,9952,24298,-17400,-18408,57,-1,12631,2020-11-02 15:20:58,2020-11-02 15:21:28,4,D7:F2:3B:06:4D:C8,57,57,-23039.83707532844,15354.016137096125,-2317.694113577694
66217,-10517,14068,8727,-30705,5143,1258,12522,-27129,2323,57,-1,12657,2020-11-02 15:20:58,2020-11-02 15:21:28,4,D7:F2:3B:06:4D:C8,57,57,13806.894809631032,-13789.792340452925,1971.7314530558074
66218,-20509,4841,-7668,17948,-32496,-17419,23276,-26361,-13042,57,-1,12682,2020-11-02 15:20:58,2020-11-02 15:21:28,4,D7:F2:3B:06:4D:C8,57,57,-14157.452744850892,-9385.833810693142,14639.851141844418
66219,23495,-22563,2813,29727,22793,24575,15600,21768,-7412,57,-1,12708,2020-11-02 15:20:58,2020-11-02 15:21:28,4,D7:F2:3B:06:4D:C8,57,57,-8472.299824150617,25838.98261462437,18154.450587413467
66220,22423,15301,32731,23583,-28158,30994,18165,-3575,29965,57,1,12734,2020-11-02 15:20:58,2020-11-02 15:21:28,4,D7:F2:3B:06:4D:C8,57,57,-12594.37829529753,-27109.073738827523,-30244.167162905153
66221,32264,24797,13816,4884,12552,-20214,12794,-21749,-2800,57,1,12759,2020-11-02 15:20:58,2020-11-02 15:21:28,4,D7:F2:3B:06:4D:C8,57,57,-34311.70311683708,-22882.04635488311,-12077.157978390991
66222,32712,8390,7141,-3825,-27134,-11733,-4354,10510,-10220,57,1,12786,2020-11-02 15:20:58,2020-11-02 15:21:28,4,D7:F2:3B:06:4D:C8,57,57,19856.090366454293,-15395.684646818732,-23667.900088831524
66223,-30469,-15920,-29435,1034,29705,1325,-20987,-2803,-8163,57,1,12810,2020-11-02 15:20:58,2020-11-02 15:21:28,4,D7:F2:3B:06:4D:C8,57,57,-6695.674500490455,31909.967322488872,31387.059665747198
66224,21245,9436,28678,-7416,29978,-19678,-19189,-3058,-11739,57,1,12836,2020-11-02 15:20:58,2020-11-02 15:21:28,4,D7:F2:3B:06:4D:C8,57,57,-13655.34169014233,-17114.722086044538,-29722.613213560482
66225,-5616,-6676,4357,12036,-1762,2591,-12271,23567,18478,57,1,12861,2020-11-02 15:20:58,2020-11-02 15:21:28,4,D7:F2:3B:06:4D:C8,57,57,-1395.5708765189495,-6609.2038258816065,-7032.971471331591
66226,-22735,25854,29705,28155,27159,-24816,534,527,32309,57,1,12887,2020-11-02 15:20:58,2020-11-02 15:21:28,4,D7:F2:3B:06:4D:C8,57,57,18342.968410634334,29134.945527432705,29705.0
66227,-11748,-28933,28659,25581,13306,8708,26645,15886,6711,57,1,12913,2020-11-02 15:20:58,2020-11-02 15:21:28,4,D7:F2:3B:06:4D:C8,57,57,-29968.78742580873,28471.484129733253,9365.823278123287
66228,-26071,22764,29726,-24872,19197,-25859,13840,-29171,-21962,57,1,12938,2020-11-02 15:20:58,2020-11-02 15:21:28,4,D7:F2:3B:06:4D:C8,57,57,-5736.771791503737,36054.18095398995,27362.69902895465
66229,-29664,27867,-7627,-23591,-10249,-19722,-7928,5133,-9932,57,1,12964,2020-11-02 15:20:58,2020-11-02 15:21:28,4,D7:F2:3B:06:4D:C8,57,57,-8758.307865769388,29628.907609112095,-27570.157620497954
66230,3615,12005,-2498,28384,-5644,18164,-6399,-25333,16434,57,1,12989,2020-11-02 15:20:58,2020-11-02 15:21:28,4,D7:F2:3B:06:4D:C8,57,57,603.2154252572652,-11853.59700636839,4749.381345117068
66231,-14077,6386,15142,-30750,-18946,-8210,-6917,19210,24623,57,1,13015,2020-11-02 15:20:58,2020-11-02 15:21:28,4,D7:F2:3B:06:4D:C8,57,57,2885.848446966964,-21430.49579980964,-792.9801482254543
66232,29201,-24330,29740,-26647,-31738,-13593,26870,-26359,-2005,57,1,13040,2020-11-02 15:20:58,2020-11-02 15:21:28,4,D7:F2:3B:06:4D:C8,57,57,-19863.79658884624,38410.45550606946,-21428.518238394332
66233,-26848,8186,290,12022,27916,18653,25586,19976,10279,57,1,13066,2020-11-02 15:20:58,2020-11-02 15:21:28,4,D7:F2:3B:06:4D:C8,57,57,18191.848032949536,18835.119177697932,10109.6365269967
66234,7922,9716,-28129,-12547,1050,28630,14831,-24058,-12001,57,1,13092,2020-11-02 15:20:58,2020-11-02 15:21:28,4,D7:F2:3B:06:4D:C8,57,57,15266.94732172702,-18388.09782539605,-19421.57457157574
66235,16361,-27922,-9428,13321,-744,8160,6894,-22267,-2536,57,1,13117,2020-11-02 15:20:58,2020-11-02 15:21:28,4,D7:F2:3B:06:4D:C8,57,57,-12162.713523862967,-7152.93253968135,30612.277681009113
66236,19174,-29468,-16096,13843,-26859,-21012,20719,-25851,-14317,57,1,13143,2020-11-02 15:20:58,2020-11-02 15:21:28,4,D7:F2:3B:06:4D:C8,57,57,30099.147115010797,-9793.393005319425,-22208.49640097901
66237,-7724,-6188,-19964,-21989,-9714,9976,14322,-31482,30736,57,1,13168,2020-11-02 15:20:58,2020-11-02 15:21:28,4,D7:F2:3B:06:4D:C8,57,57,19984.714439282972,5515.372636318747,8167.292664210157
66238,30431,-14636,-4628,8217,-4339,7681,-31499,22536,-1010,57,1,13194,2020-11-02 15:20:58,2020-11-02 15:21:28,4,D7:F2:3B:06:4D:C8,57,57,-32292.315703500586,286.2217967012248,10899.590111033645
66239,11752,-12080,-16142,25,13061,25872,17913,31498,-24561,57,1,13220,2020-11-02 15:20:58,2020-11-02 15:21:28,4,D7:F2:3B:06:4D:C8,57,57,-4005.6821678024226,-17143.22286849112,15318.762614904399
66240,28639,-30256,23791,-14317,-15868,-25570,19198,8972,24595,57,-1,13245,2020-11-02 15:20:58,2020-11-02 15:21:28,4,D7:F2:3B:06:4D:C8,57,57,25316.55842503615,-11376.523902871657,-39131.52324404355
66241,27368,10196,-25610,-10484,-23542,29477,-13309,15885,-21223,57,-1,13271,2020-11-02 15:20:58,2020-11-02 15:21:28,4,D7:F2:3B:06:4D:C8,57,57,6142.110979029907,28683.96992383113,-25462.56629112689
66242,19960,-32031,-5626,-3069,-7142,25634,5385,-17394,8993,57,-1,13296,2020-11-02 15:20:58,2020-11-02 15:21:28,4,D7:F2:3B:06:4D:C8,57,57,16705.616591781847,-33266.02192787358,8386.453146749056
66243,18936,-3095,24331,24832,5156,27680,3855,-8176,4650,57,-1,13322,2020-11-02 15:20:58,2020-11-02 15:21:28,4,D7:F2:3B:06:4D:C8,57,57,-10242.666067441836,-3095.0,29080.18997240004
66244,-25062,-12303,-26370,-25861,9497,-14307,-5356,27664,11315,57,-1,13347,2020-11-02 15:20:58,2020-11-02 15:21:28,4,D7:F2:3B:06:4D:C8,57,57,29986.39191011618,23930.452620715772,-1730.4018552338493
66245,11291,-1289,-24085,30190,2061,-498,-23274,26383,28984,57,-1,13373,2020-11-02 15:20:58,2020-11-02 15:21:28,4,D7:F2:3B:06:4D:C8,57,57,13023.076901134264,23203.622099765154,-1107.6174783891856
66246,3125,-8725,-4579,22485,25857,-2809,-13550,13326,32314,57,-1,13399,2020-11-02 15:20:58,2020-11-02 15:21:28,4,D7:F2:3B:06:4D:C8,57,57,1658.0480732821247,-7483.317916073959,-6936.088274643853
66247,3881,31453,-22203,-14633,22021,-15629,-22773,-14834,10298,57,-1,13424,2020-11-02 15:20:58,2020-11-02 15:21:28,4,D7:F2:3B:06:4D:C8,57,57,19347.485024769627,-33298.3480947217,-3771.129324096226
66248,-11245,-8998,2610,-16673,19194,8941,-2301,-3570,-21194,57,-1,13450,2020-11-02 15:20:58,2020-11-02 15:21:28,4,D7:F2:3B:06:4D:C8,57,57,9862.667791749323,10494.846975044014,2610.0
66249,-12021,-25882,21038,-27934,-5371,-5404,8700,-28914,-2511,57,-1,13475,2020-11-02 15:20:58,2020-11-02 15:21:28,4,D7:F2:3B:06:4D:C8,57,57,-13394.29183489323,-31686.97085886772,8573.717573548854
66250,28421,-23826,-7395,2543,19214,2786,-7948,-22514,-19669,57,-1,13501,2020-11-02 15:20:58,2020-11-02 15:21:28,4,D7:F2:3B:06:4D:C8,57,57,27402.96107114595,23195.15232524107,-11881.926407031944
66251,2060,-10005,-30439,28407,22285,-21024,-31249,31245,-24027,57,-1,13552,2020-11-02 15:20:58,2020-11-02 15:21:28,4,D7:F2:3B:06:4D:C8,57,57,-31749.679228007964,-3553.0360762345153,-3195.3324646389383
66252,16631,3564,-16603,23296,6423,9689,-30229,1803,-2274,57,-1,13554,2020-11-02 15:20:58,2020-11-02 15:21:28,4,D7:F2:3B:06:4D:C8,57,57,16631.0,16931.991761223027,-1292.0371503465199
66253,19688,6892,-24794,6414,-14813,9949,31721,2057,4887,57,-1,13578,2020-11-02 15:20:58,2020-11-02 15:21:28,4,D7:F2:3B:06:4D:C8,57,57,19688.0,-21820.5686837853,-13642.026327353582
66254,-8721,20200,15138,-8431,11816,-25117,16105,8456,30735,57,-1,13603,2020-11-02 15:20:58,2020-11-02 15:21:28,4,D7:F2:3B:06:4D:C8,57,57,-19716.430185035762,-11508.573220912564,13858.932432821257
66255,7365,8656,1806,26655,15394,-23051,-30230,-16120,11528,57,-1,13629,2020-11-02 15:20:58,2020-11-02 15:21:28,4,D7:F2:3B:06:4D:C8,57,57,3952.27645207135,-10374.601141083496,3029.5806656749232
66256,-23828,-2364,30450,22825,17931,28428,-24593,28171,-22010,57,-1,13655,2020-11-02 15:20:58,2020-11-02 15:21:28,4,D7:F2:3B:06:4D:C8,57,57,-34705.819359878005,16769.558366981142,-3853.906425424615
66257,-14078,-4675,16870,-19942,17927,10776,-19723,-30962,-4856,57,-1,13680,2020-11-02 15:20:58,2020-11-02 15:21:28,4,D7:F2:3B:06:4D:C8,57,57,-19375.919951092837,7008.909457577041,8949.386753533987
66258,17120,-18763,22754,6939,26633,-13014,-20484,-10223,26637,57,-1,13706,2020-11-02 15:20:58,2020-11-02 15:21:28,4,D7:F2:3B:06:4D:C8,57,57,-491.87117175608546,-33900.006823270094,3665.6084259828403
66259,-26122,10693,20214,-14845,10773,15913,-15099,-16877,23575,57,-1,13731,2020-11-02 15:20:58,2020-11-02 15:21:28,4,D7:F2:3B:06:4D:C8,57,57,-7341.436401923622,-29812.4189218425,-16205.798918445143
66260,-10759,12492,-6916,-6921,-10982,10796,-27634,-10220,16675,57,-1,13757,2020-11-02 15:20:58,2020-11-02 15:21:28,4,D7:F2:3B:06:4D:C8,57,57,9978.058693008072,-14758.620036496415,-1502.890660431623
66261,-9716,-12059,20482,-19211,9248,19492,-20202,-19949,-31185,57,-1,13782,2020-11-02 15:20:58,2020-11-02 15:21:28,4,D7:F2:3B:06:4D:C8,57,57,-10747.58251640917,15943.689305190768,17018.246160886305
66262,-13531,-31755,6392,25070,-8174,-23015,24090,8209,30519,57,-1,13810,2020-11-02 15:20:58,2020-11-02 15:21:28,4,D7:F2:3B:06:4D:C8,57,57,27207.901205214217,-1749.9061320898181,22113.199464034537
66263,-20690,-20226,3583,-17182,-16380,-26615,-4584,-31729,-11462,57,-1,13834,2020-11-02 15:20:58,2020-11-02 15:21:28,4,D7:F2:3B:06:4D:C8,57,57,-17378.90418487008,10629.438350053319,20856.504853295075
66264,15159,31740,-29393,32730,25593,23291,2067,-17906,12090,57,-1,13859,2020-11-02 15:20:58,2020-11-02 15:21:28,4,D7:F2:3B:06:4D:C8,57,57,-24342.01373975861,-23082.884931636196,31238.08765475642
66265,-26068,-8990,-23247,-14367,-2572,27888,5388,25614,29239,57,-1,13885,2020-11-02 15:20:58,2020-11-02 15:21:28,4,D7:F2:3B:06:4D:C8,57,57,1203.2211282049584,-35760.134651216445,-4533.074193470686
66266,-24302,-28976,10281,-22048,-10766,31978,-28924,11789,-14286,57,-1,13910,2020-11-02 15:20:58,2020-11-02 15:21:28,4,D7:F2:3B:06:4D:C8,57,57,-11236.308236787525,18889.84631551452,32447.09269540406
66267,-21505,30683,24370,27358,-9472,1511,-32004,22796,2606,57,1,13936,2020-11-02 15:20:58,2020-11-02 15:21:28,4,D7:F2:3B:06:4D:C8,57,57,26417.457652840694,-14665.377736972514,-32937.107356176246
66268,26630,20708,31778,15847,-31736,-17952,-29963,32523,-728,57,1,13962,2020-11-02 15:20:58,2020-11-02 15:21:28,4,D7:F2:3B:06:4D:C8,57,57,-20131.774044093072,-24598.619063672726,33725.94049093216
66269,-6135,-26909,-9186,18160,-30958,8409,-30481,4362,-29918,57,1,13987,2020-11-02 15:20:58,2020-11-02 15:21:28,4,D7:F2:3B:06:4D:C8,57,57,-2867.591004404013,-5549.523574784349,-28409.41414257559
66270,8181,-1565,8223,14842,-12511,-16690,-5398,19207,24090,57,1,14013,2020-11-02 15:20:58,2020-11-02 15:21:28,4,D7:F2:3B:06:4D:C8,57,57,3351.0402949826403,6274.176823911819,-9295.211085483237
66271,27617,-10267,-5861,-25593,-2005,30165,-21272,-13820,-9200,57,1,14038,2020-11-02 15:20:58,2020-11-02 15:21:28,4,D7:F2:3B:06:4D:C8,57,57,-1915.101632420292,20263.935454441336,22094.492631326397
66272,-15415,13022,4368,-32744,14869,-32020,13802,-28157,24074,57,1,14064,2020-11-02 15:20:58,2020-11-02 15:21:28,4,D7:F2:3B:06:4D:C8,57,57,-18651.335277746515,-7227.947557859963,5114.547825361933
66273,11456,-10284,-22538,10272,-19190,5122,15342,29444,2056,57,1,14090,2020-11-02 15:20:58,2020-11-02 15:21:28,4,D7:F2:3B:06:4D:C8,57,57,3222.8774542308056,24773.399472848025,10993.351421368458
66274,4286,1491,10741,31261,18447,-21497,-29966,-22522,-20729,57,1,14115,2020-11-02 15:20:58,2020-11-02 15:21:28,4,D7:F2:3B:06:4D:C8,57,57,3432.233357115826,10465.96024740615,-3826.931967257273
66275,13567,-17710,4596,10521,-13296,27143,-14602,-17143,-8952,57,1,14141,2020-11-02 15:20:58,2020-11-02 15:21:28,4,D7:F2:3B:06:4D:C8,57,57,-304.2453223512457,21849.07399385382,6430.879053047738
66276,10203,22212,-24853,23828,-2549,29221,13563,-19955,30731,57,1,14166,2020-11-02 15:20:58,2020-11-02 15:21:28,4,D7:F2:3B:06:4D:C8,57,57,8718.973455077612,17607.141082763617,-28794.337060979706
66277,-29448,14541,-29696,28680,8980,4138,-8703,27664,-29421,57,1,14192,2020-11-02 15:20:58,2020-11-02 15:21:28,4,D7:F2:3B:06:4D:C8,57,57,27959.340011813598,34121.93729613825,-3800.855464524824
66278,-28413,28123,15893,-31233,21788,28454,-16120,-4846,-996,57,-1,14217,2020-11-02 15:20:58,2020-11-02 15:21:28,4,D7:F2:3B:06:4D:C8,57,57,-28413.0,2748.166520325274,-32185.993207862382
66279,-31492,29411,2571,-26884,3614,13601,-29936,7700,-30169,57,-1,14243,2020-11-02 15:20:58,2020-11-02 15:21:28,4,D7:F2:3B:06:4D:C8,57,57,-3556.612701758933,8696.513309236741,42131.74798595419
66280,8713,30947,16639,19446,-27366,-31198,18455,-9966,-17103,57,-1,14269,2020-11-02 15:20:58,2020-11-02 15:21:28,4,D7:F2:3B:06:4D:C8,57,57,-36191.56866621866,183.81335314044009,791.2453030423894
66281,20274,-22300,-9726,-26907,14603,-488,-15080,7952,4920,57,-1,14294,2020-11-02 15:20:58,2020-11-02 15:21:28,4,D7:F2:3B:06:4D:C8,57,57,31422.68279662106,436.2476816946946,-3917.249777988524
66282,14649,21238,20515,-23584,-14336,9483,22549,5390,30778,57,-1,14320,2020-11-02 15:20:58,2020-11-02 15:21:28,4,D7:F2:3B:06:4D:C8,57,57,-18782.616820595264,-20832.633674922996,-17312.589336582678
66283,-26805,-4880,19752,-30243,30197,19710,-9201,3596,-23495,57,-1,14345,2020-11-02 15:20:58,2020-11-02 15:21:28,4,D7:F2:3B:06:4D:C8,57,57,6937.746027700281,-29426.682263726605,14778.429551370033
66284,-3285,-26913,-12742,-23074,29950,-27670,-15096,25100,-11210,57,-1,14371,2020-11-02 15:20:58,2020-11-02 15:21:28,4,D7:F2:3B:06:4D:C8,57,57,-11339.929840857085,16945.539248639285,-21947.985073287815
66285,15630,24795,5164,19682,27396,-6435,-10752,9997,20529,57,-1,14397,2020-11-02 15:20:58,2020-11-02 15:21:28,4,D7:F2:3B:06:4D:C8,57,57,4192.486552005701,-18519.125789857208,-22917.697473583536
66286,-27394,-543,-24787,13801,16393,28634,-13832,12557,23850,57,-1,14422,2020-11-02 15:20:58,2020-11-02 15:21:28,4,D7:F2:3B:06:4D:C8,57,57,-30762.130847028406,-1481.0361007699803,20411.254048159797
66287,12801,25312,3361,-26381,-18929,-5673,22514,4364,3875,57,-1,14448,2020-11-02 15:20:58,2020-11-02 15:21:28,4,D7:F2:3B:06:4D:C8,57,57,12801.0,-25532.99442103969,244.66486293726166
66288,6639,-23581,8476,-13576,7198,-25133,-3604,9994,-17126,57,-1,14499,2020-11-02 15:20:58,2020-11-02 15:21:28,4,D7:F2:3B:06:4D:C8,57,57,-25902.976649570435,66.05837893175794,-1006.9235236012728
66289,-18463,-18203,32036,-26620,-7130,9691,12521,29448,-22767,57,1,14501,2020-11-02 15:20:58,2020-11-02 15:21:28,4,D7:F2:3B:06:4D:C8,57,57,-26226.370635012518,18034.546651651704,-26181.472158462584
66290,-12578,24284,-14311,-22504,1303,-526,-22551,2568,23819,57,1,14525,2020-11-02 15:20:58,2020-11-02 15:21:28,4,D7:F2:3B:06:4D:C8,57,57,-11501.156947272544,26553.371580731087,10740.824343123159
66291,-10265,11982,-14867,13090,28941,4866,-30483,16649,-5112,57,1,14550,2020-11-02 15:20:58,2020-11-02 15:21:28,4,D7:F2:3B:06:4D:C8,57,57,10884.726428397329,17655.167497637256,6307.458220973149
66292,3549,-30255,3295,31774,-3060,4615,-30479,21515,-19961,57,1,14576,2020-11-02 15:20:58,2020-11-02 15:21:28,4,D7:F2:3B:06:4D:C8,57,57,5743.967998602026,12679.332176321912,27295.76557258513
66293,-26160,-10042,29153,9243,25349,-2794,26358,-4339,25353,57,1,14601,2020-11-02 15:20:58,2020-11-02 15:21:28,4,D7:F2:3B:06:4D:C8,57,57,38764.266120899345,1086.1284651027254,-11455.861821154664
66294,-23845,-4922,-32291,-9969,-23289,-5340,-13060,31760,-4338,57,1,14627,2020-11-02 15:20:58,2020-11-02 15:21:28,4,D7:F2:3B:06:4D:C8,57,57,-23941.480014187997,-27313.848480143053,-17784.206643368263
66295,12265,-16689,20721,-12542,-21742,-3803,23043,-9454,-2538,57,1,14652,2020-11-02 15:20:58,2020-11-02 15:21:28,4,D7:F2:3B:06:4D:C8,57,57,7395.805078144126,26590.362893868398,9826.874142802688
66296,6133,-14377,-16895,-5127,-17894,-2778,-19446,-23020,19489,57,1,14678,2020-11-02 15:20:58,2020-11-02 15:21:28,4,D7:F2:3B:06:4D:C8,57,57,-11755.078850304695,-10293.030301083585,-16900.428735511246
66297,4612,-802,16900,2036,22043,21542,-30702,-30956,9261,57,1,14704,2020-11-02 15:20:58,2020-11-02 15:21:28,4,D7:F2:3B:06:4D:C8,57,57,16620.31272845398,-4530.438549930128,-3280.8656409090554
66298,6955,29412,13829,31978,272,-31970,-27882,18450,-3531,57,1,14729,2020-11-02 15:20:58,2020-11-02 15:21:28,4,D7:F2:3B:06:4D:C8,57,57,-5019.814259193456,-29690.787884453894,-14069.029447817778
66299,19265,-10507,31250,13795,-17921,-32496,-5356,-20465,26681,57,1,14755,2020-11-02 15:20:58,2020-11-02 15:21:28,4,D7:F2:3B:06:4D:C8,57,57,7397.27014067864,24639.225392659217,-28218.588563490575
66300,-16317,25578,13858,-18980,-6672,14595,-20977,29453,1593,57,1,14780,2020-11-02 15:20:58,2020-11-02 15:21:28,4,D7:F2:3B:06:4D:C8,57,57,11988.571241348141,-23366.387006352554,-20562.31637876625
66301,-21202,27097,-24266,30681,-3847,-7951,25352,3084,-20682,57,1,14806,2020-11-02 15:20:58,2020-11-02 15:21:28,4,D7:F2:3B:06:4D:C8,57,57,15898.726033145196,38707.34275583933,-4645.761111482525
66302,17683,16587,-32712,13272,23816,10209,-17921,-26868,14386,57,1,14834,2020-11-02 15:20:58,2020-11-02 15:21:28,4,D7:F2:3B:06:4D:C8,57,57,14477.119641601465,18919.561355161975,-33020.52705531847
66303,17670,478,26920,-24350,6928,22743,15350,1805,-12246,57,1,14857,2020-11-02 15:20:58,2020-11-02 15:21:28,4,D7:F2:3B:06:4D:C8,57,57,-29792.233534990817,-5797.944770551483,-10768.028669826399
66304,-14591,-27688,-13017,9453,-18934,22232,239,-1014,-24285,57,1,14883,2020-11-02 15:20:58,2020-11-02 15:21:28,4,D7:F2:3B:06:4D:C8,57,57,30491.661562106878,7055.579365433707,-13017.0
66305,-28172,-9253,28204,-7431,14617,11729,31978,29703,-19684,57,1,14908,2020-11-02 15:20:58,2020-11-02 15:21:28,4,D7:F2:3B:06:4D:C8,57,57,27375.943872057953,-20765.289324140704,-22228.4876993164
66306,27884,-25882,-29401,-246,-9435,28887,-3864,-31996,-32492,57,-1,14934,2020-11-02 15:20:58,2020-11-02 15:21:28,4,D7:F2:3B:06:4D:C8,57,57,19065.160477818266,-26792.273369328017,-35078.596389511265
66307,-7185,3288,-6637,-24296,8728,-2077,-7446,-14078,3086,57,-1,14960,2020-11-02 15:20:58,2020-11-02 15:21:28,4,D7:F2:3B:06:4D:C8,57,57,8766.547885681248,-3808.3289444755655,-3889.628108023606
66308,31688,-6707,-2316,-1249,17934,-5647,-3090,19458,-5111,57,-1,14985,2020-11-02 15:20:58,2020-11-02 15:21:28,4,D7:F2:3B:06:4D:C8,57,57,-31697.716170941567,-6707.0,-2178.988193274441
66309,29613,28876,4079,18205,-19951,23041,-14094,5124,27399,57,-1,15011,2020-11-02 15:20:58,2020-11-02 15:21:28,4,D7:F2:3B:06:4D:C8,57,57,-25643.58505738592,-16980.961731551022,-27954.33544329418
66310,7371,24275,-11294,17177,-1260,-2566,-28938,24582,19975,57,-1,15036,2020-11-02 15:20:58,2020-11-02 15:21:28,4,D7:F2:3B:06:4D:C8,57,57,17309.883351873603,-20362.539370268594,-7542.9855321875375
66311,-1844,-13121,24296,9491,-11768,36,14586,7434,13065,57,-1,15062,2020-11-02 15:20:58,2020-11-02 15:21:28,4,D7:F2:3B:06:4D:C8,57,57,23256.500612664833,-10849.652400836727,-10357.452149739254
66312,14323,29892,758,25102,9997,-467,-7425,-25844,-17648,57,-1,15087,2020-11-02 15:20:58,2020-11-02 15:21:28,4,D7:F2:3B:06:4D:C8,57,57,30176.340086771394,-12656.728430023042,5333.880521361582
66313,-15868,3036,12040,8709,-11240,26402,16133,-6130,23320,57,-1,15113,2020-11-02 15:20:58,2020-11-02 15:21:28,4,D7:F2:3B:06:4D:C8,57,57,-4874.994482256117,13037.616453282417,-14568.023407966917
66314,9208,6369,8969,-22271,-17893,25895,5899,17,-9440,57,-1,15139,2020-11-02 15:20:58,2020-11-02 15:21:28,4,D7:F2:3B:06:4D:C8,57,57,1520.0507996645547,-9966.728739695256,10205.300083572838
66315,17950,29415,-22286,5367,19745,14882,-27375,12305,6187,57,-1,15164,2020-11-02 15:20:58,2020-11-02 15:21:28,4,D7:F2:3B:06:4D:C8,57,57,16044.24792170233,20617.980491508286,-31647.93058129922
66316,-20943,31706,-31235,5349,-22515,-3308,-29677,-13296,28466,57,-1,15190,2020-11-02 15:20:58,2020-11-02 15:21:28,4,D7:F2:3B:06:4D:C8,57,57,36582.02920787087,-17227.15807824821,-28008.660688821397
66317,-191,-7973,-17650,12248,19702,31240,24335,-19698,7988,57,-1,15215,2020-11-02 15:20:58,2020-11-02 15:21:28,4,D7:F2:3B:06:4D:C8,57,57,5617.112342949542,-6328.728122947376,-17421.91032213456
66318,14647,-30257,-11958,5328,249,19192,11527,6925,-20174,57,-1,15241,2020-11-02 15:20:58,2020-11-02 15:21:28,4,D7:F2:3B:06:4D:C8,57,57,14250.620433539938,-21670.55393512512,-24501.455699692768
66319,-28137,-20525,28232,-18984,-26364,-1565,6398,-12020,-22994,57,-1,15267,2020-11-02 15:20:58,2020-11-02 15:21:28,4,D7:F2:3B:06:4D:C8,57,57,17518.990656117723,33026.70926198541,-24745.376532094786
66320,20241,-18717,25914,-13853,1557,29141,2805,-15604,-30937,57,-1,15292,2020-11-02 15:20:58,2020-11-02 15:21:28,4,D7:F2:3B:06:4D:C8,57,57,8874.750936938919,-35982.18732719676,7621.060094095974
66321,-25604,-27163,1327,26610,-23011,-305,21741,12811,10014,57,-1,15318,2020-11-02 15:20:58,2020-11-02 15:21:28,4,D7:F2:3B:06:4D:C8,57,57,-19242.30280903008,19455.886687149585,25423.54361261208
66322,13027,9187,-29667,31994,22567,24022,7912,-24568,-10220,57,-1,15343,2020-11-02 15:20:58,2020-11-02 15:21:28,4,D7:F2:3B:06:4D:C8,57,57,17189.292681149742,28619.877764360404,-4434.568848810564
66323,3804,5867,-22484,20491,-5343,-21785,2278,-16122,12813,57,-1,15369,2020-11-02 15:20:58,2020-11-02 15:21:28,4,D7:F2:3B:06:4D:C8,57,57,-13184.051822320595,14709.289749650961,12815.612884570843
66324,-27159,29151,10781,10014,-7921,-3849,-12568,28422,29449,57,-1,15395,2020-11-02 15:20:58,2020-11-02 15:21:28,4,D7:F2:3B:06:4D:C8,57,57,9456.868705770135,-40175.89379857842,-295.3553235904292
66325,980,-15671,1269,-11994,-499,-21499,-27411,-12025,6151,57,-1,15420,2020-11-02 15:20:58,2020-11-02 15:21:28,4,D7:F2:3B:06:4D:C8,57,57,-1797.4027259913714,14381.586918431374,6171.734209134609
66326,-18974,-814,-11807,-19939,10000,-2294,3826,23306,-26874,57,-1,15446,2020-11-02 15:20:58,2020-11-02 15:21:28,4,D7:F2:3B:06:4D:C8,57,57,-13331.280357018166,16680.56704268815,-6642.000314435964
66327,29120,23240,-6674,-15325,24849,-27651,-24331,21772,13317,57,1,15471,2020-11-02 15:20:58,2020-11-02 15:21:28,4,D7:F2:3B:06:4D:C8,57,57,19927.9172815521,-19177.428037521702,-25840.252372709005
66328,-30485,-583,17109,28954,5633,10786,27644,22798,-5368,57,1,15497,2020-11-02 15:20:58,2020-11-02 15:21:28,4,D7:F2:3B:06:4D:C8,57,57,28664.013963045818,13329.20812318683,14936.515970435823
66329,-22813,26567,30440,26889,2832,-737,12546,27920,5903,57,1,15522,2020-11-02 15:20:58,2020-11-02 15:21:28,4,D7:F2:3B:06:4D:C8,57,57,35952.75408659687,-15697.85506965209,-24775.166554453077
66330,2808,6104,-5126,-28931,-22251,14367,24839,12818,-29674,57,1,15548,2020-11-02 15:20:58,2020-11-02 15:21:28,4,D7:F2:3B:06:4D:C8,57,57,6887.202808636857,-4459.192517692426,-2025.2396309722178
66331,-14355,3293,30718,-12556,-16357,6946,-1524,4628,-24801,57,1,15574,2020-11-02 15:20:58,2020-11-02 15:21:28,4,D7:F2:3B:06:4D:C8,57,57,6890.903560448142,-13016.348263649183,30718.0
66332,-21223,-18718,22021,31725,-4585,-25304,1043,2067,-28630,57,1,15599,2020-11-02 15:20:58,2020-11-02 15:21:28,4,D7:F2:3B:06:4D:C8,57,57,28038.107672762235,-3826.718062595073,22021.0
66333,19254,-23056,-24814,3814,-15601,19734,-9452,18193,12338,57,1,15625,2020-11-02 15:20:58,2020-11-02 15:21:28,4,D7:F2:3B:06:4D:C8,57,57,37893.98147640819,-2689.9852870375644,-8651.034332445708
66334,12862,6144,7447,-14365,-30463,-17399,-31214,-8689,8245,57,1,15650,2020-11-02 15:20:58,2020-11-02 15:21:28,4,D7:F2:3B:06:4D:C8,57,57,4658.22596106592,-2736.4803054816352,15147.6135227092
66335,-23765,21486,-16597,28125,-9227,-516,4365,27662,25396,57,1,15676,2020-11-02 15:20:58,2020-11-02 15:21:28,4,D7:F2:3B:06:4D:C8,57,57,-2103.1268436871396,-35306.168233938675,-7136.8881255195465
66336,1566,-31279,8995,13523,-6411,31224,-26363,-5876,20530,57,1,15702,2020-11-02 15:20:58,2020-11-02 15:21:28,4,D7:F2:3B:06:4D:C8,57,57,-27380.1409768682,-9872.796702929845,-14649.026839672339
66337,-15829,9433,-23741,-28463,7168,20461,-30724,10764,-28369,57,1,15753,2020-11-02 15:20:58,2020-11-02 15:21:28,4,D7:F2:3B:06:4D:C8,57,57,-14935.181089110232,-21630.47849446987,14568.341598677605
66338,-19691,27879,-5816,-1565,6918,-29985,-23820,-23286,-12758,57,1,15755,2020-11-02 15:20:58,2020-11-02 15:21:28,4,D7:F2:3B:06:4D:C8,57,57,-25766.10022537751,-23087.238919415096,-1373.8472453827685
66339,-13548,13793,13361,-6408,-25073,3544,-6161,-27128,-21212,57,1,15778,2020-11-02 15:20:58,2020-11-02 15:21:28,4,D7:F2:3B:06:4D:C8,57,57,-2841.4741117668746,-19289.310220013853,13120.975958678828
66340,-6170,17122,5130,-10238,-4581,-14895,30189,-3835,3613,57,1,15804,2020-11-02 15:20:58,2020-11-02 15:21:28,4,D7:F2:3B:06:4D:C8,57,57,-6170.0,9776.14546852326,-14963.514419355906
66341,2262,12256,32542,-28659,-4573,-23586,-12308,5125,-19692,57,1,15830,2020-11-02 15:20:58,2020-11-02 15:21:28,4,D7:F2:3B:06:4D:C8,57,57,1216.6746115652168,-24564.190322206014,-24686.599618092663
66342,-21788,17111,-12045,-20202,16148,21745,-32274,-25339,32015,57,1,15855,2020-11-02 15:20:58,2020-11-02 15:21:28,4,D7:F2:3B:06:4D:C8,57,57,22558.93475024683,-18431.514197906872,7997.439421868927
66343,-12861,-20018,25838,-19937,6152,-21501,-11791,-9210,11789,57,1,15881,2020-11-02 15:20:58,2020-11-02 15:21:28,4,D7:F2:3B:06:4D:C8,57,57,-23437.748094066283,-25262.64609633462,-6796.952662071566
66344,-29725,16839,14268,-31459,-8449,-26606,13047,29192,3599,57,1,15906,2020-11-02 15:20:58,2020-11-02 15:21:28,4,D7:F2:3B:06:4D:C8,57,57,-17420.88778570637,-19981.35226656616,-25844.95309257144
66345,-22621,-12336,9977,28949,-15344,-27128,-25095,30474,27918,57,1,15932,2020-11-02 15:20:58,2020-11-02 15:21:28,4,D7:F2:3B:06:4D:C8,57,57,-5356.999083119925,-6986.864613961688,-26189.947493067302
66346,5108,-4917,-31759,-15084,22014,22572,11264,-25333,-7916,57,1,15957,2020-11-02 15:20:58,2020-11-02 15:21:28,4,D7:F2:3B:06:4D:C8,57,57,9739.85034733645,29375.79375939052,10054.883898745087
66347,29414,10445,-11,-5887,16918,26410,20997,-31219,19484,57,1,15983,2020-11-02 15:20:58,2020-11-02 15:21:28,4,D7:F2:3B:06:4D:C8,57,57,-8210.7580405154,11613.847162720984,-27784.59192576111
66348,23284,-4397,15108,30973,-16868,6954,20490,27919,28197,57,1,16009,2020-11-02 15:20:58,2020-11-02 15:21:28,4,D7:F2:3B:06:4D:C8,57,57,3923.142888600378,1144.4897156194074,27803.399471403955
66349,28203,16590,-19455,6134,14867,10284,12047,-19954,4399,57,1,16034,2020-11-02 15:20:58,2020-11-02 15:21:28,4,D7:F2:3B:06:4D:C8,57,57,-31192.115057447987,10786.505420576545,-18969.38567942566
66350,-7588,-27936,9990,-16661,1281,-25058,-7665,-30197,-972,57,1,16060,2020-11-02 15:20:58,2020-11-02 15:21:28,4,D7:F2:3B:06:4D:C8,57,57,25565.232874427016,-6687.590078501467,15475.559667367275
66351,-28072,18911,24072,-29732,30714,-19194,2316,26633,-22474,57,-1,16085,2020-11-02 15:20:58,2020-11-02 15:21:28,4,D7:F2:3B:06:4D:C8,57,57,2538.7007406195025,-18740.28196651065,-36979.468889713025
66352,26689,-11827,-2776,-30253,14080,-10510,-5372,-20728,31541,57,-1,16111,2020-11-02 15:20:58,2020-11-02 15:21:28,4,D7:F2:3B:06:4D:C8,57,57,-18724.969640024116,21606.08020466637,6514.571065672633
66353,13333,-30272,7224,213,-3580,-10782,20220,-14328,-32719,57,-1,16137,2020-11-02 15:20:58,2020-11-02 15:21:28,4,D7:F2:3B:06:4D:C8,57,57,-26387.82144007088,12852.186760636952,16877.59532980465
66354,-17911,-9258,9777,-29477,-27382,10720,14836,-4601,13612,57,-1,16162,2020-11-02 15:20:58,2020-11-02 15:21:28,4,D7:F2:3B:06:4D:C8,57,57,12034.204079207235,-14190.080892584316,-12486.943198473573
66355,-9727,31962,28226,10470,-26093,-10532,-24339,23046,23590,57,-1,16188,2020-11-02 15:20:58,2020-11-02 15:21:28,4,D7:F2:3B:06:4D:C8,57,57,-33294.18589624883,26093.94650641914,-11112.793988289444
66356,4582,-3356,-22498,18170,-24539,6357,-2583,9476,3103,57,-1,16213,2020-11-02 15:20:58,2020-11-02 15:21:28,4,D7:F2:3B:06:4D:C8,57,57,-16455.749050720242,-3356.0,-16011.34132981119
66357,5598,-16670,25379,15890,13873,28633,-16151,-22782,-18923,57,-1,16239,2020-11-02 15:20:58,2020-11-02 15:21:28,4,D7:F2:3B:06:4D:C8,57,57,10364.304907048947,-28840.235119635876,-3760.6072698225707
66358,-31514,-11559,21259,15125,21027,-28434,2028,22019,-28146,57,-1,16264,2020-11-02 15:20:58,2020-11-02 15:21:28,4,D7:F2:3B:06:4D:C8,57,57,-13605.877993921553,33437.12340950924,-16598.994551230215
66359,-24617,-4147,1014,12062,-8690,-8196,18415,1797,-28662,57,-1,16290,2020-11-02 15:20:58,2020-11-02 15:21:28,4,D7:F2:3B:06:4D:C8,57,57,-10782.55662945644,-22481.854919337253,-1589.077064977121
66360,27303,15039,28885,-15844,2311,-18670,-13837,20743,-21238,57,-1,16316,2020-11-02 15:20:58,2020-11-02 15:21:28,4,D7:F2:3B:06:4D:C8,57,57,33172.43566470569,-15480.248146611812,21585.179739587144
66361,-29154,31194,-13579,17428,9485,-30457,-28169,-3063,-3060,57,-1,16341,2020-11-02 15:20:58,2020-11-02 15:21:28,4,D7:F2:3B:06:4D:C8,57,57,-29154.0,-10113.138025433154,32483.5237663425
66362,27852,9912,13271,21518,27644,23603,-7173,-26612,-24048,57,-1,16367,2020-11-02 15:20:58,2020-11-02 15:21:28,4,D7:F2:3B:06:4D:C8,57,57,-25.679876035217603,-25248.01401577737,-20313.49841369222
66363,30717,21205,18431,-19958,27657,26664,2818,19725,25113,57,-1,16392,2020-11-02 15:20:58,2020-11-02 15:21:28,4,D7:F2:3B:06:4D:C8,57,57,34224.92179100792,7185.117491008823,-22581.33499241775
66364,21762,-27938,19213,-6136,-17134,29988,-31993,-27634,-23520,57,-1,16418,2020-11-02 15:20:58,2020-11-02 15:21:28,4,D7:F2:3B:06:4D:C8,57,57,39795.2887998789,-5765.232794125008,-2520.503355240397
66365,-7398,11483,31732,-27905,-25064,-3035,-5108,1039,-8152,57,-1,16444,2020-11-02 15:20:58,2020-11-02 15:21:28,4,D7:F2:3B:06:4D:C8,57,57,5665.454859736577,12429.493723892667,31732.0
66366,20290,12000,12280,32758,-28407,3867,784,24846,-15057,57,-1,16469,2020-11-02 15:20:58,2020-11-02 15:21:28,4,D7:F2:3B:06:4D:C8,57,57,20298.162064973665,15516.317722241634,7328.778965592708
66367,3888,26342,6649,32488,-767,-23797,-14578,-14324,25650,57,-1,16495,2020-11-02 15:20:58,2020-11-02 15:21:28,4,D7:F2:3B:06:4D:C8,57,57,-18544.03742206994,-13949.424618721707,14654.655843637896
66368,16425,24277,26909,11736,-24578,31742,-23543,780,-7630,57,-1,16520,2020-11-02 15:20:58,2020-11-02 15:21:28,4,D7:F2:3B:06:4D:C8,57,57,-21614.809071774678,-33398.098912222544,783.9979847716386
66369,-12479,-30275,-7099,7379,32261,-27419,-27903,-9461,31536,57,-1,16546,2020-11-02 15:20:58,2020-11-02 15:21:28,4,D7:F2:3B:06:4D:C8,57,57,26576.90007875964,-1140.910250176512,-20373.1090657432
66370,31763,-14638,-22711,16601,13327,6620,23031,-31476,-21719,57,-1,16571,2020-11-02 15:20:58,2020-11-02 15:21:28,4,D7:F2:3B:06:4D:C8,57,57,-34604.489732521746,2763.9808262911574,-23104.943937254902
66371,6410,-10258,24133,-23321,14357,-23592,-25618,-32757,-15327,57,-1,16597,2020-11-02 15:20:58,2020-11-02 15:21:28,4,D7:F2:3B:06:4D:C8,57,57,-1874.3096257419547,23680.42376208039,-12823.449102138995
66372,5112,23779,13893,23290,3865,-20265,-7191,-26616,-1766,57,-1,16623,2020-11-02 15:20:58,2020-11-02 15:21:28,4,D7:F2:3B:06:4D:C8,57,57,-12803.666194291181,24538.404923174603,4303.678637106354
66373,21727,14043,26948,-25587,15135,32481,-6424,29958,-19181,57,-1,16648,2020-11-02 15:20:58,2020-11-02 15:21:28,4,D7:F2:3B:06:4D:C8,57,57,773.6051429006129,-30459.07349748152,21612.715210215873
66374,-3114,-9263,22288,-20196,-5353,-3341,-30997,-26106,-1523,57,-1,16674,2020-11-02 15:20:58,2020-11-02 15:21:28,4,D7:F2:3B:06:4D:C8,57,57,97.84055298717976,-24000.067057637894,4030.1758590755644
66375,-30500,27345,1527,-7653,27409,-3588,-9746,14600,2827,57,-1,16699,2020-11-02 15:20:58,2020-11-02 15:21:28,4,D7:F2:3B:06:4D:C8,57,57,-7480.26894900935,16059.49274776594,36965.78178714661
66376,17373,-14639,20957,4379,-26615,-12278,-18702,-21494,17418,57,-1,16725,2020-11-02 15:20:58,2020-11-02 15:21:28,4,D7:F2:3B:06:4D:C8,57,57,11954.543092057727,-19330.426695012957,20946.140509622892
66377,-12003,27855,-8500,16406,22273,-6896,2039,-8180,-3573,57,-1,16751,2020-11-02 15:20:58,2020-11-02 15:21:28,4,D7:F2:3B:06:4D:C8,57,57,667.254793531838,27855.0,-14692.745830528369
66378,27071,26560,1754,30236,23802,-27361,9979,-23283,-4852,57,1,16776,2020-11-02 15:20:58,2020-11-02 15:21:28,4,D7:F2:3B:06:4D:C8,57,57,-63.437940782211854,12874.489136504742,-35715.44010790979
66379,15358,-22062,11782,27149,1,-12502,12802,-7668,16405,57,1,16802,2020-11-02 15:20:58,2020-11-02 15:21:28,4,D7:F2:3B:06:4D:C8,57,57,-10801.612265532483,27284.093056630256,-564.7747712486421
66380,7419,-4140,-1012,-31992,-14322,5415,-17657,-12787,19740,57,1,16827,2020-11-02 15:20:58,2020-11-02 15:21:28,4,D7:F2:3B:06:4D:C8,57,57,3926.0718125611797,-4555.390863150791,6086.02326700571
66381,19193,20182,-15106,8703,20766,-9691,22797,-242,-31196,57,1,16853,2020-11-02 15:20:58,2020-11-02 15:21:28,4,D7:F2:3B:06:4D:C8,57,57,22559.467425286093,13341.754406781714,17802.910656310567
66382,12082,1495,32488,-5905,24603,-10976,-6383,12559,3374,57,1,16879,2020-11-02 15:20:58,2020-11-02 15:21:28,4,D7:F2:3B:06:4D:C8,57,57,9789.426644136114,28145.46130171181,-17767.38661404431
66383,-4537,2273,-20483,-16165,10505,-14837,-31216,8974,1587,57,1,16904,2020-11-02 15:20:58,2020-11-02 15:21:28,4,D7:F2:3B:06:4D:C8,57,57,-5506.410986725961,20286.410065482978,1856.1227600389238
66384,29259,8147,13121,-2355,3583,-9219,-32247,-32755,29747,57,1,16930,2020-11-02 15:20:58,2020-11-02 15:21:28,4,D7:F2:3B:06:4D:C8,57,57,-4357.407728876372,-21478.455181160018,-24785.324123666986
66385,9273,29911,-28597,-22568,9476,8170,-10240,-19955,-16336,57,1,16955,2020-11-02 15:20:58,2020-11-02 15:21:28,4,D7:F2:3B:06:4D:C8,57,57,-5750.96107647297,6423.76473481886,41522.36207549603
66386,-9462,-1327,19244,23264,22279,3552,1272,-29939,-10198,57,1,16981,2020-11-02 15:20:58,2020-11-02 15:21:28,4,D7:F2:3B:06:4D:C8,57,57,7403.67988084574,-13986.580694663826,14532.136583916943
66387,27916,-3095,-8140,-19736,-3321,13539,-5904,-9973,29477,57,1,17007,2020-11-02 15:20:58,2020-11-02 15:21:28,4,D7:F2:3B:06:4D:C8,57,57,-3465.1242924421313,-18328.201363041655,22521.359404656847
66388,-9710,11494,-21696,29179,20748,18905,-12052,4873,29984,57,1,17032,2020-11-02 15:20:58,2020-11-02 15:21:28,4,D7:F2:3B:06:4D:C8,57,57,-26258.848748242664,2358.2233092593024,-1422.7428582075845
66389,-19753,32733,-6618,-31738,19745,30166,5355,10502,12313,57,1,17058,2020-11-02 15:20:58,2020-11-02 15:21:28,4,D7:F2:3B:06:4D:C8,57,57,-23005.206121458195,-28390.03984312463,13045.85570267503
66390,29137,-5913,27673,27155,2342,32232,18155,-5883,20497,57,1,17083,2020-11-02 15:20:58,2020-11-02 15:21:28,4,D7:F2:3B:06:4D:C8,57,57,-39377.65143334244,3644.8385727013356,9264.933155351539
66391,-24602,-15654,-31496,-6630,-11235,15602,3565,26375,29451,57,1,17109,2020-11-02 15:20:58,2020-11-02 15:21:28,4,D7:F2:3B:06:4D:C8,57,57,-3688.002745449774,-42718.01199929348,1968.304493154672
66392,212,15309,-26401,-31709,-17405,19982,13809,27657,-22263,57,1,17134,2020-11-02 15:20:58,2020-11-02 15:21:28,4,D7:F2:3B:06:4D:C8,57,57,21287.054008360334,-14779.445563413366,-16119.942508683183
66393,12552,-19511,16860,-28387,-15872,21781,31734,18187,25355,57,1,17160,2020-11-02 15:20:58,2020-11-02 15:21:28,4,D7:F2:3B:06:4D:C8,57,57,14002.491760208692,-54.78469375338136,-25028.356880598814
66394,9422,-29762,32495,29210,18433,-13534,31227,-6388,-24051,57,1,17186,2020-11-02 15:20:58,2020-11-02 15:21:28,4,D7:F2:3B:06:4D:C8,57,57,246.76663800085225,-35041.48624376948,28328.59158260579
66395,9733,-24641,31743,1291,4,29488,-23806,8205,10006,57,-1,17211,2020-11-02 15:20:58,2020-11-02 15:21:28,4,D7:F2:3B:06:4D:C8,57,57,-8408.75003191338,-27748.2960083383,-29476.31609503524
66396,-28681,21965,-17147,-11771,-22506,-31707,6408,4623,-28643,57,-1,17237,2020-11-02 15:20:58,2020-11-02 15:21:28,4,D7:F2:3B:06:4D:C8,57,57,-1154.0610846540621,-38894.35466791689,9218.346542584455
66397,-18691,-18729,-8457,4604,-22500,23075,-19443,14096,7718,57,-1,17262,2020-11-02 15:20:58,2020-11-02 15:21:28,4,D7:F2:3B:06:4D:C8,57,57,-4983.539919714058,24346.765086371044,12411.653020354723
66398,-16342,-17960,9704,-21772,-14059,-31709,-21230,-2545,22575,57,-1,17288,2020-11-02 15:20:58,2020-11-02 15:21:28,4,D7:F2:3B:06:4D:C8,57,57,13476.0524364457,-21264.236343095825,-7072.371842255508
66399,-32187,17639,-3849,13533,20233,-26100,-11247,19470,10548,57,-1,17314,2020-11-02 15:20:58,2020-11-02 15:21:28,4,D7:F2:3B:06:4D:C8,57,57,10632.213859082276,28203.229662120924,21295.209697967315
66400,-21934,17115,-5596,10705,4095,2049,-14069,-20467,16181,57,-1,17339,2020-11-02 15:20:58,2020-11-02 15:21:28,4,D7:F2:3B:06:4D:C8,57,57,1289.6329752176289,26524.58361498439,10006.103529393093
66401,-13757,28119,7986,9434,-19966,21740,-29437,16398,-4046,57,-1,17365,2020-11-02 15:20:58,2020-11-02 15:21:28,4,D7:F2:3B:06:4D:C8,57,57,32303.07557777377,318.3277355806349,345.5165255036218
66402,-24300,18648,16181,-7975,29192,-7460,-12807,-1523,-7380,57,-1,17390,2020-11-02 15:20:58,2020-11-02 15:21:28,4,D7:F2:3B:06:4D:C8,57,57,-7278.568440422332,24204.48602024051,-23690.250377614626
66403,24076,15586,-31674,6376,-506,-24865,-13583,25868,-7130,57,-1,17416,2020-11-02 15:20:58,2020-11-02 15:21:28,4,D7:F2:3B:06:4D:C8,57,57,-37790.583856125704,-6454.667026114878,18868.717322465694
66404,11779,21217,-23244,20214,22302,-3884,13804,7690,-10721,57,-1,17441,2020-11-02 15:20:58,2020-11-02 15:21:28,4,D7:F2:3B:06:4D:C8,57,57,26963.134539814222,-19215.859906294132,5738.429214476317
66405,-11550,21222,-31972,6659,-28122,-5925,-32024,5128,-14058,57,-1,17467,2020-11-02 15:20:58,2020-11-02 15:21:28,4,D7:F2:3B:06:4D:C8,57,57,38158.257844188105,-4761.300496717497,11281.043563270854
66406,-2591,29157,-19685,-3308,-9187,-17175,20456,-3834,-7921,57,-1,17493,2020-11-02 15:20:58,2020-11-02 15:21:28,4,D7:F2:3B:06:4D:C8,57,57,-23351.59888969433,-11914.757498261934,23602.638370581317
66407,-16143,-16165,21518,24343,-6883,31220,21994,31495,-11766,57,-1,17518,2020-11-02 15:20:58,2020-11-02 15:21:28,4,D7:F2:3B:06:4D:C8,57,57,4284.887394377849,-21796.08372714586,-22169.764820059532
66408,-24609,-3637,1773,-30688,-14581,27912,-19987,-24823,-13561,57,-1,17544,2020-11-02 15:20:58,2020-11-02 15:21:28,4,D7:F2:3B:06:4D:C8,57,57,-2801.2486016663474,-15374.324800605396,19435.98009355721
66409,20236,28361,2520,11030,-1019,3601,10226,12812,2569,57,-1,17569,2020-11-02 15:20:58,2020-11-02 15:21:28,4,D7:F2:3B:06:4D:C8,57,57,14517.262713051181,13203.006815010413,-28898.479395342627
66410,16577,-31811,-22830,-3304,30212,-25831,-25867,28430,3593,57,-1,17595,2020-11-02 15:20:58,2020-11-02 15:21:28,4,D7:F2:3B:06:4D:C8,57,57,-3909.223900519097,38070.85819117236,18527.63544231305
66411,-5915,5819,-30996,-17916,4359,-27346,-1541,-1008,-18416,57,1,17621,2020-11-02 15:20:58,2020-11-02 15:21:28,4,D7:F2:3B:06:4D:C8,57,57,6676.982944292002,-4926.041490043877,-30996.0
66412,28672,-22063,18680,-22526,3343,-18646,-510,26643,-5607,57,1,17646,2020-11-02 15:20:58,2020-11-02 15:21:28,4,D7:F2:3B:06:4D:C8,57,57,-32878.34050975358,-22063.0,9488.978307736645
66413,-9196,-14624,21978,-24069,-28649,-29153,-31990,1557,-26333,57,1,17672,2020-11-02 15:20:58,2020-11-02 15:21:28,4,D7:F2:3B:06:4D:C8,57,57,25100.12470132509,9527.63295391685,-7788.98108056295
66414,21282,-31014,-32539,-24338,-28408,16663,13839,8469,-12757,57,1,17697,2020-11-02 15:20:58,2020-11-02 15:21:28,4,D7:F2:3B:06:4D:C8,57,57,38988.0924837277,-16922.475841194762,-25828.98946696282
66415,4660,-1834,-15604,31707,-28425,-4848,6669,-25070,-9170,57,1,17723,2020-11-02 15:20:58,2020-11-02 15:21:28,4,D7:F2:3B:06:4D:C8,57,57,4490.757187586394,15473.85020201852,2992.830066614636
66416,29519,-12070,9803,-7726,31993,-4348,-16378,24336,-17105,57,1,17748,2020-11-02 15:20:58,2020-11-02 15:21:28,4,D7:F2:3B:06:4D:C8,57,57,22873.900022822807,16490.437598573724,17832.701297152176
66417,30775,23021,18751,15331,-32515,9715,-1537,31759,-723,57,1,17774,2020-11-02 15:20:58,2020-11-02 15:21:28,4,D7:F2:3B:06:4D:C8,57,57,-9251.085316577719,23021.0,34829.844192379045
66418,-18656,5348,-27360,-19233,-20726,2533,31992,6671,-29399,57,1,17800,2020-11-02 15:20:58,2020-11-02 15:21:28,4,D7:F2:3B:06:4D:C8,57,57,17767.907390127417,-27078.21300898124,8734.350989975992
66419,22790,-24,-26828,-19990,9225,23007,22768,-3571,2851,57,1,17825,2020-11-02 15:20:58,2020-11-02 15:21:28,4,D7:F2:3B:06:4D:C8,57,57,22790.0,3809.7273961485284,26556.131818603313
66420,-5630,18665,7739,-1544,-19694,9177,-30485,2571,17693,57,1,17851,2020-11-02 15:20:58,2020-11-02 15:21:28,4,D7:F2:3B:06:4D:C8,57,57,5873.7579582952085,1310.7730654390061,20093.58323988739
66421,29417,-29722,-20700,-6905,3107,-21028,-6168,-24312,-21995,57,-1,17876,2020-11-02 15:20:58,2020-11-02 15:21:28,4,D7:F2:3B:06:4D:C8,57,57,3952.6944006947087,34379.168431169324,-31300.098369749692
66422,-17187,4826,-20973,-6124,-27355,-20250,-31512,-23801,-10227,57,-1,17902,2020-11-02 15:20:58,2020-11-02 15:21:28,4,D7:F2:3B:06:4D:C8,57,57,23604.688529987354,2994.271907731305,13870.940456394968
66423,-15403,-23087,15109,11547,14622,8437,14058,22536,8,57,-1,17928,2020-11-02 15:20:58,2020-11-02 15:21:28,4,D7:F2:3B:06:4D:C8,57,57,11399.028317031118,-4130.99280654535,29181.17391161283
66424,16594,10705,-29729,30238,13575,-1776,3822,-11766,17926,57,-1,17953,2020-11-02 15:20:58,2020-11-02 15:21:28,4,D7:F2:3B:06:4D:C8,57,57,-21436.231636111734,-7757.552552277875,27460.51080445536
66425,-3085,31176,-6949,-24039,29950,-19420,-6669,12046,-14327,57,-1,17979,2020-11-02 15:20:58,2020-11-02 15:21:28,4,D7:F2:3B:06:4D:C8,57,57,20812.95944498851,19051.17847205395,15284.702155004907
66426,-17250,-12859,-19744,20497,7435,-19948,6136,-24560,-8949,57,-1,18005,2020-11-02 15:20:58,2020-11-02 15:21:28,4,D7:F2:3B:06:4D:C8,57,57,5439.400192398793,9419.094238455147,27100.470591375957
66427,29166,-22857,-13857,-26363,7428,-19657,1025,30738,-12523,57,-1,18030,2020-11-02 15:20:58,2020-11-02 15:21:28,4,D7:F2:3B:06:4D:C8,57,57,-29756.39691285641,-10093.589030534793,24037.278490861172
66428,23799,-27698,237,17919,-10218,-11738,9481,-31212,-32480,57,-1,18056,2020-11-02 15:20:58,2020-11-02 15:21:28,4,D7:F2:3B:06:4D:C8,57,57,10151.852435220439,-19142.009180875317,-29396.447925774875
66429,-22499,4827,24031,-6923,-14572,-27873,31248,24596,-16598,57,-1,18081,2020-11-02 15:20:58,2020-11-02 15:21:28,4,D7:F2:3B:06:4D:C8,57,57,16767.897356047437,-22026.217405815645,-18457.444461484945
66430,15921,29403,6894,2277,30722,-31723,19474,-1518,7729,57,-1,18107,2020-11-02 15:20:58,2020-11-02 15:21:28,4,D7:F2:3B:06:4D:C8,57,57,33914.97243251279,-2856.1148894393828,-2675.656674579195
66431,-13023,25548,-17885,-22319,14838,-28923,-9204,-8944,-9935,57,1,18132,2020-11-02 15:20:58,2020-11-02 15:21:28,4,D7:F2:3B:06:4D:C8,57,57,9317.115250852,-16816.784418629824,-27794.948879601674
66432,3123,-8744,23388,-21295,-519,13563,-12540,14351,10545,57,1,18158,2020-11-02 15:20:58,2020-11-02 15:21:28,4,D7:F2:3B:06:4D:C8,57,57,-22534.854928666373,10999.41555587155,-2098.184875841944
66433,18201,30445,-4804,2531,-18942,-3344,-9219,-19698,-14290,57,1,18183,2020-11-02 15:20:58,2020-11-02 15:21:28,4,D7:F2:3B:06:4D:C8,57,57,17123.28703228067,7600.883794664328,30500.368010077153
66434,18449,-22547,-17895,-25885,-5356,-4893,23542,25359,-7895,57,1,18209,2020-11-02 15:20:58,2020-11-02 15:21:28,4,D7:F2:3B:06:4D:C8,57,57,-17270.481887653972,29108.392278499457,-4836.919404870157
66435,-24550,-19219,-1243,11499,30727,-16158,-4882,27406,-10973,57,1,18235,2020-11-02 15:20:58,2020-11-02 15:21:28,4,D7:F2:3B:06:4D:C8,57,57,-6993.760936119664,-24678.689971807245,-17767.022239076166
66436,30215,20716,1856,11770,-9204,-20263,10730,-1014,28446,57,1,18260,2020-11-02 15:20:58,2020-11-02 15:21:28,4,D7:F2:3B:06:4D:C8,57,57,-12460.976955872438,-29162.115664121422,18434.714000971653
66437,-27923,9192,32334,-8186,7183,-16672,-8216,28935,26393,57,1,18286,2020-11-02 15:20:58,2020-11-02 15:21:28,4,D7:F2:3B:06:4D:C8,57,57,35629.173922097354,-7971.215081133946,-24014.496554357334
66438,-11809,8929,8736,-9963,-26597,-25368,3306,-2299,-18413,57,1,18311,2020-11-02 15:20:58,2020-11-02 15:21:28,4,D7:F2:3B:06:4D:C8,57,57,12950.881944321214,-7173.156826966406,8736.0
66439,-536,-18729,-17654,10011,21532,1773,27372,11526,23310,57,1,18337,2020-11-02 15:20:58,2020-11-02 15:21:28,4,D7:F2:3B:06:4D:C8,57,57,-16275.31328921955,-17132.727184565858,-10213.240893907845
66440,-19247,-26421,26884,-14297,-18926,20740,20208,8712,-20214,57,1,18363,2020-11-02 15:20:58,2020-11-02 15:21:28,4,D7:F2:3B:06:4D:C8,57,57,38728.599071761346,-17068.150820201852,-198.86557673306015
66441,-22526,-32316,-21021,-20445,-17919,-30953,-17674,-17910,23820,57,-1,18388,2020-11-02 15:20:58,2020-11-02 15:21:28,4,D7:F2:3B:06:4D:C8,57,57,9730.692223879983,-33140.23266376775,-28296.034719293482
66442,-9848,-8767,23535,-23784,787,-17140,-19462,24845,16140,57,-1,18414,2020-11-02 15:20:58,2020-11-02 15:21:28,4,D7:F2:3B:06:4D:C8,57,57,-20539.130647054462,16041.585452402695,6967.873882074091
66443,-18958,-5709,13275,12305,8967,11061,15619,4367,-3564,57,-1,18439,2020-11-02 15:20:58,2020-11-02 15:21:28,4,D7:F2:3B:06:4D:C8,57,57,-18958.0,-9695.14105126329,-10715.528264911132
66444,13545,-15927,-9995,5380,-21984,30498,-503,-7919,-13539,57,-1,18465,2020-11-02 15:20:58,2020-11-02 15:21:28,4,D7:F2:3B:06:4D:C8,57,57,-21027.91094008545,-7674.275108847348,5997.4029420709
66445,32528,-24363,4059,4599,24091,15906,-21744,9746,-14041,57,-1,18491,2020-11-02 15:20:58,2020-11-02 15:21:28,4,D7:F2:3B:06:4D:C8,57,57,15341.802022234428,-25812.360595676404,-27684.89091886287
66446,-1994,8153,-1038,23514,30732,19481,-7919,8209,18735,57,-1,18516,2020-11-02 15:20:58,2020-11-02 15:21:28,4,D7:F2:3B:06:4D:C8,57,57,6750.548935447255,-4529.605378919368,-2331.877608579979
66447,1365,15570,7995,-2357,29950,-25081,6668,17935,-19919,57,-1,18542,2020-11-02 15:20:58,2020-11-02 15:21:28,4,D7:F2:3B:06:4D:C8,57,57,-858.3115307099749,-1824.328280427757,-17439.704058311363
66448,19000,-21022,-1715,-5417,-3842,-5386,8452,-6130,-20176,57,-1,18567,2020-11-02 15:20:58,2020-11-02 15:21:28,4,D7:F2:3B:06:4D:C8,57,57,-27070.30606149138,6156.562344021117,5929.669370324467
66449,-3036,-541,-6356,-2077,-28925,13033,5117,-30962,24877,57,-1,18593,2020-11-02 15:20:58,2020-11-02 15:21:28,4,D7:F2:3B:06:4D:C8,57,57,4137.394023089312,5618.030993547065,1108.3372470730226
66450,18951,-24869,13090,-11544,28421,3040,-25611,-25331,-27097,57,-1,18618,2020-11-02 15:20:58,2020-11-02 15:21:28,4,D7:F2:3B:06:4D:C8,57,57,16834.824900080912,-29204.83796798631,3552.7133077805174
66451,-23550,26332,-24263,6892,-32757,28629,3311,-16886,-16863,57,-1,18644,2020-11-02 15:20:58,2020-11-02 15:21:28,4,D7:F2:3B:06:4D:C8,57,57,10684.12400701475,-39930.50546871712,-11316.983706601486
66452,-14103,17378,-199,26107,-14830,6357,13803,8967,27931,57,-1,18670,2020-11-02 15:20:58,2020-11-02 15:21:28,4,D7:F2:3B:06:4D:C8,57,57,-9092.285188527432,259.7522769743051,20449.74260975163
66453,21444,19682,-18407,26632,-29917,-16416,-5911,7941,-15597,57,-1,18695,2020-11-02 15:20:58,2020-11-02 15:21:28,4,D7:F2:3B:06:4D:C8,57,57,46.19498604454202,11766.835609839021,-32366.392365450443
66454,-30767,-5924,1813,12314,22556,-7445,-29973,12805,-17139,57,-1,18721,2020-11-02 15:20:58,2020-11-02 15:21:28,4,D7:F2:3B:06:4D:C8,57,57,-6482.043179293294,-5947.806085450169,30126.32989581803
66455,20435,25043,20719,-32483,21269,-14853,8175,-7674,3594,57,-1,18747,2020-11-02 15:20:58,2020-11-02 15:21:28,4,D7:F2:3B:06:4D:C8,57,57,-16111.071686610258,-3903.6466883789835,34629.65415133702
66456,32420,-32578,-31777,-12510,-503,-11752,-15117,11786,-15863,57,1,18772,2020-11-02 15:20:58,2020-11-02 15:21:28,4,D7:F2:3B:06:4D:C8,57,57,-24545.27823959502,-16776.39967349934,-47310.06175366795
66457,-24142,-4654,17175,-21735,-9196,527,248,30221,-28405,57,1,18798,2020-11-02 15:20:58,2020-11-02 15:21:28,4,D7:F2:3B:06:4D:C8,57,57,18763.622644290117,-14604.833786340938,-18278.451803586577
66458,-2844,-21838,-10521,-6382,-29440,4666,9729,-23793,7700,57,1,18823,2020-11-02 15:20:58,2020-11-02 15:21:28,4,D7:F2:3B:06:4D:C8,57,57,-6355.036045603125,-15349.895556788428,17879.38042144559
66459,-3598,-14912,-14331,-13301,-8676,2350,-16887,8977,-18402,57,1,18849,2020-11-02 15:20:58,2020-11-02 15:21:28,4,D7:F2:3B:06:4D:C8,57,57,-15302.50729443062,4713.237585683263,13576.066107853196
66460,-25064,209,-11543,-9723,30495,5157,18962,529,21033,57,1,18874,2020-11-02 15:20:58,2020-11-02 15:21:28,4,D7:F2:3B:06:4D:C8,57,57,24612.493663757938,-4944.840634912649,11456.977469943453
66461,-28102,19412,-11853,15596,32528,-22499,-30954,25103,28977,57,1,18900,2020-11-02 15:20:58,2020-11-02 15:21:28,4,D7:F2:3B:06:4D:C8,57,57,18115.70401484222,-1759.1649018548642,-31237.291238113325
66462,-439,15053,24834,17358,23809,-19958,27666,-13043,-19404,57,1,18926,2020-11-02 15:20:58,2020-11-02 15:21:28,4,D7:F2:3B:06:4D:C8,57,57,-23784.83112449173,-12436.10567341188,11096.763945364532
66463,-12976,5075,-21962,27089,20474,-29700,27914,-27892,30516,57,1,18951,2020-11-02 15:20:58,2020-11-02 15:21:28,4,D7:F2:3B:06:4D:C8,57,57,-14456.008679869821,-21419.563309241385,2947.5016011748903
66464,-6608,26073,-24295,-5666,9718,-19983,16643,-32245,10802,57,1,18977,2020-11-02 15:20:58,2020-11-02 15:21:28,4,D7:F2:3B:06:4D:C8,57,57,7049.722174781506,31784.652758196607,15929.57263391767
66465,20259,-31785,1071,-10538,-26874,13541,13307,-27126,23854,57,1,19002,2020-11-02 15:20:58,2020-11-02 15:21:28,4,D7:F2:3B:06:4D:C8,57,57,32446.738569066725,18821.26997873674,3850.8829660405327
66466,-15590,-8747,3142,1763,-18683,-22563,-11789,12809,29737,57,1,19028,2020-11-02 15:20:58,2020-11-02 15:21:28,4,D7:F2:3B:06:4D:C8,57,57,9784.749549406879,-10173.315718303333,11410.197042606418
66467,11754,26075,-9413,-9485,14878,-27696,19694,14855,-17119,57,1,19053,2020-11-02 15:20:58,2020-11-02 15:21:28,4,D7:F2:3B:06:4D:C8,57,57,-25147.890001039992,3889.9251484872166,-16097.168099847851
66468,3307,12767,-21928,20223,-2526,-5412,8939,3846,9497,57,1,19079,2020-11-02 15:20:58,2020-11-02 15:21:28,4,D7:F2:3B:06:4D:C8,57,57,-19544.354314538672,16479.308203377805,-1104.6889000341544
66469,14045,6615,31002,-1762,-13550,19687,15085,9733,3603,57,1,19130,2020-11-02 15:20:58,2020-11-02 15:21:28,4,D7:F2:3B:06:4D:C8,57,57,1793.8554545116658,-30942.85015020913,-15539.18791925825
66470,2997,-23857,23318,-24029,-22760,-10509,497,-2555,24334,57,1,19132,2020-11-02 15:20:58,2020-11-02 15:21:28,4,D7:F2:3B:06:4D:C8,57,57,-20014.00706228949,13325.83878450533,23318.0
66471,30112,-8775,4089,-20954,-25074,22026,14326,-29688,15629,57,1,19156,2020-11-02 15:20:58,2020-11-02 15:21:28,4,D7:F2:3B:06:4D:C8,57,57,368.94778656687777,-646.5376202343795,-31621.178925467168
66472,12520,10948,23547,-13536,18703,13067,12028,12555,-25841,57,1,19181,2020-11-02 15:20:58,2020-11-02 15:21:28,4,D7:F2:3B:06:4D:C8,57,57,22964.923195151863,13137.573171739712,-11449.313813410869
66473,-26404,20655,-14617,-27622,9991,-18897,27907,24589,3605,57,1,19207,2020-11-02 15:20:58,2020-11-02 15:21:28,4,D7:F2:3B:06:4D:C8,57,57,21858.233018994277,-24563.19106285389,-16010.12879701731
66474,-30208,-31801,27658,-13552,13346,-7901,-758,-14834,-15331,57,-1,19233,2020-11-02 15:20:58,2020-11-02 15:21:28,4,D7:F2:3B:06:4D:C8,57,57,-23682.112513346172,24671.37829282762,-38977.84587477106
66475,4913,-28198,17112,27143,-10463,-24545,-14830,29967,10535,57,-1,19258,2020-11-02 15:20:58,2020-11-02 15:21:28,4,D7:F2:3B:06:4D:C8,57,57,-31809.465378718793,976.6086515332627,9964.409910368042
66476,-30429,2536,-17722,3821,-24561,23581,-2283,-29170,28718,57,-1,19284,2020-11-02 15:20:58,2020-11-02 15:21:28,4,D7:F2:3B:06:4D:C8,57,57,-4837.185323911301,25292.389313107502,24152.045502945344
66477,-20174,19407,2305,27853,-8447,23312,13586,-5365,-14287,57,-1,19309,2020-11-02 15:20:58,2020-11-02 15:21:28,4,D7:F2:3B:06:4D:C8,57,57,-854.1110057637432,22577.250289573632,16687.516704164842
66478,-14543,28370,12370,7626,25096,19460,2826,20491,28467,57,-1,19335,2020-11-02 15:20:58,2020-11-02 15:21:28,4,D7:F2:3B:06:4D:C8,57,57,10918.642404347278,-30761.019523833857,-10193.898905732862
66479,-1716,-12074,9517,9683,28927,29943,-30462,12299,563,57,-1,19360,2020-11-02 15:20:58,2020-11-02 15:21:28,4,D7:F2:3B:06:4D:C8,57,57,-7359.033468282043,-12551.019549252082,5255.088551775013
66480,-13525,2265,30244,-17441,3077,-12820,-14598,-22773,32047,57,-1,19386,2020-11-02 15:20:58,2020-11-02 15:21:28,4,D7:F2:3B:06:4D:C8,57,57,29851.72316451001,-7287.975968527307,12590.29056025416
66481,-8653,-28197,14647,-31767,5643,19162,-7437,-32246,8490,57,-1,19412,2020-11-02 15:20:58,2020-11-02 15:21:28,4,D7:F2:3B:06:4D:C8,57,57,17515.75592633647,21893.52452586664,17272.8603642907
66482,28907,-13858,-13769,-5130,-28909,15572,-13330,-13561,-24798,57,-1,19437,2020-11-02 15:20:58,2020-11-02 15:21:28,4,D7:F2:3B:06:4D:C8,57,57,23868.97649353876,-17304.456435633183,18656.685735096882
66483,496,-5656,-9397,-24325,-4065,4830,-15125,25862,26395,57,-1,19463,2020-11-02 15:20:58,2020-11-02 15:21:28,4,D7:F2:3B:06:4D:C8,57,57,5.182463766836008,9477.43283365338,-5542.400294606854
66484,-27437,-21542,20264,-5608,19225,-28955,9964,-14587,532,57,-1,19488,2020-11-02 15:20:58,2020-11-02 15:21:28,4,D7:F2:3B:06:4D:C8,57,57,17945.014131996893,-28690.760309158683,-21961.17414176293
66485,8886,2776,-24815,18463,-13032,-5904,28911,12038,29199,57,-1,19514,2020-11-02 15:20:58,2020-11-02 15:21:28,4,D7:F2:3B:06:4D:C8,57,57,-25614.351673078283,5478.220326109457,-4042.955283758758
66486,-25692,-30774,31475,24869,4105,-1785,22516,27144,2318,57,-1,19540,2020-11-02 15:20:58,2020-11-02 15:21:28,4,D7:F2:3B:06:4D:C8,57,57,43662.05053516649,26024.276836697787,3762.4358056294077
66487,-27368,-6952,30469,16667,20752,20474,24569,-25590,11279,57,-1,19565,2020-11-02 15:20:58,2020-11-02 15:21:28,4,D7:F2:3B:06:4D:C8,57,57,-19554.109811536375,20634.61421603986,30291.041161267185
66488,9159,-20043,17626,-20962,-28411,13359,-17921,29709,17170,57,-1,19591,2020-11-02 15:20:58,2020-11-02 15:21:28,4,D7:F2:3B:06:4D:C8,57,57,-27220.219724611845,5818.799205311172,4635.323068797059
66489,3829,29901,-12535,22289,-17126,31528,-20473,-26354,24603,57,-1,19616,2020-11-02 15:20:58,2020-11-02 15:21:28,4,D7:F2:3B:06:4D:C8,57,57,-26156.87329681547,17708.606941047976,-8251.090021434084
66490,29715,25054,31996,-11510,-28388,4900,16655,-20209,-31964,57,-1,19642,2020-11-02 15:20:58,2020-11-02 15:21:28,4,D7:F2:3B:06:4D:C8,57,57,29173.093295007166,-40700.652309782476,-5178.386443575504
66491,-32234,-13591,-11302,-2574,-17392,17695,28179,-24306,-7637,57,-1,19668,2020-11-02 15:20:58,2020-11-02 15:21:28,4,D7:F2:3B:06:4D:C8,57,57,18888.456136382105,-28805.724070319604,12842.808359879042
66492,-13232,-8999,16379,20180,23817,-26602,24849,8972,-14544,57,-1,19693,2020-11-02 15:20:58,2020-11-02 15:21:28,4,D7:F2:3B:06:4D:C8,57,57,20959.243938310065,1875.2505077099236,9029.562285501246
66493,-28625,1752,11573,-13618,-8953,8961,28682,28684,-24526,57,-1,19719,2020-11-02 15:20:58,2020-11-02 15:21:28,4,D7:F2:3B:06:4D:C8,57,57,-2462.7336797391963,-14887.017137329309,-26994.55725837232
66494,-26317,-21281,10044,26073,13824,17146,17667,25868,12082,57,-1,19744,2020-11-02 15:20:58,2020-11-02 15:21:28,4,D7:F2:3B:06:4D:C8,57,57,-29104.225078100404,16373.489873446422,-11454.269857455725
66495,27150,-15140,-26847,-22562,-13566,31210,5884,6156,-1746,57,1,19770,2020-11-02 15:20:58,2020-11-02 15:21:28,4,D7:F2:3B:06:4D:C8,57,57,-8256.977957336414,14410.794618293963,-37566.67169821424
66496,4117,28385,4385,-23580,-17914,-22552,24309,-27381,-982,57,1,19796,2020-11-02 15:20:58,2020-11-02 15:21:28,4,D7:F2:3B:06:4D:C8,57,57,-21117.727972646,-15235.095236288358,12799.202217894219
66497,-19954,27363,30504,-22801,22021,10204,1264,24585,16934,57,1,19821,2020-11-02 15:20:58,2020-11-02 15:21:28,4,D7:F2:3B:06:4D:C8,57,57,-20701.868276495712,-20518.825798477345,-35039.98200219802
66498,-16666,7150,15135,-13320,6162,4572,-27668,28166,-20448,57,1,19847,2020-11-02 15:20:58,2020-11-02 15:21:28,4,D7:F2:3B:06:4D:C8,57,57,-16418.41829187346,13950.398999392426,-9683.397624327205
66499,19963,13294,-6351,-5372,-26069,15830,-26134,-7676,20249,57,1,19872,2020-11-02 15:20:58,2020-11-02 15:21:28,4,D7:F2:3B:06:4D:C8,57,57,1709.3594513999046,3678.6751829001696,24477.182132848226
66500,-20019,13280,-32753,-17902,-22235,-35,3563,-4093,-6897,57,1,19898,2020-11-02 15:20:58,2020-11-02 15:21:28,4,D7:F2:3B:06:4D:C8,57,57,358.4228170745755,24020.622266798175,-32753.0
66501,-12100,-13613,23045,-9184,5385,7930,-28690,1796,1036,57,1,19923,2020-11-02 15:20:58,2020-11-02 15:21:28,4,D7:F2:3B:06:4D:C8,57,57,-12100.0,-25959.903240322925,-6516.841086989255
66502,7595,13768,-18958,-4062,-11773,29966,-14861,-30203,17676,57,1,19950,2020-11-02 15:20:58,2020-11-02 15:21:28,4,D7:F2:3B:06:4D:C8,57,57,5503.674595964037,22415.616013458795,-8596.356069807116
66503,-17959,13794,-9738,-31473,27151,-3590,26615,27911,14349,57,1,19975,2020-11-02 15:20:58,2020-11-02 15:21:28,4,D7:F2:3B:06:4D:C8,57,57,8731.665174207665,20296.735163896854,-10928.37252165948
66504,13008,-31304,1770,16926,17660,-27595,-22276,-5623,31249,57,1,20000,2020-11-02 15:20:58,2020-11-02 15:21:28,4,D7:F2:3B:06:4D:C8,57,57,33647.15872975399,-3611.9363244888496,2665.334013323295
66505,-23040,26070,-3334,19215,-26097,27939,-7422,-17910,18969,57,1,20026,2020-11-02 15:20:58,2020-11-02 15:21:28,4,D7:F2:3B:06:4D:C8,57,57,-27489.480696916104,-7475.714349893167,20249.548191815993
66506,786,-8231,-27917,12815,2057,22815,-6905,-8181,6431,57,1,20051,2020-11-02 15:20:58,2020-11-02 15:21:28,4,D7:F2:3B:06:4D:C8,57,57,27447.737528473965,-8961.832998045304,-3746.104627896615
66507,30737,6364,-27410,4089,25344,27681,26378,19722,4388,57,1,20077,2020-11-02 15:20:58,2020-11-02 15:21:28,4,D7:F2:3B:06:4D:C8,57,57,-28580.715892704648,-24903.744399566338,-17306.58715465207
66508,10822,31194,15355,31202,-31238,-21221,2057,11527,-26072,57,1,20103,2020-11-02 15:20:58,2020-11-02 15:21:28,4,D7:F2:3B:06:4D:C8,57,57,-29790.329632003395,-13231.375511670016,-16230.3514282889
66509,-13499,11747,-29655,26581,29698,14862,-30973,-3067,-32213,57,1,20128,2020-11-02 15:20:58,2020-11-02 15:21:28,4,D7:F2:3B:06:4D:C8,57,57,-34293.2969337579,-3932.832387996119,2852.481344555912
66510,-26601,756,20778,-8993,6147,-14339,-3331,-5371,9516,57,1,20154,2020-11-02 15:20:58,2020-11-02 15:21:28,4,D7:F2:3B:06:4D:C8,57,57,-15008.733702913156,-21975.50112363854,20778.0
66511,15632,21492,-14560,-14621,17416,-11790,-4872,-10235,-9942,57,1,20179,2020-11-02 15:20:58,2020-11-02 15:21:28,4,D7:F2:3B:06:4D:C8,57,57,29267.97599832981,-5804.440500414666,5287.072861076923
66512,-32763,-18705,-9959,-27167,16643,16368,6388,13061,-4568,57,1,20205,2020-11-02 15:20:58,2020-11-02 15:21:28,4,D7:F2:3B:06:4D:C8,57,57,-5570.675183278446,-1726.1450935617122,38580.57640987727
66513,20239,-26889,-28890,-23060,21004,-23583,-14097,7428,32549,57,1,20230,2020-11-02 15:20:58,2020-11-02 15:21:28,4,D7:F2:3B:06:4D:C8,57,57,-2652.750939152902,-44193.56454726971,2675.688147211793
66514,24311,-13073,12333,28148,5917,-30752,-8468,-11774,-13537,57,1,20256,2020-11-02 15:20:58,2020-11-02 15:21:28,4,D7:F2:3B:06:4D:C8,57,57,13908.10876079389,22425.060285476513,14755.07102289489
66515,31471,-18196,-19937,-24825,-1244,-25898,7404,-2559,24,57,1,20282,2020-11-02 15:20:58,2020-11-02 15:21:28,4,D7:F2:3B:06:4D:C8,57,57,31471.0,6945.0662665383625,-26083.413111657588
66516,-3627,-28445,-7675,-12527,-5606,-22298,-10259,24833,16657,57,1,20307,2020-11-02 15:20:58,2020-11-02 15:21:28,4,D7:F2:3B:06:4D:C8,57,57,25093.13084615724,-2378.8007588973533,-15679.759892520724
66517,-6452,16606,-5113,-28391,19987,-17163,-27920,20226,-6388,57,1,20333,2020-11-02 15:20:58,2020-11-02 15:21:28,4,D7:F2:3B:06:4D:C8,57,57,-1213.3632048818836,-11038.014855456782,-14839.820982200363
66518,7868,15301,8174,3618,12300,-6638,17397,-1276,10508,57,1,20358,2020-11-02 15:20:58,2020-11-02 15:21:28,4,D7:F2:3B:06:4D:C8,57,57,17968.245354355116,-2186.984971065505,-5932.921423888012
66519,-3121,18920,-2285,-20722,-4327,16374,-6921,-2553,-7413,57,1,20384,2020-11-02 15:20:58,2020-11-02 15:21:28,4,D7:F2:3B:06:4D:C8,57,57,5297.722400401376,7110.609559701137,-17155.2218014741
66520,10969,27827,16356,24344,-29442,8251,-17155,2571,-13040,57,1,20410,2020-11-02 15:20:58,2020-11-02 15:21:28,4,D7:F2:3B:06:4D:C8,57,57,-1570.9886371298471,-11344.184800365005,-32109.517154843306
66521,16637,-31791,25858,-16891,13843,29996,24067,-29684,-15591,57,1,20435,2020-11-02 15:20:58,2020-11-02 15:21:28,4,D7:F2:3B:06:4D:C8,57,57,31869.413220816044,-27323.547459256035,-13923.28514405487
66522,-27617,21452,-29199,-21502,26118,4642,-7417,-2548,-992,57,-1,20461,2020-11-02 15:20:58,2020-11-02 15:21:28,4,D7:F2:3B:06:4D:C8,57,57,-27617.0,-12979.546219922435,-33827.52259514281
66523,19493,1487,20208,-30228,29176,-11230,-8696,-2038,-5083,57,-1,20486,2020-11-02 15:20:58,2020-11-02 15:21:28,4,D7:F2:3B:06:4D:C8,57,57,19493.0,17807.875189823895,9667.161642574027
66524,13142,-23340,11817,-805,-2822,795,-763,-3065,-27606,57,-1,20512,2020-11-02 15:20:58,2020-11-02 15:21:28,4,D7:F2:3B:06:4D:C8,57,57,9073.585775097456,25201.940504293496,11817.0
66525,-3022,24554,3633,6114,-26622,8455,16129,11015,-27860,57,-1,20537,2020-11-02 15:20:58,2020-11-02 15:21:28,4,D7:F2:3B:06:4D:C8,57,57,-148.32043948873797,20858.149333627913,13789.332704061768
66526,-14050,-25103,25624,-14615,24583,26370,17917,-23801,-5844,57,-1,20563,2020-11-02 15:20:58,2020-11-02 15:21:28,4,D7:F2:3B:06:4D:C8,57,57,11009.811896351624,22156.64298790505,29529.979656502845
66527,-3295,23017,11266,25311,-13562,-8198,-26888,17160,3628,57,-1,20589,2020-11-02 15:20:58,2020-11-02 15:21:28,4,D7:F2:3B:06:4D:C8,57,57,10514.529532077746,-23571.052133556877,-1188.3770597789398
66528,8497,5105,-11488,-26910,-12282,-26127,-2574,16648,11818,57,-1,20614,2020-11-02 15:20:58,2020-11-02 15:21:28,4,D7:F2:3B:06:4D:C8,57,57,1176.6052458645804,-14838.233960129483,-2945.605377484245
66529,26918,12022,-23240,24562,-10734,14304,26606,-7418,-12763,57,-1,20640,2020-11-02 15:20:58,2020-11-02 15:21:28,4,D7:F2:3B:06:4D:C8,57,57,-27057.130143301376,2026.2434081762985,25942.45273792118
66530,-3889,18670,3596,-16901,-16100,-22818,-24085,16389,3359,57,-1,20665,2020-11-02 15:20:58,2020-11-02 15:21:28,4,D7:F2:3B:06:4D:C8,57,57,12329.009553186334,-14924.988174650945,-1365.5359475200937
66531,-32269,-13585,3111,23306,19222,8417,2795,5892,25625,57,-1,20691,2020-11-02 15:20:58,2020-11-02 15:21:28,4,D7:F2:3B:06:4D:C8,57,57,-595.9943754903741,20093.441670992608,28834.307682321796
66532,-324,-4895,17679,-27884,-8684,8167,-12052,-18174,-1261,57,-1,20717,2020-11-02 15:20:58,2020-11-02 15:21:28,4,D7:F2:3B:06:4D:C8,57,57,730.8592298829301,18112.50797374949,2831.243840956855
66533,-2361,-14109,-3337,13591,-10746,-21511,-21009,-6654,12049,57,-1,20742,2020-11-02 15:20:58,2020-11-02 15:21:28,4,D7:F2:3B:06:4D:C8,57,57,-9887.762390148051,-10827.83617100519,874.0078774503918
66534,26791,-8242,-26883,26658,6912,-30702,4596,10756,-24047,57,1,20768,2020-11-02 15:20:58,2020-11-02 15:21:28,4,D7:F2:3B:06:4D:C8,57,57,11562.163709710603,-777.601632516833,-37068.79604264155
66535,32270,-27690,28426,16400,29446,9480,3320,-1019,-9709,57,1,20793,2020-11-02 15:20:58,2020-11-02 15:21:28,4,D7:F2:3B:06:4D:C8,57,57,-5864.776158965782,-42115.23952923961,28426.0
66536,169,7861,12785,13597,-7936,29486,-18180,1288,10774,57,1,20819,2020-11-02 15:20:58,2020-11-02 15:21:28,4,D7:F2:3B:06:4D:C8,57,57,5121.718639894838,-3087.7789466931963,-13766.398452395311
66537,-23033,2761,19445,22542,32523,-24273,-9726,-6392,13599,57,1,20844,2020-11-02 15:20:58,2020-11-02 15:21:28,4,D7:F2:3B:06:4D:C8,57,57,-8190.4580693227235,-25007.075880904347,-14960.373909142723
66538,-30183,-50,8695,18956,24342,-2278,-762,-2806,17957,57,1,20870,2020-11-02 15:20:58,2020-11-02 15:21:28,4,D7:F2:3B:06:4D:C8,57,57,29887.99952529424,-4209.92557844095,8695.0
66539,16159,-30247,-8994,19703,32507,3356,22537,22282,-10967,57,1,20896,2020-11-02 15:20:58,2020-11-02 15:21:28,4,D7:F2:3B:06:4D:C8,57,57,17975.361055079717,29775.537607634957,-6869.503702294634
66540,-29366,-30512,4863,10209,-12543,-20458,263,23816,-11987,57,1,20921,2020-11-02 15:20:58,2020-11-02 15:21:28,4,D7:F2:3B:06:4D:C8,57,57,-34200.82149571488,-1409.8845163551632,-25402.931005472365
66541,27447,2282,-24005,-23845,-29173,26630,27393,27400,-17873,57,1,20947,2020-11-02 15:20:58,2020-11-02 15:21:28,4,D7:F2:3B:06:4D:C8,57,57,25448.786170215422,23485.017949096396,11644.680003901865
66542,-1488,-25100,-18921,18406,30980,10496,7677,6921,12592,57,1,20974,2020-11-02 15:20:58,2020-11-02 15:21:28,4,D7:F2:3B:06:4D:C8,57,57,9164.626564819024,-25695.87232283756,-15683.116734113915
66543,22057,30698,-12014,24547,-15096,6124,13048,21513,18734,57,1,20998,2020-11-02 15:20:58,2020-11-02 15:21:28,4,D7:F2:3B:06:4D:C8,57,57,17280.66219110981,-594.0154973580193,-35696.50555482492
66544,-18136,-23321,14617,4327,-18432,7916,-3342,9992,10795,57,1,21024,2020-11-02 15:20:58,2020-11-02 15:21:28,4,D7:F2:3B:06:4D:C8,57,57,20975.164594469934,-10495.98998670138,23158.51658535061
66545,-27885,14324,28718,30964,-245,7650,-3090,16390,2343,57,1,21049,2020-11-02 15:20:58,2020-11-02 15:21:28,4,D7:F2:3B:06:4D:C8,57,57,37717.45804069699,14324.0,13404.8538950733
66546,-5653,-5400,9257,25850,-25059,-31524,27372,30980,13345,57,1,21075,2020-11-02 15:20:58,2020-11-02 15:21:28,4,D7:F2:3B:06:4D:C8,57,57,-9696.258486774494,-4129.8244007523135,-5977.924370264687
66547,32256,22753,-2017,3850,1067,-12587,-21525,-18173,-488,57,1,21100,2020-11-02 15:20:58,2020-11-02 15:21:28,4,D7:F2:3B:06:4D:C8,57,57,-31761.865766355473,-22809.938331406687,5753.905661152263
66548,11984,-18215,-17916,14615,-24036,6888,10221,22275,13585,57,1,21126,2020-11-02 15:20:58,2020-11-02 15:21:28,4,D7:F2:3B:06:4D:C8,57,57,1646.3655016673183,-16175.116534733617,23066.00578172794
66549,11194,23005,-28161,11291,1547,10488,22512,-15101,-10227,57,1,21151,2020-11-02 15:20:58,2020-11-02 15:21:28,4,D7:F2:3B:06:4D:C8,57,57,-33629.04583800083,17577.510551011597,-2774.1630908645366
66550,26802,-2102,-16662,32,-30972,-14321,8437,-18939,23310,57,1,21177,2020-11-02 15:20:58,2020-11-02 15:21:28,4,D7:F2:3B:06:4D:C8,57,57,26101.37286138134,10508.340923524298,14445.793774871981
66551,-17413,-1579,13306,-2282,9230,20736,-8,-6905,-3313,57,1,21203,2020-11-02 15:20:58,2020-11-02 15:21:28,4,D7:F2:3B:06:4D:C8,57,57,-20604.896975935786,-1579.0,-7463.271776578435
66552,992,-7249,-17938,14105,26878,32315,29950,29962,-18924,57,1,21228,2020-11-02 15:20:58,2020-11-02 15:21:28,4,D7:F2:3B:06:4D:C8,57,57,-1227.6763473734773,19277.116938590607,1479.6899411710563
66553,29681,-24634,22272,-27640,-22510,29740,30468,-31733,24093,57,1,21254,2020-11-02 15:20:58,2020-11-02 15:21:28,4,D7:F2:3B:06:4D:C8,57,57,-13394.603553307948,-37492.137579529255,-19969.02392124762
66554,12063,31438,-30993,-15865,-13801,28191,28937,26893,-5852,57,1,21279,2020-11-02 15:20:58,2020-11-02 15:21:28,4,D7:F2:3B:06:4D:C8,57,57,-5842.7378197541475,-29401.454960208448,34581.016801020305
66555,-29411,-1340,-30220,13545,7421,6945,-2550,-28404,16938,57,1,21331,2020-11-02 15:20:58,2020-11-02 15:21:28,4,D7:F2:3B:06:4D:C8,57,57,2735.8376480037377,-2757.8970515918154,42011.42841199983
66556,15193,-14651,26138,-17200,18691,-15083,20743,21258,-10706,57,1,21333,2020-11-02 15:20:58,2020-11-02 15:21:28,4,D7:F2:3B:06:4D:C8,57,57,-1156.1508375570156,21818.623672072394,25520.2874258363
66557,24142,30436,22349,-3626,-30710,-15878,27648,3339,-4049,57,-1,21356,2020-11-02 15:20:58,2020-11-02 15:21:28,4,D7:F2:3B:06:4D:C8,57,57,24142.0,-2980.518276968003,-37642.322029872965
66558,27944,15844,9223,7397,16388,20719,-28934,-30197,21293,57,-1,21382,2020-11-02 15:20:58,2020-11-02 15:21:28,4,D7:F2:3B:06:4D:C8,57,57,-24140.455240224932,7834.924187247305,-21744.323047057213
66559,-8186,-3613,-18410,27359,22537,24039,22259,-6390,-10200,57,-1,21407,2020-11-02 15:20:58,2020-11-02 15:21:28,4,D7:F2:3B:06:4D:C8,57,57,-5248.2525820047795,19602.20119786878,2683.657585041731
66560,-7400,7397,-24251,1513,2825,-7201,30189,-20984,25381,57,-1,21433,2020-11-02 15:20:58,2020-11-02 15:21:28,4,D7:F2:3B:06:4D:C8,57,57,-22088.77365206545,6792.3624420034375,12788.139075107061
66561,11246,-22548,18229,3322,29967,2266,32746,12805,31008,57,-1,21458,2020-11-02 15:20:58,2020-11-02 15:21:28,4,D7:F2:3B:06:4D:C8,57,57,16212.118068163667,-15729.90036359967,-21375.657259956897
66562,-23317,26106,27452,22787,-12256,5857,23785,13059,24858,57,-1,21484,2020-11-02 15:20:58,2020-11-02 15:21:28,4,D7:F2:3B:06:4D:C8,57,57,18874.322748909464,16174.582725561555,36891.20279177631
66563,30187,-28957,-20692,25108,-19424,-4125,-9750,23042,-14317,57,-1,21510,2020-11-02 15:20:58,2020-11-02 15:21:28,4,D7:F2:3B:06:4D:C8,57,57,-17694.67415075712,40772.9395605876,14226.29917748106
66564,27859,18894,6166,22299,21018,16874,9710,32002,14,57,-1,21561,2020-11-02 15:20:58,2020-11-02 15:21:28,4,D7:F2:3B:06:4D:C8,57,57,-10537.815233446161,5019.961674747144,32169.568040149683
66565,-7009,1980,-11791,5416,13837,21001,6643,-9468,18187,57,-1,21563,2020-11-02 15:20:58,2020-11-02 15:21:28,4,D7:F2:3B:06:4D:C8,57,57,-1721.21174740661,-10857.340402813341,-8439.772005097446
66566,2299,-32568,12244,-19941,11784,8209,32248,21511,30989,57,-1,21586,2020-11-02 15:20:58,2020-11-02 15:21:28,4,D7:F2:3B:06:4D:C8,57,57,3143.5346039045544,-1803.7401646715712,-34680.54602529212
66567,128,1977,-9991,-15845,21520,-26345,-27653,1802,4110,57,-1,21612,2020-11-02 15:20:58,2020-11-02 15:21:28,4,D7:F2:3B:06:4D:C8,57,57,128.0,6268.96029217415,8026.75194927212
66568,23556,-25670,-30228,32269,-7162,-10699,515,-18678,-16361,57,-1,21638,2020-11-02 15:20:58,2020-11-02 15:21:28,4,D7:F2:3B:06:4D:C8,57,57,-15412.200190586547,28008.68588041513,33249.7160970965
66569,5115,26576,8707,-29688,31258,26661,-16889,15885,25887,57,-1,21663,2020-11-02 15:20:58,2020-11-02 15:21:28,4,D7:F2:3B:06:4D:C8,57,57,15529.765274635709,22787.999865150334,6913.197716008655
66570,9261,3804,29389,8967,32276,11033,12045,3342,-17626,57,-1,21689,2020-11-02 15:20:58,2020-11-02 15:21:28,4,D7:F2:3B:06:4D:C8,57,57,-13162.914917611397,26716.176208166948,-8771.171967639075
66571,-4276,-4635,3823,-23836,-22019,-12008,22029,11020,-14038,57,-1,21714,2020-11-02 15:20:58,2020-11-02 15:21:28,4,D7:F2:3B:06:4D:C8,57,57,6197.656408114196,3812.114989219752,1199.8184679055148
66572,-26038,-28208,-9951,17616,-2310,19460,8,5642,24876,57,-1,21740,2020-11-02 15:20:58,2020-11-02 15:21:28,4,D7:F2:3B:06:4D:C8,57,57,-4328.312187599309,38143.6026301486,-9951.0
66573,-18650,-10282,22830,-32295,-26120,-28924,5633,-32759,25644,57,-1,21766,2020-11-02 15:20:58,2020-11-02 15:21:28,4,D7:F2:3B:06:4D:C8,57,57,-18633.1963675187,-5843.626992724488,24359.94541659299
66574,23100,-32029,-28374,12255,13561,19712,-9221,-23289,10285,57,-1,21791,2020-11-02 15:20:58,2020-11-02 15:21:28,4,D7:F2:3B:06:4D:C8,57,57,31246.529462862876,-27555.300425238576,-25078.088683176982
66575,-28428,23010,-27880,-4896,17416,31721,-10763,-15610,19498,57,-1,21817,2020-11-02 15:20:58,2020-11-02 15:21:28,4,D7:F2:3B:06:4D:C8,57,57,-41145.67195345358,17004.50519971214,-11523.28800350606
66576,-483,23527,20783,-30492,15633,-799,7920,-14331,-31450,57,-1,21842,2020-11-02 15:20:58,2020-11-02 15:21:28,4,D7:F2:3B:06:4D:C8,57,57,-3365.326544080488,-28215.5777278511,-13350.724989127002
66577,27640,-4886,-9429,-19214,-31715,10711,-5909,-6909,-30689,57,-1,21868,2020-11-02 15:20:58,2020-11-02 15:21:28,4,D7:F2:3B:06:4D:C8,57,57,14610.66031711182,12114.303706357274,22727.095894726903
66578,13554,-20237,-11718,-14848,-8667,-27684,-10775,30722,-17385,57,-1,21893,2020-11-02 15:20:58,2020-11-02 15:21:28,4,D7:F2:3B:06:4D:C8,57,57,3414.721615773531,21491.415721668476,16031.760214187027
66579,-29750,14042,-24043,10774,-3564,16101,2796,-1280,-24815,57,-1,21919,2020-11-02 15:20:58,2020-11-02 15:21:28,4,D7:F2:3B:06:4D:C8,57,57,8818.877081578526,-31693.337959577704,-24043.0
66580,-27216,5088,19459,795,-28650,32756,20975,-18943,7693,57,-1,21944,2020-11-02 15:20:58,2020-11-02 15:21:28,4,D7:F2:3B:06:4D:C8,57,57,22521.095919716172,20669.37820121411,14519.921637189322
66581,-9523,22225,-10245,-5600,14598,20239,-21773,-10749,-20724,57,-1,21970,2020-11-02 15:20:58,2020-11-02 15:21:28,4,D7:F2:3B:06:4D:C8,57,57,7621.19029400522,24771.76366431766,-4227.926496730044
66582,32745,-10539,7380,3093,14604,15113,-11785,13830,-14067,57,1,21999,2020-11-02 15:20:58,2020-11-02 15:21:28,4,D7:F2:3B:06:4D:C8,57,57,13296.5161453941,2388.823629316491,-32484.85995141881
66583,25244,27062,-6928,-18405,-23542,19494,32763,19209,-29937,57,1,22021,2020-11-02 15:20:58,2020-11-02 15:21:28,4,D7:F2:3B:06:4D:C8,57,57,-9197.186397217436,-27449.43459431686,24073.82119288833
66584,27124,-18486,10487,-8182,18189,20779,-18687,-19446,-5609,57,1,22047,2020-11-02 15:20:58,2020-11-02 15:21:28,4,D7:F2:3B:06:4D:C8,57,57,-25755.58735347508,19780.92681667966,11523.254546814362
66585,28929,-23856,6137,-32756,-237,17957,-25338,-21236,1311,57,1,22072,2020-11-02 15:20:58,2020-11-02 15:21:28,4,D7:F2:3B:06:4D:C8,57,57,-25525.58241002809,10948.82530561757,25927.329462479018
66586,15887,5328,15578,-27140,13319,-12773,29194,-16116,5413,57,1,22098,2020-11-02 15:20:58,2020-11-02 15:21:28,4,D7:F2:3B:06:4D:C8,57,57,-5983.6740503526435,16449.47447485044,14733.257323497077
66587,11868,28618,-24331,-8483,-11777,-16606,29705,14346,24618,57,1,22124,2020-11-02 15:20:58,2020-11-02 15:21:28,4,D7:F2:3B:06:4D:C8,57,57,12127.181653299307,37316.39483803845,3500.721417007849
66588,-4790,19935,-14284,13523,7434,11526,26883,5386,4653,57,1,22149,2020-11-02 15:20:58,2020-11-02 15:21:28,4,D7:F2:3B:06:4D:C8,57,57,-4790.0,-23840.55242489455,-5750.212263547715
66589,17209,8935,-10723,-10017,8699,-1541,-20227,-28407,813,57,1,22175,2020-11-02 15:20:58,2020-11-02 15:21:28,4,D7:F2:3B:06:4D:C8,57,57,-4168.830507176373,-10358.812803550936,-19138.507896474708
66590,24889,-22299,-29154,9692,26365,27376,-3849,-505,-25813,57,1,22200,2020-11-02 15:20:58,2020-11-02 15:21:28,4,D7:F2:3B:06:4D:C8,57,57,607.4027631970548,33411.65640735671,-29154.0
66591,-23496,-24861,21804,13026,9213,-16404,8178,17926,-3800,57,1,22226,2020-11-02 15:20:58,2020-11-02 15:21:28,4,D7:F2:3B:06:4D:C8,57,57,21971.15966608474,-31779.888978939198,12363.355224764433
66592,20489,-32536,-6345,15601,-25073,-20262,-5651,-21245,15140,57,1,22251,2020-11-02 15:20:58,2020-11-02 15:21:28,4,D7:F2:3B:06:4D:C8,57,57,37653.3847485788,-4090.2049797686045,9172.910236068445
66593,29894,-7188,-22002,248,-16100,6619,-11797,29441,-14563,57,1,22277,2020-11-02 15:20:58,2020-11-02 15:21:28,4,D7:F2:3B:06:4D:C8,57,57,-12738.644766188503,13052.80045343035,33117.335548678835
66594,-19731,23021,15406,-13560,-31969,-9246,-24085,-3584,-234,57,1,22303,2020-11-02 15:20:58,2020-11-02 15:21:28,4,D7:F2:3B:06:4D:C8,57,57,-19731.0,-26706.82903861515,7352.316621459011
66595,-31774,19685,-4082,23831,11037,-19995,11246,-30720,12049,57,1,22328,2020-11-02 15:20:58,2020-11-02 15:21:28,4,D7:F2:3B:06:4D:C8,57,57,-14773.661322395306,-1530.9096929296115,34541.920497321145
66596,30420,27608,-7662,17693,-16879,2813,-13071,11266,22029,57,-1,22354,2020-11-02 15:20:58,2020-11-02 15:21:28,4,D7:F2:3B:06:4D:C8,57,57,4589.595698678374,17988.353474289193,-37438.47030270736
66597,-31507,19151,-16934,-20188,30467,12050,13303,22532,-32243,57,-1,22379,2020-11-02 15:20:58,2020-11-02 15:21:28,4,D7:F2:3B:06:4D:C8,57,57,2703.8002072631934,35327.77622569226,-19769.924061225334
66598,128,-308,-23000,19218,28946,26896,-24071,-32506,23820,57,-1,22405,2020-11-02 15:20:58,2020-11-02 15:21:28,4,D7:F2:3B:06:4D:C8,57,57,4024.8726507867514,-22277.806280212622,4075.6589021001114
66599,-3605,-15427,-8982,-22504,15100,-8140,30976,-4857,-15597,57,-1,22431,2020-11-02 15:20:58,2020-11-02 15:21:28,4,D7:F2:3B:06:4D:C8,57,57,-10310.758927783527,8683.396078399983,12245.471035397539
66600,-30734,6092,10758,-9458,-9963,-32218,23045,-17143,-12006,57,-1,22456,2020-11-02 15:20:58,2020-11-02 15:21:28,4,D7:F2:3B:06:4D:C8,57,57,-5945.543797918536,-22986.9631164783,-23101.424623358165
66601,12814,-20523,-15138,-32505,-2797,-21982,15626,-27894,-17375,57,-1,22482,2020-11-02 15:20:58,2020-11-02 15:21:28,4,D7:F2:3B:06:4D:C8,57,57,20701.60124789689,-19580.06338972497,-1617.4029885670816
66602,-26058,7142,-25367,-12556,-18932,10012,11276,-22774,-5849,57,-1,22507,2020-11-02 15:20:58,2020-11-02 15:21:28,4,D7:F2:3B:06:4D:C8,57,57,35733.90466844978,-9003.497411404654,3941.7392746061614
66603,-10932,-30494,22268,-29985,-10762,11026,14346,2312,1067,57,-1,22533,2020-11-02 15:20:58,2020-11-02 15:21:28,4,D7:F2:3B:06:4D:C8,57,57,-10932.0,-7558.253466885721,-36994.8734898541
66604,12617,987,15659,4822,-516,-16895,21764,-23546,7468,57,-1,22559,2020-11-02 15:20:58,2020-11-02 15:21:28,4,D7:F2:3B:06:4D:C8,57,57,-8056.149742684181,-18445.112948532587,493.35447634039883
66605,-18669,12769,32573,29917,-31492,-14347,510,-14075,-214,57,-1,22584,2020-11-02 15:20:58,2020-11-02 15:21:28,4,D7:F2:3B:06:4D:C8,57,57,-21849.499792494327,12769.0,-30530.824568258722
66606,20721,-5914,23329,22240,20742,14312,14584,-7932,7464,57,-1,22610,2020-11-02 15:20:58,2020-11-02 15:21:28,4,D7:F2:3B:06:4D:C8,57,57,28686.970031810735,9970.98399587553,9285.187480497465
66607,-30705,29671,-21195,31451,1547,31984,18674,26116,-12507,57,1,22635,2020-11-02 15:20:58,2020-11-02 15:21:28,4,D7:F2:3B:06:4D:C8,57,57,-24415.056387290388,10050.492950370064,-39689.87155509567
66608,-3829,-20760,-29904,-27669,-17644,-22307,-29203,32259,-23008,57,1,22661,2020-11-02 15:20:58,2020-11-02 15:21:28,4,D7:F2:3B:06:4D:C8,57,57,-34329.83174716795,4886.543199531334,-11724.862675965698
66609,-27380,-23557,582,-14341,13862,-20004,-2838,20738,22297,57,1,22687,2020-11-02 15:20:58,2020-11-02 15:21:28,4,D7:F2:3B:06:4D:C8,57,57,-23591.677104353104,27158.041859344732,3287.690187657705
66610,-8745,-10261,24353,-24049,12310,-14111,4332,-18688,25874,57,1,22712,2020-11-02 15:20:58,2020-11-02 15:21:28,4,D7:F2:3B:06:4D:C8,57,57,-11178.085716665175,2755.9311823189355,-25343.381740194185
66611,-4408,1762,19726,-20972,-18162,15602,-8722,-28928,26894,57,1,22738,2020-11-02 15:20:58,2020-11-02 15:21:28,4,D7:F2:3B:06:4D:C8,57,57,8348.797083033292,-17184.408269999516,6829.632762916839
66612,22186,22237,32275,22298,29963,-516,17650,-31487,28684,57,1,22763,2020-11-02 15:20:58,2020-11-02 15:21:28,4,D7:F2:3B:06:4D:C8,57,57,-31530.277340969707,12923.953596754302,-29448.114103121676
66613,2018,22223,-15661,21523,-17146,25611,20470,-20221,-28659,57,1,22789,2020-11-02 15:20:58,2020-11-02 15:21:28,4,D7:F2:3B:06:4D:C8,57,57,17664.728885217126,-10052.046478073637,-18169.058561588245
66614,10654,27843,-11014,18203,-28405,-2535,20217,-26618,-29938,57,1,22814,2020-11-02 15:20:58,2020-11-02 15:21:28,4,D7:F2:3B:06:4D:C8,57,57,26150.57138700644,-3291.4066893984545,-17758.457679034596
66615,-22036,12736,-14087,-30961,22024,-18125,-9474,-19704,15382,57,1,22840,2020-11-02 15:20:58,2020-11-02 15:21:28,4,D7:F2:3B:06:4D:C8,57,57,-5633.303226551252,24257.92734036679,15035.072893312245
66616,13817,-817,22544,22290,20244,17191,-10493,9483,27165,57,1,22865,2020-11-02 15:20:58,2020-11-02 15:21:28,4,D7:F2:3B:06:4D:C8,57,57,2065.163324577732,-25955.694508179327,-4673.963739791801
66617,-12766,10961,-25626,27399,-19690,-8163,27657,-28916,29732,57,1,22891,2020-11-02 15:20:58,2020-11-02 15:21:28,4,D7:F2:3B:06:4D:C8,57,57,-24194.870841880846,-11835.766882164673,14639.979516917288
66618,-7122,10719,15085,16373,-17920,13345,-27637,-3573,-2519,57,1,22917,2020-11-02 15:20:58,2020-11-02 15:21:28,4,D7:F2:3B:06:4D:C8,57,57,-7122.0,-18422.77161375715,-1748.0480735219035
66619,5959,11743,11279,10203,-22019,15375,1033,-30967,16429,57,1,22942,2020-11-02 15:20:58,2020-11-02 15:21:28,4,D7:F2:3B:06:4D:C8,57,57,-15882.232768947362,6484.906653242442,-2514.803962877914
66620,28987,-29210,20788,2778,-3586,-29948,25859,-19448,-28626,57,1,22968,2020-11-02 15:20:58,2020-11-02 15:21:28,4,D7:F2:3B:06:4D:C8,57,57,-6812.6080158837685,-45391.00626838746,-4342.365134938118
66621,21542,-19991,29715,13795,20224,-23300,21246,27144,18222,57,1,22993,2020-11-02 15:20:58,2020-11-02 15:21:28,4,D7:F2:3B:06:4D:C8,57,57,-12415.455371294298,-13985.44922867686,37375.697288418596
66622,19974,20205,-28402,-1826,-17397,-27406,31480,-8184,11308,57,1,23019,2020-11-02 15:20:58,2020-11-02 15:21:28,4,D7:F2:3B:06:4D:C8,57,57,36397.66979339429,16886.12126021308,1986.163990312236
66623,-30942,-26642,-4054,31201,-19187,-30227,25074,4617,31529,57,1,23070,2020-11-02 15:20:58,2020-11-02 15:21:28,4,D7:F2:3B:06:4D:C8,57,57,4979.936173093325,33740.53659210256,22812.603318974907
66624,-31483,29932,29222,-14093,-12278,-1308,-9235,-7673,-2012,57,-1,23072,2020-11-02 15:20:58,2020-11-02 15:21:28,4,D7:F2:3B:06:4D:C8,57,57,-9102.02864323215,40761.793737301516,-31569.897733370453
66625,7396,-19987,-12252,12537,16915,-6943,11499,-18427,15392,57,-1,23096,2020-11-02 15:20:58,2020-11-02 15:21:28,4,D7:F2:3B:06:4D:C8,57,57,-15414.18591708635,-13077.49771612215,13988.367131238618
66626,19190,22518,-25316,-28665,16155,-4120,30954,-8188,-14310,57,-1,23121,2020-11-02 15:20:58,2020-11-02 15:21:28,4,D7:F2:3B:06:4D:C8,57,57,-30656.891785830285,-24000.208803909398,601.0352740411281
66627,4329,-5398,11548,-9963,27682,-25108,31979,-7420,-20204,57,-1,23147,2020-11-02 15:20:58,2020-11-02 15:21:28,4,D7:F2:3B:06:4D:C8,57,57,6072.010771373465,-8773.366331067298,8209.365225961103
66628,27102,-19742,9736,-8167,11027,-23050,12270,-1531,-24304,57,-1,23172,2020-11-02 15:20:58,2020-11-02 15:21:28,4,D7:F2:3B:06:4D:C8,57,57,-17232.702174394846,20927.46027088634,-22002.955401015584
66629,-11339,5082,-21007,11039,-21503,9736,7922,4871,18959,57,-1,23198,2020-11-02 15:20:58,2020-11-02 15:21:28,4,D7:F2:3B:06:4D:C8,57,57,8343.487823897802,-21818.377855801933,-7073.7749945782825
66630,15808,-28449,-4612,3346,30722,32513,-15627,-25081,-753,57,-1,23224,2020-11-02 15:20:58,2020-11-02 15:21:28,4,D7:F2:3B:06:4D:C8,57,57,10697.13228772428,7645.281620409611,-30126.898923778295
66631,-15919,-11828,-24093,-16100,10227,3876,11515,22280,-12781,57,-1,23249,2020-11-02 15:20:58,2020-11-02 15:21:28,4,D7:F2:3B:06:4D:C8,57,57,17880.81091629167,-25401.880786020753,2968.138727993426
66632,-29723,983,-2048,-26860,-6401,25378,10752,22792,26137,57,-1,23275,2020-11-02 15:20:58,2020-11-02 15:21:28,4,D7:F2:3B:06:4D:C8,57,57,-17501.877888600906,-23713.09702639469,4471.087316223377
66633,12294,16093,-8209,-23795,14347,-3810,-15868,-21752,-2274,57,-1,23300,2020-11-02 15:20:58,2020-11-02 15:21:28,4,D7:F2:3B:06:4D:C8,57,57,-10588.00005257858,-14161.473617365184,12839.847579752097
66634,-8694,-10790,12240,-24322,16654,-27114,21767,15882,32291,57,-1,23326,2020-11-02 15:20:58,2020-11-02 15:21:28,4,D7:F2:3B:06:4D:C8,57,57,6094.913267471174,10964.27375556794,13581.755014539467
66635,22033,14285,23289,29155,16374,-19688,-6139,6665,1063,57,-1,23352,2020-11-02 15:20:58,2020-11-02 15:21:28,4,D7:F2:3B:06:4D:C8,57,57,12377.965811826412,27315.236204517478,-18236.108917548012
66636,-6069,13258,16421,30167,-25349,7453,-30719,-9978,24363,57,-1,23377,2020-11-02 15:20:58,2020-11-02 15:21:28,4,D7:F2:3B:06:4D:C8,57,57,2627.223707989184,21378.609491893272,4278.938861599958
66637,-21170,-23563,-6598,2789,-22272,-10233,-11524,18182,-5331,57,-1,23403,2020-11-02 15:20:58,2020-11-02 15:21:28,4,D7:F2:3B:06:4D:C8,57,57,24369.225134814358,3806.123487364468,-20942.105035732784
66638,-1757,-12286,32289,-9228,-1527,31737,506,-30970,28205,57,-1,23428,2020-11-02 15:20:58,2020-11-02 15:21:28,4,D7:F2:3B:06:4D:C8,57,57,-29210.878297209303,-15024.801393286158,10843.998257005247
66639,-3051,1519,29936,9959,-1785,-22797,-10506,-6650,31787,57,-1,23454,2020-11-02 15:20:58,2020-11-02 15:21:28,4,D7:F2:3B:06:4D:C8,57,57,20919.31883994508,20979.01047001947,5481.174780239377
66640,16659,-2579,-29675,-32280,-7161,5107,-4879,3079,-7640,57,1,23479,2020-11-02 15:20:58,2020-11-02 15:21:28,4,D7:F2:3B:06:4D:C8,57,57,6830.742443637775,-15411.504782748681,-29675.0
66641,4118,-32529,-19669,-28688,12041,23783,8942,-13051,-10715,57,1,23531,2020-11-02 15:20:58,2020-11-02 15:21:28,4,D7:F2:3B:06:4D:C8,57,57,16880.85777253112,-28186.72575750344,19557.82344574334
