id,accelerationx,accelerationy,accelerationz,angularvelocityx,angularvelocityy,angularvelocityz,pitch,roll,yaw,mdlcircle_id,hallsensor,timestamp,starttime,endtime,train_mode,blemac,training_id,training_handle_id,accelerationWorldx,accelerationWorldy,accelerationWorldz
68407,25872,14078,17906,8192,20991,-14081,23877,8175,-11782,59,1,30412,2020-11-02 15:28:48,2020-11-02 15:29:17,1,D7:F2:3B:06:4D:C8,59,59,5966.9911295723705,2586.7290076685267,-33850.83682718185
68408,18439,24828,5104,-26881,4863,-16897,20805,16879,-9478,59,1,30437,2020-11-02 15:28:48,2020-11-02 15:29:17,1,D7:F2:3B:06:4D:C8,59,59,-26196.087045729568,-6027.298101231396,-16121.843011624072
68409,30992,-15873,17393,-26114,13311,-28161,11077,26351,-6662,59,1,30463,2020-11-02 15:28:48,2020-11-02 15:29:17,1,D7:F2:3B:06:4D:C8,59,59,-28858.53287358219,1983.5094646016175,26042.722833609616
68410,-15866,-4101,2544,13565,28927,25855,-15804,-30225,-262,59,1,30488,2020-11-02 15:28:48,2020-11-02 15:29:17,1,D7:F2:3B:06:4D:C8,59,59,-1939.9196515718386,4019.8708305243654,15971.77019780039
68411,14608,-28416,18930,-22276,28928,-31233,15684,-30481,5627,59,1,30514,2020-11-02 15:28:48,2020-11-02 15:29:17,1,D7:F2:3B:06:4D:C8,59,59,-28187.598449321973,-5387.771782486558,-23571.992467324926
68412,3590,24061,-5902,-4100,-7680,-6913,-19389,29167,9723,59,1,30540,2020-11-02 15:28:48,2020-11-02 15:29:17,1,D7:F2:3B:06:4D:C8,59,59,20027.039074912613,-14438.079146424234,4136.786367884271
68413,-10994,-3840,14581,-23043,-18942,30976,22083,10223,8187,59,1,30565,2020-11-02 15:28:48,2020-11-02 15:29:17,1,D7:F2:3B:06:4D:C8,59,59,-11486.147719113178,-14660.977007489491,1159.0344087108224
68414,-7677,25599,-32521,3582,-27132,-30975,5699,-30226,1531,59,1,30591,2020-11-02 15:28:48,2020-11-02 15:29:17,1,D7:F2:3B:06:4D:C8,59,59,-33362.85093412111,25599.0,-1863.316276860668
68415,-13297,11777,25338,2303,264,-25854,6467,-30739,-18182,59,1,30616,2020-11-02 15:28:48,2020-11-02 15:29:17,1,D7:F2:3B:06:4D:C8,59,59,-20781.082395444115,12146.986045863883,19445.295741524504
68416,7171,8448,-6396,23041,8717,18179,22339,-16917,27130,59,1,30642,2020-11-02 15:28:48,2020-11-02 15:29:17,1,D7:F2:3B:06:4D:C8,59,59,776.2452274503294,12313.005295150393,3389.410708140713
68417,-5366,-21763,6412,1287,25617,-18683,-26300,12777,-17671,59,1,30668,2020-11-02 15:28:48,2020-11-02 15:29:17,1,D7:F2:3B:06:4D:C8,59,59,17711.36204230882,-6942.679859070166,13477.489379729588
68418,-9464,19962,-5872,16656,24847,12811,28092,-27674,-10250,59,1,30693,2020-11-02 15:28:48,2020-11-02 15:29:17,1,D7:F2:3B:06:4D:C8,59,59,-15984.59452334698,-7479.897222200985,14528.351574404296
68419,-24050,3061,-4848,30235,30987,4115,2503,25317,11247,59,1,30719,2020-11-02 15:28:48,2020-11-02 15:29:17,1,D7:F2:3B:06:4D:C8,59,59,7900.236849174421,17969.23680732886,-15032.235738208881
68420,-15090,30702,25365,-20958,21000,14873,-3885,6887,32230,59,1,30744,2020-11-02 15:28:48,2020-11-02 15:29:17,1,D7:F2:3B:06:4D:C8,59,59,33182.60997818154,-3939.933702944836,26402.565149096525
68421,-2790,-2077,14596,17960,-9987,16666,6108,6891,1508,59,1,30770,2020-11-02 15:28:48,2020-11-02 15:29:17,1,D7:F2:3B:06:4D:C8,59,59,3657.940697847509,-13404.318383544185,5664.359056734517
68422,-30670,-1825,-5901,3619,-27655,-12025,-24864,-28435,-18715,59,1,30795,2020-11-02 15:28:48,2020-11-02 15:29:17,1,D7:F2:3B:06:4D:C8,59,59,-20903.138618998382,-8695.664111434313,21592.719780890307
68423,15408,-28705,22020,-7145,23545,9204,-6429,-27924,-10778,59,-1,30821,2020-11-02 15:28:48,2020-11-02 15:29:17,1,D7:F2:3B:06:4D:C8,59,59,11841.20784646342,-12852.47047242543,-35225.895141107285
68424,2853,27365,16640,6678,25845,-11287,4583,23273,14311,59,-1,30847,2020-11-02 15:28:48,2020-11-02 15:29:17,1,D7:F2:3B:06:4D:C8,59,59,-18866.256987337918,-24534.515634663425,-8717.472332056983
68425,-15587,15846,-10497,-23279,-1037,-26137,-25622,22245,-30746,59,-1,30872,2020-11-02 15:28:48,2020-11-02 15:29:17,1,D7:F2:3B:06:4D:C8,59,59,7446.257336372009,16663.89153901137,-16465.274502922544
68426,6174,24039,5374,16910,31475,10984,16880,26337,8419,59,-1,30898,2020-11-02 15:28:48,2020-11-02 15:29:17,1,D7:F2:3B:06:4D:C8,59,59,2325.758244181263,-23937.0810653509,-8153.445385874761
68427,17177,-25367,-26115,23561,18417,-13078,3080,26590,-5684,59,-1,30923,2020-11-02 15:28:48,2020-11-02 15:29:17,1,D7:F2:3B:06:4D:C8,59,59,8536.260689392282,-25367.0,30069.49962075751
68428,-31718,9188,-2307,27908,-11283,7918,-470,23776,28727,59,-1,30949,2020-11-02 15:28:48,2020-11-02 15:29:17,1,D7:F2:3B:06:4D:C8,59,59,15186.814898320723,-18948.6147123842,-22496.305712844514
68429,-6633,23022,-3324,-2819,-24084,22510,-1232,-797,24369,59,-1,30974,2020-11-02 15:28:48,2020-11-02 15:29:17,1,D7:F2:3B:06:4D:C8,59,59,21758.72518416746,-10028.312488144587,-3324.0
68430,3859,14834,13831,-19459,20971,13551,-14542,-12569,5167,59,-1,31000,2020-11-02 15:28:48,2020-11-02 15:29:17,1,D7:F2:3B:06:4D:C8,59,59,15892.831750011967,6403.370537085693,11517.410417736903
68431,-17132,17652,-768,7677,-15124,-13331,23347,-24085,-1747,59,-1,31026,2020-11-02 15:28:48,2020-11-02 15:29:17,1,D7:F2:3B:06:4D:C8,59,59,1467.9527809439567,-12119.341511880966,21369.488247295903
68432,7441,-8717,-19973,30967,-13841,-27672,28466,-18705,2094,59,-1,31051,2020-11-02 15:28:48,2020-11-02 15:29:17,1,D7:F2:3B:06:4D:C8,59,59,-10139.862864311792,-9417.804795717144,-18405.527238379174
68433,20744,21746,-12040,-22288,13299,8166,13104,244,-20690,59,-1,31077,2020-11-02 15:28:48,2020-11-02 15:29:17,1,D7:F2:3B:06:4D:C8,59,59,-20268.500445238104,-4806.806994963573,24783.98975577887
68434,-12031,5106,14328,-6423,-12044,11241,11309,3832,-210,59,-1,31102,2020-11-02 15:28:48,2020-11-02 15:29:17,1,D7:F2:3B:06:4D:C8,59,59,-12031.0,-9297.81269656482,12038.002286907826
68435,767,-17934,-5381,-9244,-22542,31984,-27607,22523,17966,59,-1,31128,2020-11-02 15:28:48,2020-11-02 15:29:17,1,D7:F2:3B:06:4D:C8,59,59,-72.44195156120418,-15944.136919456208,9846.37273605298
68436,-3077,24563,25604,-20765,30443,-4359,-25051,22013,-2005,59,-1,31154,2020-11-02 15:28:48,2020-11-02 15:29:17,1,D7:F2:3B:06:4D:C8,59,59,3307.7655685245545,-35432.619349137094,-1400.6737674558644
68437,-29700,16372,3076,3813,-2842,-2303,-11231,-29443,20264,59,-1,31179,2020-11-02 15:28:48,2020-11-02 15:29:17,1,D7:F2:3B:06:4D:C8,59,59,18227.58289344399,-14148.057479096136,25043.599011140945
68438,32247,6645,4619,-15645,-9750,21767,-3043,21500,-4060,59,-1,31205,2020-11-02 15:28:48,2020-11-02 15:29:17,1,D7:F2:3B:06:4D:C8,59,59,-31272.454720646037,6645.0,-9123.472241703996
68439,15864,4600,-9198,-8731,-4370,-6901,12314,-1287,-20702,59,-1,31232,2020-11-02 15:28:48,2020-11-02 15:29:17,1,D7:F2:3B:06:4D:C8,59,59,-14795.095618994326,-8623.627276106881,8010.486765958751
68440,1534,20472,14346,-17944,20213,26895,-17642,9719,-10463,59,1,31256,2020-11-02 15:28:48,2020-11-02 15:29:17,1,D7:F2:3B:06:4D:C8,59,59,-22673.42072701447,1548.0350615999323,-10525.361560718378
68441,27396,-16394,-29421,-5402,10235,783,-30702,-20748,-28638,59,1,31281,2020-11-02 15:28:48,2020-11-02 15:29:17,1,D7:F2:3B:06:4D:C8,59,59,-2323.804090649348,-33356.850409038634,27691.51058243844
68442,1030,15094,1557,-7702,-13574,24849,3086,-32270,16420,59,1,31307,2020-11-02 15:28:48,2020-11-02 15:29:17,1,D7:F2:3B:06:4D:C8,59,59,-14467.84782864645,-4658.026993043513,-546.0299801367894
68443,-21757,3571,27160,-9232,-21002,-3820,-25847,9456,-8410,59,1,31333,2020-11-02 15:28:48,2020-11-02 15:29:17,1,D7:F2:3B:06:4D:C8,59,59,-32454.45993703101,8181.658997090148,10176.108109242106
68444,30724,-25105,-1511,28409,-28179,17695,-29948,-7700,-27349,59,1,31358,2020-11-02 15:28:48,2020-11-02 15:29:17,1,D7:F2:3B:06:4D:C8,59,59,-20034.622923194063,31874.643219706868,12614.647277741133
68445,-4850,12265,-30188,20740,-20250,8743,-18180,15849,6709,59,1,31384,2020-11-02 15:28:48,2020-11-02 15:29:17,1,D7:F2:3B:06:4D:C8,59,59,28725.085451263956,14378.871022524054,-7306.545212013811
68446,-6895,-19227,2069,30478,13543,-29657,-20751,7144,-31677,59,1,31409,2020-11-02 15:28:48,2020-11-02 15:29:17,1,D7:F2:3B:06:4D:C8,59,59,-19430.72518324135,2446.462771062964,6161.254236204944
68447,27929,-28958,-10734,25879,31976,32292,-21271,4842,-15421,59,1,31435,2020-11-02 15:28:48,2020-11-02 15:29:17,1,D7:F2:3B:06:4D:C8,59,59,13067.970437742802,-36695.57789714823,14713.132651906815
68448,29471,-7456,-11763,6176,11239,-23012,-19226,-15636,-2356,59,1,31460,2020-11-02 15:28:48,2020-11-02 15:29:17,1,D7:F2:3B:06:4D:C8,59,59,-23810.042507329243,5721.389399844703,21513.891445633897
68449,-22747,15842,-20479,-10207,-13078,-31472,-10010,17134,-11309,59,1,31486,2020-11-02 15:28:48,2020-11-02 15:29:17,1,D7:F2:3B:06:4D:C8,59,59,-14168.906217703498,6014.611200154559,30835.871362828366
68450,13593,16871,-10237,-30692,-4114,22790,17384,24302,26072,59,1,31512,2020-11-02 15:28:48,2020-11-02 15:29:17,1,D7:F2:3B:06:4D:C8,59,59,451.7829917454819,23865.341732422203,2106.612238423725
68451,-28633,-2589,-30756,8985,4333,15105,-30743,28397,18652,59,1,31537,2020-11-02 15:28:48,2020-11-02 15:29:17,1,D7:F2:3B:06:4D:C8,59,59,-30983.43132306372,-24632.40034553927,-14344.161971550322
68452,6684,-14362,-12285,12045,-11788,5879,19946,28651,-803,59,1,31563,2020-11-02 15:28:48,2020-11-02 15:29:17,1,D7:F2:3B:06:4D:C8,59,59,-7822.979736059292,15951.931535191066,9284.449006041363
68453,2061,15592,1790,-8944,19952,-12294,5867,19177,-4641,59,1,31588,2020-11-02 15:28:48,2020-11-02 15:29:17,1,D7:F2:3B:06:4D:C8,59,59,-52.366641253932215,6918.160490289901,-14237.225788947635
68454,-27127,-21786,-12292,12558,18667,16642,7401,-24089,-13596,59,1,31614,2020-11-02 15:28:48,2020-11-02 15:29:17,1,D7:F2:3B:06:4D:C8,59,59,-811.7981454162473,1656.864032361009,36853.66975416922
68455,-28409,-26907,-32262,21517,26087,-19448,-17949,3815,9197,59,1,31639,2020-11-02 15:28:48,2020-11-02 15:29:17,1,D7:F2:3B:06:4D:C8,59,59,-33933.26288202353,-11972.819028944828,35736.253982190414
68456,4370,20454,7163,-1782,6115,-1782,11229,9448,-31754,59,1,31665,2020-11-02 15:28:48,2020-11-02 15:29:17,1,D7:F2:3B:06:4D:C8,59,59,884.2825766475407,20700.139212662816,7713.2266854421505
68457,-1524,5864,23785,-14845,22242,-29692,-16426,-2839,19711,59,1,31691,2020-11-02 15:28:48,2020-11-02 15:29:17,1,D7:F2:3B:06:4D:C8,59,59,-1198.971021240785,-19210.403626958956,-15230.172618179578
68458,-12814,6636,24096,-7692,6889,-29701,24785,8427,4357,59,1,31716,2020-11-02 15:28:48,2020-11-02 15:29:17,1,D7:F2:3B:06:4D:C8,59,59,-24402.75350072838,13898.333858888907,-440.7329458424865
68459,-25073,-21518,31478,22776,28400,3328,-12595,-30739,-19704,59,1,31742,2020-11-02 15:28:48,2020-11-02 15:29:17,1,D7:F2:3B:06:4D:C8,59,59,6204.919216728282,-37072.880760809785,25877.492664643072
68460,21263,18414,14331,12269,13560,-29967,23753,-25875,-19445,59,1,31767,2020-11-02 15:28:48,2020-11-02 15:29:17,1,D7:F2:3B:06:4D:C8,59,59,31050.712815201496,5628.662778965936,-859.9505733266215
68461,10247,-11026,-14337,-537,-2562,-10007,-10814,-29972,-1777,59,1,31793,2020-11-02 15:28:48,2020-11-02 15:29:17,1,D7:F2:3B:06:4D:C8,59,59,4375.513800112354,-18021.54273369292,-9391.598931103597
68462,32261,-17420,19970,-10778,17412,-2328,-2118,19435,13077,59,1,31819,2020-11-02 15:28:48,2020-11-02 15:29:17,1,D7:F2:3B:06:4D:C8,59,59,27958.149303519385,-19229.446238003246,-24322.82273713027
68463,26618,32763,2818,21479,19461,31213,28479,-10518,-22246,59,1,31844,2020-11-02 15:28:48,2020-11-02 15:29:17,1,D7:F2:3B:06:4D:C8,59,59,-39149.03486017083,13897.01886712992,8006.1946718627605
68464,19702,19452,-19459,8681,-14337,-29445,-17607,14059,19997,59,1,31870,2020-11-02 15:28:48,2020-11-02 15:29:17,1,D7:F2:3B:06:4D:C8,59,59,-3648.549984139052,22745.901369155104,-24789.389724596025
68465,-10244,-10243,-21504,12778,30205,23815,-1738,10219,29212,59,1,31895,2020-11-02 15:28:48,2020-11-02 15:29:17,1,D7:F2:3B:06:4D:C8,59,59,-16525.155920450277,19753.68393063257,-2998.6320170163854
68466,10489,28162,13587,-21015,26619,15630,-4811,25322,-31719,59,1,31921,2020-11-02 15:28:48,2020-11-02 15:29:17,1,D7:F2:3B:06:4D:C8,59,59,-31866.838844194604,-8446.262657688789,-942.9545033890372
68467,27906,-25086,2303,-27411,2562,10772,32310,-21016,30485,59,1,31946,2020-11-02 15:28:48,2020-11-02 15:29:17,1,D7:F2:3B:06:4D:C8,59,59,-13531.730038500096,28443.54251501315,-20523.4795383676
68468,-22520,-18690,-5116,-16921,16891,21778,-27849,-2842,27664,59,1,31972,2020-11-02 15:28:48,2020-11-02 15:29:17,1,D7:F2:3B:06:4D:C8,59,59,26895.796243026478,6527.111615413425,-10800.597872966939
68469,-28151,27137,12317,-5898,30462,17941,-11462,25061,10762,59,1,31998,2020-11-02 15:28:48,2020-11-02 15:29:17,1,D7:F2:3B:06:4D:C8,59,59,22206.15293478431,34411.61157323907,-1825.3273047563935
68470,-7128,-22528,25608,23814,-12552,6933,12612,-2844,19200,59,1,32023,2020-11-02 15:28:48,2020-11-02 15:29:17,1,D7:F2:3B:06:4D:C8,59,59,9019.692760503041,12765.221454459892,-31141.34062182818
68471,-11216,-14853,-3074,-16632,-25348,5136,19647,-28955,15865,59,1,32049,2020-11-02 15:28:48,2020-11-02 15:29:17,1,D7:F2:3B:06:4D:C8,59,59,-12819.073069407586,-8366.785458154758,11023.974226130938
68472,-24290,-11781,-8452,-8694,-27138,-9976,-13885,23270,-2571,59,1,32074,2020-11-02 15:28:48,2020-11-02 15:29:17,1,D7:F2:3B:06:4D:C8,59,59,5107.92650620554,-2782.755970168777,-27683.88919602325
68473,-20712,-24840,27128,-11507,1275,21769,-29753,23783,-6413,59,1,32100,2020-11-02 15:28:48,2020-11-02 15:29:17,1,D7:F2:3B:06:4D:C8,59,59,-13910.822787101559,-39522.89751106333,-5135.222460209431
68474,-4582,-31755,-29964,12815,-4106,4873,32458,12265,6643,59,1,32126,2020-11-02 15:28:48,2020-11-02 15:29:17,1,D7:F2:3B:06:4D:C8,59,59,43572.53310300929,-1991.250662716393,-4968.432829916358
68475,-2533,31476,19457,6416,-29448,26371,32460,-18966,-29709,59,1,32151,2020-11-02 15:28:48,2020-11-02 15:29:17,1,D7:F2:3B:06:4D:C8,59,59,-24754.58041316401,13567.449916501071,24059.604430069743
68476,-5860,10221,9449,-12786,-21508,-30469,3022,9195,-11020,59,1,32202,2020-11-02 15:28:48,2020-11-02 15:29:17,1,D7:F2:3B:06:4D:C8,59,59,11185.960859842571,1496.0855996105302,10036.336459122325
68477,19734,1770,3318,11023,8954,-5642,29134,-21270,4855,59,1,32204,2020-11-02 15:28:48,2020-11-02 15:29:17,1,D7:F2:3B:06:4D:C8,59,59,-19429.81040753398,3683.792811602204,3533.4003521356417
68478,29712,32487,-15630,-24054,-1284,17655,30414,2794,25081,59,1,32228,2020-11-02 15:28:48,2020-11-02 15:29:17,1,D7:F2:3B:06:4D:C8,59,59,-23789.81745338531,-18712.857935705746,-35586.2128697716
68479,10508,-13851,-28695,22025,18170,-8968,-5171,-21271,-4357,59,1,32255,2020-11-02 15:28:48,2020-11-02 15:29:17,1,D7:F2:3B:06:4D:C8,59,59,-6353.402522999591,-13851.0,29890.723734642866
68480,-11004,-30999,-11021,15622,10235,-18442,-21812,17129,-18434,59,1,32279,2020-11-02 15:28:48,2020-11-02 15:29:17,1,D7:F2:3B:06:4D:C8,59,59,-14181.912370892715,-31449.577131431473,3644.9852891969867
68481,-5117,-22295,-3091,29953,-29445,31480,4811,-3608,17409,59,1,32305,2020-11-02 15:28:48,2020-11-02 15:29:17,1,D7:F2:3B:06:4D:C8,59,59,8212.062184799219,21349.77163046459,-3091.0
68482,2051,24301,-15108,-12037,2556,-1543,-16184,-5400,-27389,59,1,32330,2020-11-02 15:28:48,2020-11-02 15:29:17,1,D7:F2:3B:06:4D:C8,59,59,16709.45685602211,17141.896283991668,-15809.690362736663
68483,-24820,9713,-24319,24061,-18180,-25611,23750,-27160,-13051,59,1,32356,2020-11-02 15:28:48,2020-11-02 15:29:17,1,D7:F2:3B:06:4D:C8,59,59,-31950.85695001763,-10331.237099762668,13198.363919365067
68484,27398,30716,-27914,-22275,-3083,2036,15042,16873,16650,59,-1,32381,2020-11-02 15:28:48,2020-11-02 15:29:17,1,D7:F2:3B:06:4D:C8,59,59,-21676.565483620376,17086.95693722718,-41369.999606715755
68485,17425,5889,-27129,-19207,19198,-4113,-5443,4073,19214,59,-1,32407,2020-11-02 15:28:48,2020-11-02 15:29:17,1,D7:F2:3B:06:4D:C8,59,59,-18081.67498072732,-3371.049672036837,-27129.0
68486,-23019,-1789,-24071,7158,4095,-9237,-17340,233,-14317,59,-1,32432,2020-11-02 15:28:48,2020-11-02 15:29:17,1,D7:F2:3B:06:4D:C8,59,59,8100.9454209421765,21607.690300657225,24082.573080088423
68487,-25069,-8447,28147,-19730,17412,28128,-5317,-23575,-25317,59,-1,32458,2020-11-02 15:28:48,2020-11-02 15:29:17,1,D7:F2:3B:06:4D:C8,59,59,-18241.75243221403,34043.63333354123,574.1747584263685
68488,-30716,-27138,-19727,31722,-30717,14300,-10702,-29972,10275,59,-1,32484,2020-11-02 15:28:48,2020-11-02 15:29:17,1,D7:F2:3B:06:4D:C8,59,59,27907.951186346087,-14396.923427359918,32908.556416337364
68489,30458,-19969,-23048,19430,-7932,-23584,-9429,-27152,-15065,59,-1,32509,2020-11-02 15:28:48,2020-11-02 15:29:17,1,D7:F2:3B:06:4D:C8,59,59,-20530.99778195868,27669.888460464248,-25894.33203739141
68490,30192,29954,13056,29670,-5631,-21012,-9690,7156,-25047,59,-1,32535,2020-11-02 15:28:48,2020-11-02 15:29:17,1,D7:F2:3B:06:4D:C8,59,59,-21241.85351386432,-16973.427643506566,-35212.846083868
68491,-17939,-23295,767,-32540,-2305,-20738,-17374,-30731,-6615,59,-1,32560,2020-11-02 15:28:48,2020-11-02 15:29:17,1,D7:F2:3B:06:4D:C8,59,59,18057.40184768867,14760.874517883616,17919.259386994323
68492,7160,-19450,8468,14570,-7430,-30192,-2530,7412,-26583,59,-1,32586,2020-11-02 15:28:48,2020-11-02 15:29:17,1,D7:F2:3B:06:4D:C8,59,59,7533.558526818753,21033.76162409455,-1449.6523251331319
68493,30221,-13048,14602,25329,-11780,22037,20252,-7696,-17367,59,-1,32612,2020-11-02 15:28:48,2020-11-02 15:29:17,1,D7:F2:3B:06:4D:C8,59,59,-28209.344141671085,-14987.679867817238,16624.6775691017
68494,14607,22790,-20226,-29969,-16128,-10994,12313,23022,-4054,59,-1,32663,2020-11-02 15:28:48,2020-11-02 15:29:17,1,D7:F2:3B:06:4D:C8,59,59,-31600.901932992772,8907.463350066862,-7992.478882586398
68495,-15090,-30721,4101,6122,-5123,-1524,4117,-28948,25644,59,-1,32665,2020-11-02 15:28:48,2020-11-02 15:29:17,1,D7:F2:3B:06:4D:C8,59,59,-23022.3177385469,20343.887805600396,15633.465927251451
68496,22545,-2051,-27125,-22292,-20493,2834,-11248,-6167,-22739,59,-1,32688,2020-11-02 15:28:48,2020-11-02 15:29:17,1,D7:F2:3B:06:4D:C8,59,59,-26207.851875820346,20439.153118620787,11984.939334374378
68497,7189,7677,26634,1525,9454,27157,-13044,-3355,-19409,59,-1,32714,2020-11-02 15:28:48,2020-11-02 15:29:17,1,D7:F2:3B:06:4D:C8,59,59,-4150.224027737717,-21827.587708342708,-18064.33119033735
68498,-28132,-27648,-9459,12286,-31755,14351,1799,-11806,-8908,59,-1,32740,2020-11-02 15:28:48,2020-11-02 15:29:17,1,D7:F2:3B:06:4D:C8,59,59,-12292.483464360022,-32026.944259855285,-21644.02228456066
68499,8989,-4867,-9471,-16635,-5126,19717,-3326,31201,-25799,59,-1,32765,2020-11-02 15:28:48,2020-11-02 15:29:17,1,D7:F2:3B:06:4D:C8,59,59,-3919.7014390727727,11984.267236636679,5933.2057464247355
68500,31766,7420,-10242,-23035,14327,29446,1536,-29984,29501,59,1,32791,2020-11-02 15:28:48,2020-11-02 15:29:17,1,D7:F2:3B:06:4D:C8,59,59,6885.31291281473,2881.9714122817913,-33366.45661246362
68501,-2030,-15622,12540,-3065,27116,-5876,-17684,-13602,19653,59,1,32816,2020-11-02 15:28:48,2020-11-02 15:29:17,1,D7:F2:3B:06:4D:C8,59,59,-12459.524730743735,-15633.471471435452,2402.9559371322357
68502,5396,-2569,12022,24330,22508,10511,19411,225,24288,59,1,32842,2020-11-02 15:28:48,2020-11-02 15:29:17,1,D7:F2:3B:06:4D:C8,59,59,-2886.241502424239,-4637.176377491556,-12264.227094836353
68503,-29420,-1802,30966,-4594,31211,11788,16079,23780,-25626,59,1,32867,2020-11-02 15:28:48,2020-11-02 15:29:17,1,D7:F2:3B:06:4D:C8,59,59,987.1069508570454,40787.30620954778,-12770.983988563865
68504,15381,13556,6385,-12272,27891,-32762,-4658,-3866,-20247,59,1,32893,2020-11-02 15:28:48,2020-11-02 15:29:17,1,D7:F2:3B:06:4D:C8,59,59,-13314.05176095189,-15590.905127884456,6385.0
68505,-10995,14834,-31245,11536,-28938,-9215,28623,19688,-8213,59,1,32919,2020-11-02 15:28:48,2020-11-02 15:29:17,1,D7:F2:3B:06:4D:C8,59,59,-21474.30162021776,-28266.47515564706,-7553.036356267621
68506,-18928,-27661,17911,-4081,13048,-4867,208,4329,-19,59,1,32944,2020-11-02 15:28:48,2020-11-02 15:29:17,1,D7:F2:3B:06:4D:C8,59,59,-18928.0,-27661.0,17911.0
68507,27157,32756,-18954,-12019,15103,19701,-29232,32488,240,59,1,32970,2020-11-02 15:28:48,2020-11-02 15:29:17,1,D7:F2:3B:06:4D:C8,59,59,-17261.211464690743,27467.089248998564,33426.36516223049
68508,6428,-5133,28667,-28406,-5118,5098,-1585,10726,-19214,59,1,32995,2020-11-02 15:28:48,2020-11-02 15:29:17,1,D7:F2:3B:06:4D:C8,59,59,-28043.71876539156,1187.352617151911,10079.870711976804
68509,-18920,20725,-9224,-14074,-27389,-21277,31435,-24862,-10248,59,1,33021,2020-11-02 15:28:48,2020-11-02 15:29:17,1,D7:F2:3B:06:4D:C8,59,59,-5010.395285150091,2313.3040994455723,29019.2826277638
68510,15895,13051,29439,-10748,-7937,31968,30532,-28960,-24563,59,1,33046,2020-11-02 15:28:48,2020-11-02 15:29:17,1,D7:F2:3B:06:4D:C8,59,59,-24503.16446118205,-20481.789265283827,-16423.32447712001
68511,-5868,14078,-20742,-13820,-3073,-24097,-21199,15331,-32223,59,1,33072,2020-11-02 15:28:48,2020-11-02 15:29:17,1,D7:F2:3B:06:4D:C8,59,59,21648.282944596194,13730.552204799904,-2382.8247316934476
68512,14606,30207,31220,-29953,18689,-10787,-24789,-19225,23336,59,1,33098,2020-11-02 15:28:48,2020-11-02 15:29:17,1,D7:F2:3B:06:4D:C8,59,59,-23146.091485545956,39555.14310977836,-368.2220901722285
68513,-14076,9470,-17931,16379,14338,19680,-27864,28396,32043,59,1,33123,2020-11-02 15:28:48,2020-11-02 15:29:17,1,D7:F2:3B:06:4D:C8,59,59,5632.282770695574,6977.622977729275,-22998.382668604987
68514,-27140,4864,-8204,18169,27905,-14872,-25050,28400,3117,59,1,33149,2020-11-02 15:28:48,2020-11-02 15:29:17,1,D7:F2:3B:06:4D:C8,59,59,10895.684260366768,3029.485099625635,-26450.897839762303
68515,-27397,28673,7924,-5388,-9472,24307,-10460,499,-21203,59,1,33174,2020-11-02 15:28:48,2020-11-02 15:29:17,1,D7:F2:3B:06:4D:C8,59,59,30250.03027452853,-18071.873923346462,-19846.142075697677
68516,20738,-29697,-29964,-32277,-13823,-12806,19746,12788,-7635,59,-1,33200,2020-11-02 15:28:48,2020-11-02 15:29:17,1,D7:F2:3B:06:4D:C8,59,59,36149.33869214043,5940.577022825088,-29457.64087222195
68517,10245,-21505,-13568,29413,-10239,25341,28446,-17676,8750,59,-1,33226,2020-11-02 15:28:48,2020-11-02 15:29:17,1,D7:F2:3B:06:4D:C8,59,59,-10584.895850909765,-9473.535222463466,-23446.274420771784
68518,-1534,2307,-24054,2023,1023,19457,25370,-12300,14382,59,-1,33251,2020-11-02 15:28:48,2020-11-02 15:29:17,1,D7:F2:3B:06:4D:C8,59,59,22947.329728485296,-2772.734808551589,-7211.263482471105
68519,-21502,-2552,-22505,17644,-7171,-14843,-6634,9972,18734,59,-1,33277,2020-11-02 15:28:48,2020-11-02 15:29:17,1,D7:F2:3B:06:4D:C8,59,59,22708.88736322808,17284.45184050109,12683.76491021568
68520,29194,28937,22537,-15120,-8703,8454,1556,18675,-2258,59,-1,33302,2020-11-02 15:28:48,2020-11-02 15:29:17,1,D7:F2:3B:06:4D:C8,59,59,-25721.419324108178,28937.0,-26431.318411184002
68521,4361,-21501,-14592,4075,-30968,30464,-20208,-27405,5168,59,-1,33328,2020-11-02 15:28:48,2020-11-02 15:29:17,1,D7:F2:3B:06:4D:C8,59,59,10378.512944906746,19226.60551179659,-14726.23154599152
68522,-18940,-7170,524,26597,-24828,3841,27148,29172,-5584,59,-1,33353,2020-11-02 15:28:48,2020-11-02 15:29:17,1,D7:F2:3B:06:4D:C8,59,59,-10247.507106914345,5083.1892691334515,-16719.953975651566
68523,-9977,-28418,-14574,-16406,-2318,-19703,25352,22259,-31695,59,-1,33379,2020-11-02 15:28:48,2020-11-02 15:29:17,1,D7:F2:3B:06:4D:C8,59,59,-3191.6239174053717,15811.339794074702,-29314.498114178175
68524,-18931,-15108,10251,-9488,-22041,-32498,-3324,-22289,-11214,59,-1,33405,2020-11-02 15:28:48,2020-11-02 15:29:17,1,D7:F2:3B:06:4D:C8,59,59,-3368.4548353504492,-22716.06628199748,-12819.955955232512
68525,-31728,-27395,-18162,-25356,15848,21773,9473,-20245,14389,59,-1,33456,2020-11-02 15:28:48,2020-11-02 15:29:17,1,D7:F2:3B:06:4D:C8,59,59,-15438.994852191794,32578.462082130452,28058.715211448714
68526,-5354,-5379,4879,-11523,15081,-17142,17661,16872,-16840,59,-1,33458,2020-11-02 15:28:48,2020-11-02 15:29:17,1,D7:F2:3B:06:4D:C8,59,59,5403.875617890103,665.834868871867,7194.33042289324
68527,10519,21243,-15098,19717,27622,-19192,-1032,-2332,-5315,59,-1,33481,2020-11-02 15:28:48,2020-11-02 15:29:17,1,D7:F2:3B:06:4D:C8,59,59,10519.0,21243.0,-15098.0
68528,13334,19451,-30460,12041,-17180,6409,11503,1250,-18244,59,-1,33507,2020-11-02 15:28:48,2020-11-02 15:29:17,1,D7:F2:3B:06:4D:C8,59,59,-10434.222886390664,-21288.24732877093,30362.576890412296
68529,-1260,22523,6907,-9205,-17943,23558,15838,27361,-14897,59,-1,33533,2020-11-02 15:28:48,2020-11-02 15:29:17,1,D7:F2:3B:06:4D:C8,59,59,-9031.543068948904,17880.78870313068,-12461.476764321125
68530,-20457,-18183,15102,-8946,9717,29955,20950,28898,-39,59,1,33558,2020-11-02 15:28:48,2020-11-02 15:29:17,1,D7:F2:3B:06:4D:C8,59,59,10994.457069289992,15869.839203965785,-24585.582348030923
68531,18717,5620,-4362,23313,-20231,20992,8149,1763,-3107,59,1,33584,2020-11-02 15:28:48,2020-11-02 15:29:17,1,D7:F2:3B:06:4D:C8,59,59,18717.0,6706.99539471099,2372.268276423553
68532,-5865,24307,-29456,-2287,8953,21755,-15149,1763,14050,59,1,33609,2020-11-02 15:28:48,2020-11-02 15:29:17,1,D7:F2:3B:06:4D:C8,59,59,35993.363571153175,10022.599996396639,-9844.27133651922
68533,-24046,31985,743,29708,-6660,11256,-15407,-32286,-19994,59,1,33635,2020-11-02 15:28:48,2020-11-02 15:29:17,1,D7:F2:3B:06:4D:C8,59,59,32873.31497498555,17448.547450986418,14720.589132438492
68534,6163,-6926,1525,13065,-28675,27637,-19250,-30239,18923,59,1,33686,2020-11-02 15:28:48,2020-11-02 15:29:17,1,D7:F2:3B:06:4D:C8,59,59,-2223.334365601502,-6826.454850273536,-6060.855424435751
68535,-28147,-7946,1014,26122,252,-16906,20169,-4640,23026,59,1,33688,2020-11-02 15:28:48,2020-11-02 15:29:17,1,D7:F2:3B:06:4D:C8,59,59,24243.183801922696,16253.378701459364,-2125.1919755965564
68536,-22769,7163,-9475,8970,8957,-28940,-7999,-25120,31483,59,1,33711,2020-11-02 15:28:48,2020-11-02 15:29:17,1,D7:F2:3B:06:4D:C8,59,59,-2105.4955097517086,-7345.855445001909,24517.684463251237
68537,22803,-27906,13569,32522,3070,31217,-30908,-19488,12039,59,1,33737,2020-11-02 15:28:48,2020-11-02 15:29:17,1,D7:F2:3B:06:4D:C8,59,59,27078.301400797223,-8878.379051899157,25899.40896349531
68538,30742,12542,-26633,6662,-31743,17899,-18632,-21023,-29164,59,1,33763,2020-11-02 15:28:48,2020-11-02 15:29:17,1,D7:F2:3B:06:4D:C8,59,59,5892.8541334081365,-37100.941650932524,-20012.081745197695
68539,-24046,28415,24319,25856,-24572,2531,16686,20964,-17633,59,1,33788,2020-11-02 15:28:48,2020-11-02 15:29:17,1,D7:F2:3B:06:4D:C8,59,59,-30552.304693561062,29925.959136652935,-12166.747702783416
68540,-32244,-7170,-11789,-518,-17657,24029,11560,-24600,5158,59,1,33814,2020-11-02 15:28:48,2020-11-02 15:29:17,1,D7:F2:3B:06:4D:C8,59,59,19854.827052753648,13703.480182890973,25457.1292682886
68541,28157,9983,-2320,-7694,23046,-6431,21028,27629,-216,59,1,33839,2020-11-02 15:28:48,2020-11-02 15:29:17,1,D7:F2:3B:06:4D:C8,59,59,-21209.03837236146,-9555.696674863353,18887.15675737628
68542,25587,-27648,22519,-26389,3843,28144,6177,-11792,-13015,59,1,33865,2020-11-02 15:28:48,2020-11-02 15:29:17,1,D7:F2:3B:06:4D:C8,59,59,-30582.04946983195,14608.267648981118,27884.558460203076
68543,-13321,-3073,13567,16104,1790,25344,-16355,-17935,-24535,59,1,33891,2020-11-02 15:28:48,2020-11-02 15:29:17,1,D7:F2:3B:06:4D:C8,59,59,-19187.147466627328,1385.5006508513416,943.1961834035856
68544,20476,13824,23045,-19989,-5895,-23285,-26854,30448,16937,59,1,33916,2020-11-02 15:28:48,2020-11-02 15:29:17,1,D7:F2:3B:06:4D:C8,59,59,19821.78999160158,20311.533195542805,18329.75280180303
68545,-763,-1280,-11255,-3346,31228,-9970,30487,13550,-18903,59,1,33942,2020-11-02 15:28:48,2020-11-02 15:29:17,1,D7:F2:3B:06:4D:C8,59,59,-119.58253635303322,11251.504287641264,1511.603546631715
68546,2316,20482,-29430,-5648,-5374,-25591,-7917,-20756,19243,59,1,33967,2020-11-02 15:28:48,2020-11-02 15:29:17,1,D7:F2:3B:06:4D:C8,59,59,-426.4289439763329,13897.273926176813,33131.329822036205
68547,22793,-16637,-16108,29939,-15101,-21753,5904,20972,23597,59,1,33993,2020-11-02 15:28:48,2020-11-02 15:29:17,1,D7:F2:3B:06:4D:C8,59,59,20298.66302751265,16517.676185402288,19258.9962025461
68548,21775,-20734,-21747,21494,-29956,-5876,-11508,19179,30767,59,1,34019,2020-11-02 15:28:48,2020-11-02 15:29:17,1,D7:F2:3B:06:4D:C8,59,59,-15686.217421741987,13733.913897549155,-30696.963726931433
68549,25869,-16899,26119,29426,22516,22801,-20216,5865,15410,59,-1,34044,2020-11-02 15:28:48,2020-11-02 15:29:17,1,D7:F2:3B:06:4D:C8,59,59,-16160.94051023512,-13746.81859170838,-34450.435460691966
68550,4631,31996,-2036,-17674,20455,-4331,8706,32741,-29641,59,-1,34070,2020-11-02 15:28:48,2020-11-02 15:29:17,1,D7:F2:3B:06:4D:C8,59,59,-24871.953560424103,-17096.295425629676,11765.9713499439
68551,11541,20219,-19451,-3330,-4640,-29161,-11278,-4639,13754,59,-1,34095,2020-11-02 15:28:48,2020-11-02 15:29:17,1,D7:F2:3B:06:4D:C8,59,59,146.62781842099685,12759.322044149903,-27523.121993272045
68552,7451,-1031,-9980,-8955,29157,-31470,-8996,-10270,14801,59,-1,34121,2020-11-02 15:28:48,2020-11-02 15:29:17,1,D7:F2:3B:06:4D:C8,59,59,4882.950740737542,10849.241578584479,3825.115845702516
68553,-6882,-22027,12792,22281,-19217,-16120,-9259,18405,-2087,59,-1,34146,2020-11-02 15:28:48,2020-11-02 15:29:17,1,D7:F2:3B:06:4D:C8,59,59,10404.156777661254,-1137.1420536949026,-24220.78336254969
68554,28183,-1037,-29705,28684,10228,-6910,-12077,-23834,-1315,59,-1,34172,2020-11-02 15:28:48,2020-11-02 15:29:17,1,D7:F2:3B:06:4D:C8,59,59,-8352.696393492375,-26579.135794357488,-30025.42066954673
68555,24598,32244,-524,-13554,25843,7937,-20270,-18713,-26911,59,-1,34198,2020-11-02 15:28:48,2020-11-02 15:29:17,1,D7:F2:3B:06:4D:C8,59,59,39759.64222127457,2914.5369712015986,7462.442005117301
68556,-28650,-18702,22259,-26097,20213,22270,4562,29928,-2588,59,-1,34223,2020-11-02 15:28:48,2020-11-02 15:29:17,1,D7:F2:3B:06:4D:C8,59,59,-29471.617043248232,-18702.0,-21159.143882872962
68557,-22506,-25107,26861,-12276,-8202,-1541,31953,-14616,15592,59,-1,34249,2020-11-02 15:28:48,2020-11-02 15:29:17,1,D7:F2:3B:06:4D:C8,59,59,-8849.506798781025,-25445.164448087395,-33654.48917496919
68558,-6896,-9747,19949,1546,25336,2553,27600,-19736,28139,59,-1,34275,2020-11-02 15:28:48,2020-11-02 15:29:17,1,D7:F2:3B:06:4D:C8,59,59,11262.644237802251,-19804.24756753244,4633.146776930906
68559,4625,31729,-2579,-8953,5372,26355,-4146,-1305,-24594,59,-1,34300,2020-11-02 15:28:48,2020-11-02 15:29:17,1,D7:F2:3B:06:4D:C8,59,59,-27035.68812011946,-17239.246905582375,-2579.0
68560,10235,27116,-18965,20224,-5635,-7693,16332,-26906,19442,59,-1,34325,2020-11-02 15:28:48,2020-11-02 15:29:17,1,D7:F2:3B:06:4D:C8,59,59,-18604.514885106848,-3368.8323910060626,-29021.145742564095
68561,21776,-28944,14076,1539,11259,-24846,-26424,7142,26870,59,-1,34351,2020-11-02 15:28:48,2020-11-02 15:29:17,1,D7:F2:3B:06:4D:C8,59,59,15674.19606670449,5501.410160103147,-35130.28824124305
68562,-6383,-8209,30200,23043,2307,10475,-17725,-31004,22268,59,-1,34402,2020-11-02 15:28:48,2020-11-02 15:29:17,1,D7:F2:3B:06:4D:C8,59,59,27327.24217645234,-16409.309504850073,-2031.444462337442
68563,18439,2807,-27393,21248,-14335,21994,21178,22499,28934,59,-1,34404,2020-11-02 15:28:48,2020-11-02 15:29:17,1,D7:F2:3B:06:4D:C8,59,59,-3034.516364330657,14089.5158088099,-29841.74381144482
68564,5385,20990,-3839,11775,-10498,11503,2366,-7453,-17393,59,-1,34428,2020-11-02 15:28:48,2020-11-02 15:29:17,1,D7:F2:3B:06:4D:C8,59,59,-3116.3806379373077,-21646.410184250366,2457.100700962734
68565,18706,-29435,-24570,-21759,23808,2540,-29129,18661,-21226,59,-1,34453,2020-11-02 15:28:48,2020-11-02 15:29:17,1,D7:F2:3B:06:4D:C8,59,59,25397.15985510384,-11744.660324032624,32203.50580553918
68566,-26862,17921,20974,15100,-11003,-21024,-21712,-10521,16414,59,1,34479,2020-11-02 15:28:48,2020-11-02 15:29:17,1,D7:F2:3B:06:4D:C8,59,59,11324.168059928801,10776.887412878483,-35188.91695464113
68567,-12803,-20740,13811,24051,2056,-1060,10026,8428,18980,59,1,34504,2020-11-02 15:28:48,2020-11-02 15:29:17,1,D7:F2:3B:06:4D:C8,59,59,18391.833442212566,20436.48813578008,5375.736722536887
68568,-29202,-22782,17403,-4882,19717,6379,-16347,8432,7719,59,1,34530,2020-11-02 15:28:48,2020-11-02 15:29:17,1,D7:F2:3B:06:4D:C8,59,59,-23692.729453224638,9935.94864424381,31852.350503459737
68569,-26895,-19709,510,-1813,28928,7935,-27614,-31247,-24537,59,1,34556,2020-11-02 15:28:48,2020-11-02 15:29:17,1,D7:F2:3B:06:4D:C8,59,59,5087.285482449827,-25008.67854697016,21464.653031306367
68570,19700,-8190,-30714,-26131,21244,4111,-22241,14832,29479,59,1,34581,2020-11-02 15:28:48,2020-11-02 15:29:17,1,D7:F2:3B:06:4D:C8,59,59,9434.177608133406,-18588.953940775617,-31047.753223798933
68571,10758,24834,1292,14576,-26370,-492,-10468,12269,-15577,59,1,34607,2020-11-02 15:28:48,2020-11-02 15:29:17,1,D7:F2:3B:06:4D:C8,59,59,22695.78807968781,14735.60096051637,-1376.463502723474
68572,7956,-3835,10508,4085,18694,-14581,10521,1771,-5591,59,1,34632,2020-11-02 15:28:48,2020-11-02 15:29:17,1,D7:F2:3B:06:4D:C8,59,59,7956.0,-10914.236451365692,2450.4554033241297
68573,3854,-19708,-15610,25845,-1784,6149,12309,-13078,-12500,59,1,34658,2020-11-02 15:28:48,2020-11-02 15:29:17,1,D7:F2:3B:06:4D:C8,59,59,16708.648752672427,-17307.408679688204,8258.652532590993
68574,12564,-17918,-4850,18932,-24064,23305,-29167,28394,5423,59,1,34684,2020-11-02 15:28:48,2020-11-02 15:29:17,1,D7:F2:3B:06:4D:C8,59,59,5832.185733414953,-431.8763070138666,21638.632406563756
68575,-30706,30466,29183,1268,-24589,-17905,23054,18920,-16592,59,1,34709,2020-11-02 15:28:48,2020-11-02 15:29:17,1,D7:F2:3B:06:4D:C8,59,59,-8201.186952384105,-23138.897173783676,46043.62117767357
68576,7696,-23044,-20475,20465,-1045,15897,17928,22244,-3788,59,1,34735,2020-11-02 15:28:48,2020-11-02 15:29:17,1,D7:F2:3B:06:4D:C8,59,59,-5217.384048240008,25702.819256686445,-17933.877521363836
68577,14361,-31748,2058,17914,-28703,15901,-16398,29152,-16708,59,1,34760,2020-11-02 15:28:48,2020-11-02 15:29:17,1,D7:F2:3B:06:4D:C8,59,59,23198.095105825596,14443.95051936866,21717.040909274456
68578,6433,-16390,-18943,-1531,23781,-2285,-18217,-13598,-32296,59,1,34786,2020-11-02 15:28:48,2020-11-02 15:29:17,1,D7:F2:3B:06:4D:C8,59,59,-19189.158366902473,-17091.488785710317,-2917.1990432391294
68579,15139,-7693,-28943,17929,-4365,-23290,-2606,28901,-3106,59,1,34812,2020-11-02 15:28:48,2020-11-02 15:29:17,1,D7:F2:3B:06:4D:C8,59,59,32048.507107302998,-7693.0,6307.119960263097
68580,-31716,5874,-15118,11272,8956,766,18898,-3611,-32,59,1,34863,2020-11-02 15:28:48,2020-11-02 15:29:17,1,D7:F2:3B:06:4D:C8,59,59,-31716.0,-3681.7636431819433,15795.645490949195
68581,27670,-781,10226,-24567,-30471,26876,29137,-6427,25315,59,1,34865,2020-11-02 15:28:48,2020-11-02 15:29:17,1,D7:F2:3B:06:4D:C8,59,59,-511.1793266554869,-15254.920169873058,25255.416118266596
68582,-11500,-21005,22256,11,26103,-1029,-8241,7398,-8986,59,1,34888,2020-11-02 15:28:48,2020-11-02 15:29:17,1,D7:F2:3B:06:4D:C8,59,59,16354.926947785341,-11814.62324472801,25723.93055343093
68583,-17133,21744,28654,-2551,-21000,-31494,2766,16870,-19734,59,1,34914,2020-11-02 15:28:48,2020-11-02 15:29:17,1,D7:F2:3B:06:4D:C8,59,59,-29784.241242177908,-26209.443458666214,3654.7213593825873
68584,-31211,13554,27895,29193,14844,7157,3276,-17691,26606,59,1,34939,2020-11-02 15:28:48,2020-11-02 15:29:17,1,D7:F2:3B:06:4D:C8,59,59,-7365.912267998209,-29264.48017555372,-32020.337264225942
68585,-9218,10993,31721,13573,-22275,-22540,13001,-12316,-19726,59,1,34965,2020-11-02 15:28:48,2020-11-02 15:29:17,1,D7:F2:3B:06:4D:C8,59,59,-11398.52678951478,32131.521973475665,-7048.283244646478
68586,32271,19441,-25870,-6398,-23303,5624,-1595,-9500,-25098,59,1,34990,2020-11-02 15:28:48,2020-11-02 15:29:17,1,D7:F2:3B:06:4D:C8,59,59,-40339.06284365811,16962.918423061194,13177.489497926854
68587,-29424,12018,-29450,4608,-27648,32755,-12607,-29212,19963,59,1,35016,2020-11-02 15:28:48,2020-11-02 15:29:17,1,D7:F2:3B:06:4D:C8,59,59,11487.435236495134,30463.82174818689,28591.974331655125
68588,27151,10230,-30214,-8706,-9726,-16912,-13125,-14877,-30463,59,1,35042,2020-11-02 15:28:48,2020-11-02 15:29:17,1,D7:F2:3B:06:4D:C8,59,59,26378.500683102106,-22687.937580520214,23326.97337963072
68589,7692,-15875,-20474,-19457,771,-1809,14400,28899,-5367,59,1,35067,2020-11-02 15:28:48,2020-11-02 15:29:17,1,D7:F2:3B:06:4D:C8,59,59,7853.8767826060475,25223.28654701489,5698.210267340019
68590,4111,2,-3584,24832,17412,-32275,25656,9700,17170,59,1,35093,2020-11-02 15:28:48,2020-11-02 15:29:17,1,D7:F2:3B:06:4D:C8,59,59,723.3991706275262,4940.329339192276,-2194.3611052539686
68591,-32751,17414,-12288,-32253,-25337,-18202,25904,-6683,6171,59,1,35118,2020-11-02 15:28:48,2020-11-02 15:29:17,1,D7:F2:3B:06:4D:C8,59,59,10182.602948310894,-22420.363588446642,-30339.944541131026
68592,-22771,-15356,22512,10237,4618,-8737,13866,23529,11042,59,1,35144,2020-11-02 15:28:48,2020-11-02 15:29:17,1,D7:F2:3B:06:4D:C8,59,59,29429.91464885141,19775.3485329509,-1982.6838279560097
68593,-28160,-30205,9971,8436,31496,-28958,-9179,-16659,2086,59,-1,35170,2020-11-02 15:28:48,2020-11-02 15:29:17,1,D7:F2:3B:06:4D:C8,59,59,-16291.289732056517,-7929.523959227627,-38424.79661164422
68594,-27143,28165,764,-6673,-30972,-30994,-28894,13297,-27097,59,-1,35195,2020-11-02 15:28:48,2020-11-02 15:29:17,1,D7:F2:3B:06:4D:C8,59,59,-29056.371357821576,22540.122124955702,13351.537293826825
68595,23543,-3068,27137,-5394,-29696,28667,-10721,-16910,-10969,59,-1,35221,2020-11-02 15:28:48,2020-11-02 15:29:17,1,D7:F2:3B:06:4D:C8,59,59,4054.788554440125,32880.41440743274,14231.629568474256
68596,6903,-29693,-28930,28655,-15874,1798,22045,31218,-14297,59,-1,35246,2020-11-02 15:28:48,2020-11-02 15:29:17,1,D7:F2:3B:06:4D:C8,59,59,39383.93777352532,5606.829215283575,13555.053286569098
68597,1787,-26110,23304,-27665,-16129,25868,29210,2545,18728,59,-1,35272,2020-11-02 15:28:48,2020-11-02 15:29:17,1,D7:F2:3B:06:4D:C8,59,59,-3877.4991344753594,-14538.654560131108,31647.97638148957
68598,15367,-23292,-31989,-16653,-15870,-2292,18967,24303,-12759,59,-1,35298,2020-11-02 15:28:48,2020-11-02 15:29:17,1,D7:F2:3B:06:4D:C8,59,59,38190.86159636461,17190.228017929505,-6921.865732511267
68599,2318,13829,9739,26357,32260,-12278,3604,16622,-4053,59,-1,35324,2020-11-02 15:28:48,2020-11-02 15:29:17,1,D7:F2:3B:06:4D:C8,59,59,7891.019272739039,13829.0,-6160.60547651455
68600,-26091,-20477,-19192,-11791,12804,5129,26640,-30227,14382,59,-1,35349,2020-11-02 15:28:48,2020-11-02 15:29:17,1,D7:F2:3B:06:4D:C8,59,59,-7073.7450889888405,18195.575715030456,32973.68388297856
68601,13331,-17922,30726,-28948,1543,14340,26380,-28179,5424,59,-1,35374,2020-11-02 15:28:48,2020-11-02 15:29:17,1,D7:F2:3B:06:4D:C8,59,59,-13648.40804964884,34968.11444394906,-5826.890332343841
68602,-1528,-16898,-24304,-30229,-16121,-18942,19208,-31250,26161,59,-1,35400,2020-11-02 15:28:48,2020-11-02 15:29:17,1,D7:F2:3B:06:4D:C8,59,59,1952.962004406656,-28579.285055338558,7613.935193777654
68603,-16888,1281,24853,-22797,-24582,14858,-14844,21998,-6862,59,-1,35425,2020-11-02 15:28:48,2020-11-02 15:29:17,1,D7:F2:3B:06:4D:C8,59,59,26723.541162835805,-779.9330929875196,13775.382611335453
68604,21519,24830,31502,-5128,-267,-3314,23297,-21268,-17867,59,-1,35451,2020-11-02 15:28:48,2020-11-02 15:29:17,1,D7:F2:3B:06:4D:C8,59,59,16662.452679318547,-5312.581320368274,42025.12838081454
68605,2329,-21509,1038,17147,2552,4366,-24067,26091,24121,59,-1,35477,2020-11-02 15:28:48,2020-11-02 15:29:17,1,D7:F2:3B:06:4D:C8,59,59,2652.5541767576888,-17235.997830485823,12846.131757336656
68606,19229,-25861,-12278,-4865,-18189,-1783,-31750,13034,-11972,59,-1,35502,2020-11-02 15:28:48,2020-11-02 15:29:17,1,D7:F2:3B:06:4D:C8,59,59,18067.17223881746,28813.2642319516,-5715.604744263032
68607,-31205,-32518,21759,-28669,-3351,8457,15607,-1561,3393,59,1,35528,2020-11-02 15:28:48,2020-11-02 15:29:17,1,D7:F2:3B:06:4D:C8,59,59,-31205.0,-6253.139879460032,-38623.47274194679
68608,-17126,16635,12801,8964,12263,-1017,16369,21477,-26949,59,1,35553,2020-11-02 15:28:48,2020-11-02 15:29:17,1,D7:F2:3B:06:4D:C8,59,59,2061.9996056720647,26011.104518081556,-7284.18158585064
68609,28698,-15623,24062,12296,-23056,-27901,18922,-12829,7876,59,1,35579,2020-11-02 15:28:48,2020-11-02 15:29:17,1,D7:F2:3B:06:4D:C8,59,59,-3823.6042971833485,16386.328488382132,36925.6207239553
68610,25623,10744,-6662,19211,-13068,10239,24806,995,-11319,59,1,35604,2020-11-02 15:28:48,2020-11-02 15:29:17,1,D7:F2:3B:06:4D:C8,59,59,3692.1843505172683,-28079.52348721737,-3776.512207394998
68611,2321,-12806,31727,-8692,-8202,-7173,12259,8674,1487,59,1,35656,2020-11-02 15:28:48,2020-11-02 15:29:17,1,D7:F2:3B:06:4D:C8,59,59,-19654.453687928763,-23520.103072075697,-15378.244623753351
68612,22030,22005,-29456,-24824,18685,12537,-8479,5857,-47,59,1,35658,2020-11-02 15:28:48,2020-11-02 15:29:17,1,D7:F2:3B:06:4D:C8,59,59,-17070.428273123456,-12897.017087872982,-37141.140125301215
68613,-24051,32500,7670,-13306,-6662,17402,6113,16864,-12845,59,1,35681,2020-11-02 15:28:48,2020-11-02 15:29:17,1,D7:F2:3B:06:4D:C8,59,59,-5983.2695436496015,-39760.75902575944,8764.247158970602
68614,1561,-27918,19441,-23034,26113,-16140,-3872,5087,5589,59,1,35707,2020-11-02 15:28:48,2020-11-02 15:29:17,1,D7:F2:3B:06:4D:C8,59,59,1561.0,-27918.0,19441.0
68615,8466,12023,22009,30976,2309,18926,1795,-6435,-193,59,1,35732,2020-11-02 15:28:48,2020-11-02 15:29:17,1,D7:F2:3B:06:4D:C8,59,59,-13945.735583157322,12023.0,19015.40680723554
68616,20234,10239,30732,-31998,-21758,-9233,19479,2272,-16597,59,1,35758,2020-11-02 15:28:48,2020-11-02 15:29:17,1,D7:F2:3B:06:4D:C8,59,59,-21580.970711698745,-12375.650669104267,-28979.521642999905
68617,-24817,4866,12288,-12027,2562,-11536,-23269,16098,10792,59,1,35783,2020-11-02 15:28:48,2020-11-02 15:29:17,1,D7:F2:3B:06:4D:C8,59,59,13944.89602562577,-1380.6965501294344,24376.011586618253
68618,-1528,18182,-14330,-3323,-16635,-15124,3357,3045,-27865,59,1,35809,2020-11-02 15:28:48,2020-11-02 15:29:17,1,D7:F2:3B:06:4D:C8,59,59,-12761.41551700915,-13040.942527372707,-14330.0
68619,-11253,-3067,26103,2563,-13561,-30998,-29923,18152,-4057,59,1,35835,2020-11-02 15:28:48,2020-11-02 15:29:17,1,D7:F2:3B:06:4D:C8,59,59,11770.262481834961,-25900.79226434762,-2830.7222025163237
68620,18179,21507,-15880,2298,-22003,-10778,12572,20716,6953,59,1,35860,2020-11-02 15:28:48,2020-11-02 15:29:17,1,D7:F2:3B:06:4D:C8,59,59,-12348.18696972521,-9070.973550185761,-28468.24911041314
68621,7932,18691,-19202,10227,-8694,16108,4634,13552,-5591,59,1,35886,2020-11-02 15:28:48,2020-11-02 15:29:17,1,D7:F2:3B:06:4D:C8,59,59,-20761.205897398675,18691.0,778.304365796921
68622,-18437,30468,13826,16369,-3580,17912,-12521,29682,7722,59,1,35911,2020-11-02 15:28:48,2020-11-02 15:29:17,1,D7:F2:3B:06:4D:C8,59,59,14599.45581247255,22538.86895408913,-27170.490338785912
68623,-517,-29694,-5885,20208,-14336,25345,21525,-2062,20266,59,1,35937,2020-11-02 15:28:48,2020-11-02 15:29:17,1,D7:F2:3B:06:4D:C8,59,59,-3753.8547125483196,-29997.78739351527,1635.688323163924
68624,-20482,30462,-10242,21741,7678,8455,29970,17650,-15318,59,1,35963,2020-11-02 15:28:48,2020-11-02 15:29:17,1,D7:F2:3B:06:4D:C8,59,59,-7625.475267637772,-13825.50486122719,34685.03819047671
68625,-26878,-15364,-13815,26602,-17663,-18169,-29170,32753,-5333,59,-1,35988,2020-11-02 15:28:48,2020-11-02 15:29:17,1,D7:F2:3B:06:4D:C8,59,59,10261.301088953032,8889.353037014249,-31064.75024115238
68626,-20733,-2565,23310,23532,8707,9991,-31478,14321,24365,59,-1,36014,2020-11-02 15:28:48,2020-11-02 15:29:17,1,D7:F2:3B:06:4D:C8,59,59,-25574.79019127301,5698.90563524073,17124.40350006351
68627,-26872,30458,-9966,30956,-21244,-22778,-30970,29937,-2770,59,-1,36039,2020-11-02 15:28:48,2020-11-02 15:29:17,1,D7:F2:3B:06:4D:C8,59,59,-32918.933368511374,18196.422166131782,-18285.22218162568
68628,14088,-31239,-7407,8173,19715,-13818,-18686,-4623,24880,59,-1,36065,2020-11-02 15:28:48,2020-11-02 15:29:17,1,D7:F2:3B:06:4D:C8,59,59,13405.559485990725,-30193.423758239733,11741.32235410169
68629,3594,-28678,-6640,-7697,-31492,27657,511,-11791,2610,59,-1,36090,2020-11-02 15:28:48,2020-11-02 15:29:17,1,D7:F2:3B:06:4D:C8,59,59,4542.103183572097,-28678.0,6031.229946684525
68630,27916,-12808,7441,13811,12791,-10485,26619,-1040,22580,59,-1,36116,2020-11-02 15:28:48,2020-11-02 15:29:17,1,D7:F2:3B:06:4D:C8,59,59,-29612.76715191453,-9923.591298105868,4829.364177057809
68631,-6902,-19209,-9969,17655,13299,25101,-8201,-3345,23095,59,-1,36142,2020-11-02 15:28:48,2020-11-02 15:29:17,1,D7:F2:3B:06:4D:C8,59,59,-9691.68457013684,17490.57102316557,10777.542459975399
68632,4890,1014,-9712,-2309,5870,-9717,23284,-27666,15163,59,-1,36167,2020-11-02 15:28:48,2020-11-02 15:29:17,1,D7:F2:3B:06:4D:C8,59,59,6858.591633044965,4268.591243295763,-7348.611406843088
68633,30745,24312,26894,14594,-19992,-30455,-1552,-15892,-13249,59,-1,36193,2020-11-02 15:28:48,2020-11-02 15:29:17,1,D7:F2:3B:06:4D:C8,59,59,37607.925633665815,23753.130238739992,16764.496365656734
68634,-10468,-29705,27657,24584,-27162,14086,-31251,-17430,23877,59,-1,36218,2020-11-02 15:28:48,2020-11-02 15:29:17,1,D7:F2:3B:06:4D:C8,59,59,-35125.801946236956,12795.748407807892,18955.805398816956
68635,26394,-30730,28927,-21495,-32023,25345,4074,-14616,-27458,59,-1,36244,2020-11-02 15:28:48,2020-11-02 15:29:17,1,D7:F2:3B:06:4D:C8,59,59,47628.96754291829,-8132.446054315666,11962.116742837854
68636,25880,9717,-9736,5646,-4884,-23296,-21786,18663,-29244,59,-1,36270,2020-11-02 15:28:48,2020-11-02 15:29:17,1,D7:F2:3B:06:4D:C8,59,59,3605.3602837965104,-26568.342130592366,-11836.754566003863
68637,4117,-20234,-27912,1555,20724,-18947,2277,17382,7881,59,-1,36295,2020-11-02 15:28:48,2020-11-02 15:29:17,1,D7:F2:3B:06:4D:C8,59,59,12695.940985761174,-17676.648668568625,27051.679491929157
68638,-5097,1013,13306,-1774,-12296,1275,28389,19173,-15157,59,-1,36321,2020-11-02 15:28:48,2020-11-02 15:29:17,1,D7:F2:3B:06:4D:C8,59,59,7010.471533142942,-7288.939918127355,10088.600386224149
68639,-13044,32240,28403,27669,24567,23288,28134,-12573,2766,59,-1,36348,2020-11-02 15:28:48,2020-11-02 15:29:17,1,D7:F2:3B:06:4D:C8,59,59,44495.95796660172,421.990937588238,6018.770080590044
68640,17682,-14611,28656,23053,-31241,31995,-15899,32482,25297,59,-1,36372,2020-11-02 15:28:48,2020-11-02 15:29:17,1,D7:F2:3B:06:4D:C8,59,59,21895.826798627517,-23814.708255408128,17341.661411592053
68641,25107,4331,-18964,-29177,-27400,-19462,-24606,19681,16086,59,-1,36397,2020-11-02 15:28:48,2020-11-02 15:29:17,1,D7:F2:3B:06:4D:C8,59,59,-1052.889619935242,-25384.5067394234,-19059.65757941104
68642,-28138,14577,3063,-26623,31487,-8718,21986,-14369,6871,59,-1,36423,2020-11-02 15:28:48,2020-11-02 15:29:17,1,D7:F2:3B:06:4D:C8,59,59,19312.918245064244,2568.727011680095,-25179.967680656973
68643,30732,-21003,10242,16386,-28158,-12563,-4361,-7971,-23359,59,-1,36449,2020-11-02 15:28:48,2020-11-02 15:29:17,1,D7:F2:3B:06:4D:C8,59,59,10674.978019842416,19772.471702776245,31393.862521817762
68644,-1782,249,-22021,17923,-25343,1263,25623,31455,17967,59,-1,36474,2020-11-02 15:28:48,2020-11-02 15:29:17,1,D7:F2:3B:06:4D:C8,59,59,16360.85975959956,14666.232723468649,2320.7437660743867
68645,6925,2305,-27643,21504,26625,-19731,-28644,-799,12842,59,-1,36500,2020-11-02 15:28:48,2020-11-02 15:29:17,1,D7:F2:3B:06:4D:C8,59,59,-20534.592315272464,-1782.0413695028947,19813.1003632176
68646,-23794,-11261,-11777,-3586,-28155,-5913,-14307,14309,-3032,59,-1,36525,2020-11-02 15:28:48,2020-11-02 15:29:17,1,D7:F2:3B:06:4D:C8,59,59,23669.069729696013,-6022.566269368683,15335.126985514358
68647,14849,-27648,-25095,32248,-2551,6628,-19684,-29719,25641,59,-1,36551,2020-11-02 15:28:48,2020-11-02 15:29:17,1,D7:F2:3B:06:4D:C8,59,59,-2736.2378226442706,-39625.1056829089,-6085.04167580069
68648,3830,28416,20729,-9487,14598,15852,-1510,26093,25385,59,-1,36602,2020-11-02 15:28:48,2020-11-02 15:29:17,1,D7:F2:3B:06:4D:C8,59,59,33395.87068905463,-4806.780987767246,-10650.825059852446
68649,5365,-12800,11781,-14867,15104,-18694,-23272,13295,-3288,59,-1,36604,2020-11-02 15:28:48,2020-11-02 15:29:17,1,D7:F2:3B:06:4D:C8,59,59,-18043.170851396924,-549.2518501684681,2357.433781124494
68650,-15365,-8193,-32762,9198,-260,-10235,-5355,-9746,-8408,59,-1,36628,2020-11-02 15:28:48,2020-11-02 15:29:17,1,D7:F2:3B:06:4D:C8,59,59,3515.577442073818,-20638.92063986811,-30630.585826425326
68651,-4613,-24066,-250,-15890,-7429,26892,-18414,21485,-27863,59,-1,36653,2020-11-02 15:28:48,2020-11-02 15:29:17,1,D7:F2:3B:06:4D:C8,59,59,-21325.42508996841,-11704.764271198095,-2956.241378478803
68652,18687,5119,32523,-24080,-23556,-32496,-30194,27883,-18133,59,-1,36679,2020-11-02 15:28:48,2020-11-02 15:29:17,1,D7:F2:3B:06:4D:C8,59,59,18486.001486650275,32670.724523003668,4903.587174464246
68653,28422,15360,3097,5366,-1797,29715,28937,-27671,-32721,59,-1,36704,2020-11-02 15:28:48,2020-11-02 15:29:17,1,D7:F2:3B:06:4D:C8,59,59,-15269.109990818524,-25788.000481646024,-12456.500481552208
68654,25618,9215,-13801,28669,2045,5651,-1021,15848,-6860,59,-1,36730,2020-11-02 15:28:48,2020-11-02 15:29:17,1,D7:F2:3B:06:4D:C8,59,59,-4786.295674369344,24509.480694174883,-17551.1389892332
68655,-27371,31481,27913,-27396,2558,-6640,-20226,-8729,-31430,59,1,36756,2020-11-02 15:28:48,2020-11-02 15:29:17,1,D7:F2:3B:06:4D:C8,59,59,29569.93144895801,3978.161784886648,-40362.77931358533
68656,6162,4601,32520,-18691,2040,1297,1017,-30745,22848,59,1,36781,2020-11-02 15:28:48,2020-11-02 15:29:17,1,D7:F2:3B:06:4D:C8,59,59,-33251.868414931305,92.42892146654322,3315.802890789859
68657,5650,-13834,-4347,-24066,7924,-18158,31730,19431,-13894,59,1,36807,2020-11-02 15:28:48,2020-11-02 15:29:17,1,D7:F2:3B:06:4D:C8,59,59,-5737.543621775898,6909.803443266746,-12709.589866067185
68658,-11754,19189,-20737,30723,-5394,-8941,20971,-16921,4035,59,1,36832,2020-11-02 15:28:48,2020-11-02 15:29:17,1,D7:F2:3B:06:4D:C8,59,59,-16238.341966275257,-16070.560410128479,-20358.063372794448
68659,9493,31475,29439,-30969,13294,-17391,29925,-5400,-16438,59,1,36858,2020-11-02 15:28:48,2020-11-02 15:29:17,1,D7:F2:3B:06:4D:C8,59,59,29837.22733766929,-24095.160858856383,-21831.410467170364
68660,19219,-26638,-1789,5132,-12817,-14324,2274,21994,-22576,59,1,36883,2020-11-02 15:28:48,2020-11-02 15:29:17,1,D7:F2:3B:06:4D:C8,59,59,15327.038758006885,29092.091032976492,-941.088858484391
68661,13081,-10259,-1549,32010,26358,-27386,-17952,23275,-20268,59,1,36909,2020-11-02 15:28:48,2020-11-02 15:29:17,1,D7:F2:3B:06:4D:C8,59,59,12100.795852595742,-8313.268787542864,7951.05935079517
68662,-24556,20974,14076,-13557,31734,-5887,19424,-25621,22487,59,1,36935,2020-11-02 15:28:48,2020-11-02 15:29:17,1,D7:F2:3B:06:4D:C8,59,59,-4456.693467190227,23615.771387603218,25757.966012633162
68663,27924,-11793,19696,-12530,-17928,-30211,-15392,23019,24281,59,1,36960,2020-11-02 15:28:48,2020-11-02 15:29:17,1,D7:F2:3B:06:4D:C8,59,59,30448.611169426695,346.4321264616847,19481.250053187538
68664,26388,-5903,-4617,3082,32508,28665,-20511,31210,19418,59,1,36986,2020-11-02 15:28:48,2020-11-02 15:29:17,1,D7:F2:3B:06:4D:C8,59,59,-3013.113584875783,-4815.353685211871,26836.95506966007
68665,26133,25329,5883,12809,1020,-16906,-25118,7145,-9254,59,-1,37011,2020-11-02 15:28:48,2020-11-02 15:29:17,1,D7:F2:3B:06:4D:C8,59,59,-3082.1641366915483,-34082.506147593005,-13710.749721797763
68666,-11465,32236,-20455,-13049,24059,-22799,-27165,8423,17371,59,-1,37037,2020-11-02 15:28:48,2020-11-02 15:29:17,1,D7:F2:3B:06:4D:C8,59,59,-24539.936263265605,9145.055901924012,30052.827267089968
68667,-16614,-13074,-767,-3331,-11271,9462,22499,2533,-3877,59,-1,37063,2020-11-02 15:28:48,2020-11-02 15:29:17,1,D7:F2:3B:06:4D:C8,59,59,-16614.0,13051.400946736141,-1085.6787404821623
68668,-1510,24561,9720,20225,25085,-30996,2531,-22558,29148,59,-1,37088,2020-11-02 15:28:48,2020-11-02 15:29:17,1,D7:F2:3B:06:4D:C8,59,59,23587.086912903116,6848.885365017508,-9835.818279126728
68669,-27366,-28176,28926,16126,-13315,10980,25321,9951,-12075,59,-1,37114,2020-11-02 15:28:48,2020-11-02 15:29:17,1,D7:F2:3B:06:4D:C8,59,59,41959.21896945297,-5178.272693530927,24333.26618818218
68670,5387,19192,12293,2045,-17411,-7706,19481,13023,-1487,59,-1,37139,2020-11-02 15:28:48,2020-11-02 15:29:17,1,D7:F2:3B:06:4D:C8,59,59,-10845.19387541262,-20734.7242538357,-960.9692617926094
68671,16910,-20993,-1785,-5375,-20486,-5399,-19935,30946,28457,59,-1,37165,2020-11-02 15:28:48,2020-11-02 15:29:17,1,D7:F2:3B:06:4D:C8,59,59,15367.103290618927,-13617.74347157364,17557.037711352743
68672,-20725,-28673,-28421,-3842,24575,1510,22819,9446,-8153,59,-1,37190,2020-11-02 15:28:48,2020-11-02 15:29:17,1,D7:F2:3B:06:4D:C8,59,59,32163.409055181502,9869.014168065747,30455.49986947491
68673,-32766,1790,20217,-18438,-28416,20711,-17118,2026,-3545,59,-1,37216,2020-11-02 15:28:48,2020-11-02 15:29:17,1,D7:F2:3B:06:4D:C8,59,59,-32766.0,17638.363240715422,-10040.882988491549
68674,-8197,-17154,19450,-8459,-6143,9710,30497,13805,808,59,-1,37242,2020-11-02 15:28:48,2020-11-02 15:29:17,1,D7:F2:3B:06:4D:C8,59,59,23385.343492179483,13785.13601276186,-1687.8269646011163
68675,8436,21760,9728,30451,-2048,-28681,-23009,10479,2600,59,-1,37267,2020-11-02 15:28:48,2020-11-02 15:29:17,1,D7:F2:3B:06:4D:C8,59,59,13064.737801991674,-21585.459864347722,-1636.5294405672594
68676,-7689,22783,-6913,-16654,-5633,-21247,-17123,-32273,1576,59,-1,37293,2020-11-02 15:28:48,2020-11-02 15:29:17,1,D7:F2:3B:06:4D:C8,59,59,-19288.00011307205,-15767.046488699485,2312.720402755571
68677,26104,-28162,11267,-27661,-20226,9225,-27621,-24594,17448,59,-1,37318,2020-11-02 15:28:48,2020-11-02 15:29:17,1,D7:F2:3B:06:4D:C8,59,59,36983.688042122565,-15252.798725815888,-1010.5933072751432
68678,2047,-19971,-12031,-30736,-23041,2062,-10216,-13332,8745,59,-1,37345,2020-11-02 15:28:48,2020-11-02 15:29:17,1,D7:F2:3B:06:4D:C8,59,59,12075.739618343334,-19901.32217279398,-2426.91150325509
68679,-7934,29439,6416,-14352,25087,-27632,-15084,-14102,10795,59,-1,37372,2020-11-02 15:28:48,2020-11-02 15:29:17,1,D7:F2:3B:06:4D:C8,59,59,21646.703804808334,21836.254648075646,5036.499809519624
68680,14092,-7933,-9443,21497,7932,17173,19984,24808,31022,59,-1,37395,2020-11-02 15:28:48,2020-11-02 15:29:17,1,D7:F2:3B:06:4D:C8,59,59,4429.453232291388,17410.485911776894,5286.031250263435
68681,5402,-5633,-12023,9469,-14597,15894,-7926,-4891,-1485,59,-1,37421,2020-11-02 15:28:48,2020-11-02 15:29:17,1,D7:F2:3B:06:4D:C8,59,59,5402.0,-13160.52853930057,-1756.0485660297636
68682,22803,-2823,-24571,-14343,7926,24087,7170,-11293,32572,59,-1,37446,2020-11-02 15:28:48,2020-11-02 15:29:17,1,D7:F2:3B:06:4D:C8,59,59,25594.602205920142,-19011.258721524537,10731.66150900993
68683,15130,31479,11268,-15619,7662,-21223,4082,31714,-7745,59,-1,37472,2020-11-02 15:28:48,2020-11-02 15:29:17,1,D7:F2:3B:06:4D:C8,59,59,22969.487182026955,22488.971208227318,17704.829781452918
68684,-4074,9719,16391,25347,21230,-6890,-1566,2788,-21553,59,-1,37498,2020-11-02 15:28:48,2020-11-02 15:29:17,1,D7:F2:3B:06:4D:C8,59,59,5404.774789484064,-9046.81416162383,16391.0
68685,5913,2548,14845,14347,29424,-22767,-4644,-14874,-26409,59,-1,37523,2020-11-02 15:28:48,2020-11-02 15:29:17,1,D7:F2:3B:06:4D:C8,59,59,8503.29425818073,-13743.443714878993,-801.024103722073
68686,-22760,-22798,-20228,-1012,5622,-4599,32475,-11800,20955,59,1,37549,2020-11-02 15:28:48,2020-11-02 15:29:17,1,D7:F2:3B:06:4D:C8,59,59,8787.67888011991,24872.848533946628,-27405.4099350337
68687,10519,18927,-7433,-31730,-26886,-18685,-5669,-13591,24029,59,1,37574,2020-11-02 15:28:48,2020-11-02 15:29:17,1,D7:F2:3B:06:4D:C8,59,59,12767.440578657108,-14173.731396836702,12658.119068834256
68688,-5355,-21777,-25093,11533,-14086,13568,-10020,490,-22818,59,1,37625,2020-11-02 15:28:48,2020-11-02 15:29:17,1,D7:F2:3B:06:4D:C8,59,59,661.2153530377423,33307.833711726926,4766.907875012332
68689,-2285,26864,26362,-26867,-3337,7168,15837,1002,-22560,59,1,37627,2020-11-02 15:28:48,2020-11-02 15:29:17,1,D7:F2:3B:06:4D:C8,59,59,-2698.273161660757,35120.960181067414,13456.903169189345
68690,4372,-30992,-520,-4853,23032,-15873,18653,-23,-6942,59,1,37651,2020-11-02 15:28:48,2020-11-02 15:29:17,1,D7:F2:3B:06:4D:C8,59,59,28241.835238560212,12938.210464651545,-3858.7951915591734
68691,26385,25073,-25095,30986,-15626,-7938,-2596,-8983,18661,59,1,37677,2020-11-02 15:28:48,2020-11-02 15:29:17,1,D7:F2:3B:06:4D:C8,59,59,-38556.9013444479,-19830.301582004104,8643.325568395381
68692,-14315,-22801,-8195,17673,30710,-25602,5084,-18967,6120,59,1,37702,2020-11-02 15:28:48,2020-11-02 15:29:17,1,D7:F2:3B:06:4D:C8,59,59,27468.25310541632,578.8203903085924,6092.855594263651
68693,-21748,-15378,32503,2567,22518,-21763,-5670,-31767,-9494,59,1,37728,2020-11-02 15:28:48,2020-11-02 15:29:17,1,D7:F2:3B:06:4D:C8,59,59,566.7849533356457,-29344.559371040374,30074.55713948518
68694,-5869,-13588,-28940,6147,12534,-3078,5593,18665,-9491,59,1,37753,2020-11-02 15:28:48,2020-11-02 15:29:17,1,D7:F2:3B:06:4D:C8,59,59,-10501.209303359732,-8794.219484578047,29478.616178920252
68695,26911,-13078,29943,14843,23545,32751,4054,-5145,4849,59,1,37779,2020-11-02 15:28:48,2020-11-02 15:29:17,1,D7:F2:3B:06:4D:C8,59,59,26911.0,-13078.0,29943.0
68696,15361,-29971,-22007,5624,27129,-29203,24528,26341,12534,59,1,37804,2020-11-02 15:28:48,2020-11-02 15:29:17,1,D7:F2:3B:06:4D:C8,59,59,13183.09353460601,-35859.34618438645,-12603.275252336523
68697,12564,-17673,11012,-22022,-32004,4076,-16440,-24861,14589,59,1,37830,2020-11-02 15:28:48,2020-11-02 15:29:17,1,D7:F2:3B:06:4D:C8,59,59,-15992.745950878729,-6789.87154855158,-17017.135196760406
68698,-8429,-7682,15874,-7430,-1027,-18969,20412,-27166,20233,59,1,37856,2020-11-02 15:28:48,2020-11-02 15:29:17,1,D7:F2:3B:06:4D:C8,59,59,6374.931281446585,-6327.9405917451995,17359.794354317022
68699,7703,-5889,-15362,-15364,-15874,22240,-10695,-11293,25112,59,1,37881,2020-11-02 15:28:48,2020-11-02 15:29:17,1,D7:F2:3B:06:4D:C8,59,59,-16751.057291799025,5249.4593091313545,4674.701120782046
68700,-19700,11517,-6149,11004,23807,-12582,12080,-16921,15138,59,1,37907,2020-11-02 15:28:48,2020-11-02 15:29:17,1,D7:F2:3B:06:4D:C8,59,59,793.3565941400129,-3652.3259031724,-23336.07916535146
68701,-10753,-16388,5371,-31493,17149,2783,14892,-23572,15654,59,1,37932,2020-11-02 15:28:48,2020-11-02 15:29:17,1,D7:F2:3B:06:4D:C8,59,59,711.7241718058685,-6207.296581464996,19339.185914949994
68702,-19466,15360,19449,25848,-22274,-31766,12586,-29456,-10969,59,1,37958,2020-11-02 15:28:48,2020-11-02 15:29:17,1,D7:F2:3B:06:4D:C8,59,59,-20200.52982806248,-13101.519758021055,20332.41578602361
68703,28916,-15103,4854,24565,10239,-22791,-26840,30962,15144,59,1,37984,2020-11-02 15:28:48,2020-11-02 15:29:17,1,D7:F2:3B:06:4D:C8,59,59,-14876.922009937094,17611.78018281881,23585.99947643347
68704,-19977,-30720,3317,17648,25088,-25596,-24794,28146,10280,59,1,38009,2020-11-02 15:28:48,2020-11-02 15:29:17,1,D7:F2:3B:06:4D:C8,59,59,2663.9663272979956,36667.007173119855,1495.0874132970773
68705,-16133,27645,-1293,16106,21248,4364,-8925,2033,-217,59,-1,38035,2020-11-02 15:28:48,2020-11-02 15:29:17,1,D7:F2:3B:06:4D:C8,59,59,-16133.0,13848.635262368114,-23961.076256501805
68706,-18942,18686,18437,230,6401,8975,-9697,-8978,20776,59,-1,38060,2020-11-02 15:28:48,2020-11-02 15:29:17,1,D7:F2:3B:06:4D:C8,59,59,1717.6830034699406,-26114.02506829625,-19052.45886577335
68707,30732,8450,20241,10984,-6911,-28146,4379,-19476,-27607,59,-1,38086,2020-11-02 15:28:48,2020-11-02 15:29:17,1,D7:F2:3B:06:4D:C8,59,59,15358.840416271873,-30710.326103311472,-15701.538035993777
68708,18964,6147,10004,-30485,-19199,-29940,5910,-22,-26837,59,-1,38112,2020-11-02 15:28:48,2020-11-02 15:29:17,1,D7:F2:3B:06:4D:C8,59,59,-8538.398319780208,17683.51781191978,10577.706411519011
68709,-1008,7681,-6897,-18705,3838,11021,31505,31465,-13779,59,-1,38137,2020-11-02 15:28:48,2020-11-02 15:29:17,1,D7:F2:3B:06:4D:C8,59,59,-7633.587078078828,-6022.656888452172,-3610.8705772109215
68710,-13300,513,-13817,-18697,-30467,-24818,18957,-12313,-26576,59,-1,38163,2020-11-02 15:28:48,2020-11-02 15:29:17,1,D7:F2:3B:06:4D:C8,59,59,3464.0107505066635,-6216.783658035553,-17816.141233992177
68711,26633,-11775,21771,-24324,26614,-26351,-20472,-21019,-22220,59,-1,38188,2020-11-02 15:28:48,2020-11-02 15:29:17,1,D7:F2:3B:06:4D:C8,59,59,25402.244606520344,-11257.378634283408,23450.824084344826
68712,-3316,-20739,22280,14594,16366,-2282,-7424,-11294,-6852,59,-1,38214,2020-11-02 15:28:48,2020-11-02 15:29:17,1,D7:F2:3B:06:4D:C8,59,59,-8028.340260711026,26463.443243500515,13142.766122710758
68713,9487,23542,6660,-7672,-11290,-9958,4844,11745,-29498,59,-1,38239,2020-11-02 15:28:48,2020-11-02 15:29:17,1,D7:F2:3B:06:4D:C8,59,59,-21977.053591372147,8699.326001563404,-11398.042619699212
68714,20752,-11537,9214,-10993,-25887,-26593,-27687,-6940,-17701,59,-1,38265,2020-11-02 15:28:48,2020-11-02 15:29:17,1,D7:F2:3B:06:4D:C8,59,59,-23310.740646550108,-3896.5145526913384,9490.638221423327
68715,4124,8685,24056,2836,6120,-19944,28630,9706,28386,59,-1,38291,2020-11-02 15:28:48,2020-11-02 15:29:17,1,D7:F2:3B:06:4D:C8,59,59,20289.111140801535,4323.615910574492,-15517.282351430946
68716,15394,-2070,-18963,29199,4087,-7675,-298,-11796,11237,59,-1,38316,2020-11-02 15:28:48,2020-11-02 15:29:17,1,D7:F2:3B:06:4D:C8,59,59,7597.016039361491,8000.462928429259,21889.117049998007
68717,5656,-15128,-26387,-20729,20991,30967,-13609,24812,11238,59,-1,38342,2020-11-02 15:28:48,2020-11-02 15:29:17,1,D7:F2:3B:06:4D:C8,59,59,2780.0907872387143,-28426.30127423382,-11888.523040361371
68718,28688,-4884,757,-10236,-13570,-9228,-1833,-9494,-2842,59,-1,38367,2020-11-02 15:28:48,2020-11-02 15:29:17,1,D7:F2:3B:06:4D:C8,59,59,14863.199015245616,-4884.0,24549.12845771112
68719,-23793,2032,-4359,31239,-10243,1782,-16681,27881,21736,59,1,38393,2020-11-02 15:28:48,2020-11-02 15:29:17,1,D7:F2:3B:06:4D:C8,59,59,-14743.080102613674,6959.427937043972,-17984.56854853651
68720,-20211,-27919,-31243,-760,19451,-15626,24535,11240,19178,59,1,38419,2020-11-02 15:28:48,2020-11-02 15:29:17,1,D7:F2:3B:06:4D:C8,59,59,-23041.813430704737,8734.778330910369,39457.047689030835
68721,-24293,9201,-20999,-4858,15866,-7179,23254,5351,-18452,59,1,38444,2020-11-02 15:28:48,2020-11-02 15:29:17,1,D7:F2:3B:06:4D:C8,59,59,20958.47464269669,25115.27183328954,6762.5226351867395
68722,-7672,26863,-11793,-19198,29690,-18958,-12845,-21531,19952,59,1,38470,2020-11-02 15:28:48,2020-11-02 15:29:17,1,D7:F2:3B:06:4D:C8,59,59,-7155.293687881368,23143.66240785039,18240.829602614504
68723,27161,6128,-8713,-26372,22519,-24843,-14898,3301,27637,59,1,38495,2020-11-02 15:28:48,2020-11-02 15:29:17,1,D7:F2:3B:06:4D:C8,59,59,-25679.49816279889,-13709.996866072659,-1946.2872447525256
68724,-11268,10747,32483,-27654,21237,-6419,30919,29156,28924,59,1,38521,2020-11-02 15:28:48,2020-11-02 15:29:17,1,D7:F2:3B:06:4D:C8,59,59,32182.76822482795,11761.938021321159,-11114.736405763477
68725,-1782,4348,-29440,251,23801,-22801,7103,-25372,22532,59,1,38572,2020-11-02 15:28:48,2020-11-02 15:29:17,1,D7:F2:3B:06:4D:C8,59,59,4195.779530768935,-27994.402740452257,9354.307955938784
68726,14101,510,-5633,-20999,23548,-27155,-3517,8165,-16885,59,1,38574,2020-11-02 15:28:48,2020-11-02 15:29:17,1,D7:F2:3B:06:4D:C8,59,59,-734.2604760662,-2829.917370700442,-14909.10524573138
68727,6422,-19205,2809,9207,-24064,26339,-28358,29158,-21484,59,1,38598,2020-11-02 15:28:48,2020-11-02 15:29:17,1,D7:F2:3B:06:4D:C8,59,59,-15872.887288307207,-12795.399515575755,1514.52645057759
68728,-1018,8698,-19208,-6159,6148,-28708,14129,-28951,11549,59,1,38623,2020-11-02 15:28:48,2020-11-02 15:29:17,1,D7:F2:3B:06:4D:C8,59,59,-18816.00156663591,7841.4677967634025,5487.099401020307
68729,13045,-24835,32246,-22291,12038,13539,-12502,-27667,8482,59,1,38649,2020-11-02 15:28:48,2020-11-02 15:29:17,1,D7:F2:3B:06:4D:C8,59,59,-34229.685335382266,20086.763214535185,-15862.04121177071
68730,13810,32256,-22534,-19991,27909,-9231,13606,27376,16164,59,1,38674,2020-11-02 15:28:48,2020-11-02 15:29:17,1,D7:F2:3B:06:4D:C8,59,59,9521.246195932981,-37785.99076477572,-14849.631806907404
68731,22261,-25855,31490,-30999,28676,-16130,3874,25329,21029,59,1,38700,2020-11-02 15:28:48,2020-11-02 15:29:17,1,D7:F2:3B:06:4D:C8,59,59,41647.01631844901,20179.721351498236,-3736.057272945349
68732,-16905,15359,32255,-28440,9470,24586,28190,-27920,-24795,59,1,38726,2020-11-02 15:28:48,2020-11-02 15:29:17,1,D7:F2:3B:06:4D:C8,59,59,-1919.4637842173943,-19764.129442119465,34172.47104287637
68733,28412,6911,-4084,-1558,26102,24599,-3558,-19987,-28635,59,1,38751,2020-11-02 15:28:48,2020-11-02 15:29:17,1,D7:F2:3B:06:4D:C8,59,59,12778.49082089673,-25368.248400582226,8052.631025113166
68734,-10229,15874,21780,-19465,24305,29983,-31976,-8728,-9435,59,1,38802,2020-11-02 15:28:48,2020-11-02 15:29:17,1,D7:F2:3B:06:4D:C8,59,59,-26501.069766510813,10951.950492346867,2955.130901281682
68735,-7910,18691,-9209,15101,-8967,8727,18454,23268,-23257,59,1,38804,2020-11-02 15:28:48,2020-11-02 15:29:17,1,D7:F2:3B:06:4D:C8,59,59,15455.480179032,8426.043578280674,-13669.57146557506
68736,27926,6658,8196,-30725,21249,20491,19216,-28446,20013,59,1,38828,2020-11-02 15:28:48,2020-11-02 15:29:17,1,D7:F2:3B:06:4D:C8,59,59,24539.64279187841,4328.270218776893,-16444.96471751334
68737,25874,-30212,-15099,-3590,15609,15888,32264,13025,31540,59,-1,38853,2020-11-02 15:28:48,2020-11-02 15:29:17,1,D7:F2:3B:06:4D:C8,59,59,-18788.494428431888,-17739.608719222822,-33800.99673976579
68738,-18927,-13319,-769,9726,23532,3095,-30993,17631,-28992,59,-1,38879,2020-11-02 15:28:48,2020-11-02 15:29:17,1,D7:F2:3B:06:4D:C8,59,59,7710.9337711901335,15347.543365485444,15531.029071534931
68739,-17133,30201,-1794,-31231,5863,8215,-19755,28386,-20518,59,-1,38905,2020-11-02 15:28:48,2020-11-02 15:29:17,1,D7:F2:3B:06:4D:C8,59,59,-17204.366305791846,28004.30555560104,-11341.392170481831
68740,20250,-17930,-29443,12807,-22,20240,-4400,-18202,-31776,59,-1,38930,2020-11-02 15:28:48,2020-11-02 15:29:17,1,D7:F2:3B:06:4D:C8,59,59,12685.453041009885,-20325.62477251216,32006.029240619224
68741,7705,-3085,-24579,18189,3574,-5116,-31536,5353,-7454,59,-1,38956,2020-11-02 15:28:48,2020-11-02 15:29:17,1,D7:F2:3B:06:4D:C8,59,59,23259.625840066412,5778.249711281575,-9930.41424383642
68742,-2281,19181,28634,-20213,11517,-10501,26833,23017,18660,59,-1,38981,2020-11-02 15:28:48,2020-11-02 15:29:17,1,D7:F2:3B:06:4D:C8,59,59,-27663.719033988094,-5281.696703536027,19996.04978840624
68743,10508,3056,-8207,-22522,-22532,11003,11985,-7704,-23067,59,-1,39033,2020-11-02 15:28:48,2020-11-02 15:29:17,1,D7:F2:3B:06:4D:C8,59,59,-4989.408523185262,-3694.4633924866703,12188.879843133336
68744,-27123,-2064,1781,-6135,-6149,21246,10705,-3864,10215,59,-1,39035,2020-11-02 15:28:48,2020-11-02 15:29:17,1,D7:F2:3B:06:4D:C8,59,59,-12455.145739632222,-24235.483344216194,-774.5177058923415
68745,532,-1293,17395,-8183,-17409,25339,-1839,-19224,744,59,-1,39058,2020-11-02 15:28:48,2020-11-02 15:29:17,1,D7:F2:3B:06:4D:C8,59,59,-2981.4585483928267,-1293.0,-17145.843634076897
68746,13841,-21261,28405,-11769,29186,-20490,-26414,-26393,-14872,59,-1,39084,2020-11-02 15:28:48,2020-11-02 15:29:17,1,D7:F2:3B:06:4D:C8,59,59,7769.331431098242,35238.74182528534,12178.505273005994
68747,-242,24051,-5643,-25338,-26109,-9484,8659,-2587,23273,59,-1,39109,2020-11-02 15:28:48,2020-11-02 15:29:17,1,D7:F2:3B:06:4D:C8,59,59,13586.303649729281,-11414.603896419074,17189.292743600803
68748,13841,-20494,17655,-13308,3330,7669,13267,19172,11754,59,-1,39135,2020-11-02 15:28:48,2020-11-02 15:29:17,1,D7:F2:3B:06:4D:C8,59,59,14070.6784040721,-12662.114430148391,23768.954739470704
68749,-22001,-17933,-25867,26113,20737,-2317,32465,-15134,25836,59,1,39160,2020-11-02 15:28:48,2020-11-02 15:29:17,1,D7:F2:3B:06:4D:C8,59,59,-22746.721773153262,19393.798060596313,-24108.202429039917
68750,-29161,6387,-28669,20991,11010,17649,18381,-8224,-20752,59,1,39186,2020-11-02 15:28:48,2020-11-02 15:29:17,1,D7:F2:3B:06:4D:C8,59,59,39671.26426574924,7955.334737072211,-8716.231512426668
68751,-4080,-19716,25856,-15873,28675,-23061,30397,2271,-25856,59,1,39212,2020-11-02 15:28:48,2020-11-02 15:29:17,1,D7:F2:3B:06:4D:C8,59,59,-11864.69732206187,-15638.536859247237,26240.52046659561
68752,-26093,-9986,-16132,20223,-5372,14826,10798,3040,-23012,59,1,39237,2020-11-02 15:28:48,2020-11-02 15:29:17,1,D7:F2:3B:06:4D:C8,59,59,10865.521036818782,-25093.497451005398,-17119.086052556486
68753,29712,12290,31748,-16130,8453,29671,28197,19683,21797,59,1,39263,2020-11-02 15:28:48,2020-11-02 15:29:17,1,D7:F2:3B:06:4D:C8,59,59,31061.89498628345,-20583.12609581875,25559.267360093174
68754,14863,17157,-16644,31231,24067,-15131,21027,9191,-30425,59,1,39288,2020-11-02 15:28:48,2020-11-02 15:29:17,1,D7:F2:3B:06:4D:C8,59,59,20824.22829225599,18798.269328137332,-2295.8092906024212
68755,12042,-18428,-10503,-26117,-27388,2021,4898,15339,-32472,59,1,39314,2020-11-02 15:28:48,2020-11-02 15:29:17,1,D7:F2:3B:06:4D:C8,59,59,13540.483784016744,-19190.78991771173,-6578.969389580223
68756,-8188,6659,-1543,5622,-15611,14054,28960,20207,11049,59,1,39340,2020-11-02 15:28:48,2020-11-02 15:29:17,1,D7:F2:3B:06:4D:C8,59,59,3515.0703253060915,6231.911263248379,7910.375251222315
68757,-32511,27906,17658,9203,24836,-22550,-28130,-6158,22825,59,1,39365,2020-11-02 15:28:48,2020-11-02 15:29:17,1,D7:F2:3B:06:4D:C8,59,59,29828.32557324222,27671.74892206828,-22182.43057220459
68758,-5380,18945,14842,25583,-1533,-23570,23324,-6667,12329,59,1,39391,2020-11-02 15:28:48,2020-11-02 15:29:17,1,D7:F2:3B:06:4D:C8,59,59,-6161.768804301859,16229.11839576657,-17515.442052615275
68759,2298,5885,11000,-2074,-8957,3572,13849,9976,-7384,59,1,39416,2020-11-02 15:28:48,2020-11-02 15:29:17,1,D7:F2:3B:06:4D:C8,59,59,-9454.840562752175,-8320.012296447227,-1515.722375602833
68760,12793,32250,-9468,-26658,25858,20218,-24044,-32263,-24280,59,1,39442,2020-11-02 15:28:48,2020-11-02 15:29:17,1,D7:F2:3B:06:4D:C8,59,59,-11018.543832355368,34045.25264831692,-3588.7096464792376
68761,12026,18171,-29420,13279,17919,24065,27919,-12807,-28120,59,1,39468,2020-11-02 15:28:48,2020-11-02 15:29:17,1,D7:F2:3B:06:4D:C8,59,59,32366.417961366682,14759.5745776326,8655.418166525618
68762,-17409,-12289,-31971,3560,19707,-8697,-6390,249,4905,59,1,39493,2020-11-02 15:28:48,2020-11-02 15:29:17,1,D7:F2:3B:06:4D:C8,59,59,-17409.0,-33542.44389210683,-6933.168088606055
68763,31495,-7679,-7403,-20240,2813,-24824,-22265,-6409,8746,59,1,39519,2020-11-02 15:28:48,2020-11-02 15:29:17,1,D7:F2:3B:06:4D:C8,59,59,-148.43501002405674,11905.440968509514,31047.46233419302
68764,23303,2816,-10482,13298,6915,-4859,3845,-16649,17707,59,1,39544,2020-11-02 15:28:48,2020-11-02 15:29:17,1,D7:F2:3B:06:4D:C8,59,59,-232.84322683686878,-2811.275006133055,25551.409078006007
68765,11528,5118,11023,27122,-14334,-16379,-28158,9208,18220,59,1,39570,2020-11-02 15:28:48,2020-11-02 15:29:17,1,D7:F2:3B:06:4D:C8,59,59,-1741.3659576130776,12053.95351612347,-11500.655904460444
68766,-9973,16635,-18165,-21518,21499,25095,8448,-10249,25133,59,1,39595,2020-11-02 15:28:48,2020-11-02 15:29:17,1,D7:F2:3B:06:4D:C8,59,59,24193.067502683625,-9124.04749561878,-6131.755140927125
68767,5141,29943,-10228,-25361,-12557,-13305,17917,27638,-13778,59,1,39621,2020-11-02 15:28:48,2020-11-02 15:29:17,1,D7:F2:3B:06:4D:C8,59,59,-19723.967114036834,24666.81574430256,-5489.848478876338
68768,28947,-14598,8462,-26128,-10771,5381,-519,9460,28208,59,1,39647,2020-11-02 15:28:48,2020-11-02 15:29:17,1,D7:F2:3B:06:4D:C8,59,59,-25925.161944950716,-7683.4334351268335,-19786.02248497798
68769,-9197,-31491,31764,-7177,9450,22786,13815,20465,17458,59,1,39672,2020-11-02 15:28:48,2020-11-02 15:29:17,1,D7:F2:3B:06:4D:C8,59,59,-940.0328001233283,16071.536831795089,42732.208323452534
68770,-29673,-27652,-15344,23810,-10011,-19715,-21003,-5139,15156,59,1,39698,2020-11-02 15:28:48,2020-11-02 15:29:17,1,D7:F2:3B:06:4D:C8,59,59,-10574.996772836676,-37472.6139635765,19092.69533070868
68771,788,-16646,20488,-25850,-6690,4093,17908,-28951,2871,59,1,39723,2020-11-02 15:28:48,2020-11-02 15:29:17,1,D7:F2:3B:06:4D:C8,59,59,-21478.89625585996,13588.148373280454,-7175.489071535174
68772,3602,18942,-28411,-25079,-31268,-14081,28399,4325,-5059,59,1,39749,2020-11-02 15:28:48,2020-11-02 15:29:17,1,D7:F2:3B:06:4D:C8,59,59,3602.0,-33882.83316059208,4235.3160462333035
68773,-21235,12540,12289,-15856,25064,8194,-4635,-29470,31933,59,1,39775,2020-11-02 15:28:48,2020-11-02 15:29:17,1,D7:F2:3B:06:4D:C8,59,59,13658.99008010472,-1966.9070598335202,23848.681569629334
68774,8978,-20230,-260,13076,-6160,5891,6878,25314,-27192,59,1,39826,2020-11-02 15:28:48,2020-11-02 15:29:17,1,D7:F2:3B:06:4D:C8,59,59,3451.971614976493,12390.654786801631,18013.343663065618
68775,7957,22267,-31747,-25580,-22798,24833,23001,-9758,-20784,59,1,39828,2020-11-02 15:28:48,2020-11-02 15:29:17,1,D7:F2:3B:06:4D:C8,59,59,-6452.216316638944,38051.15153403658,8802.495017725563
68776,23564,-17673,-6668,-10731,-28428,-22526,23254,-23069,12247,59,-1,39851,2020-11-02 15:28:48,2020-11-02 15:29:17,1,D7:F2:3B:06:4D:C8,59,59,-5090.731118273228,-4509.215982204164,-29424.661033005617
68777,-9448,30707,-13062,-30951,-14601,-20482,2518,22500,22235,59,-1,39877,2020-11-02 15:28:48,2020-11-02 15:29:17,1,D7:F2:3B:06:4D:C8,59,59,-11768.353902893487,-29339.868637504613,14264.583826744643
68778,-19177,7155,-19721,-28906,1533,14840,-6442,-10269,20190,59,-1,39903,2020-11-02 15:28:48,2020-11-02 15:29:17,1,D7:F2:3B:06:4D:C8,59,59,-1837.9911433333418,13119.456624642571,-25146.984738356812
68779,3607,8948,-29697,11794,6914,-6416,31704,6370,-16417,59,-1,39928,2020-11-02 15:28:48,2020-11-02 15:29:17,1,D7:F2:3B:06:4D:C8,59,59,-18442.736656479858,22033.16511994383,-12222.686342086368
68780,-28391,-19214,8183,-27633,23555,8427,5595,16351,-13857,59,-1,39954,2020-11-02 15:28:48,2020-11-02 15:29:17,1,D7:F2:3B:06:4D:C8,59,59,-25484.400148611636,-9513.22737949037,22410.53368154266
68781,6680,1778,32757,25094,-31998,-15389,18974,18910,-16854,59,-1,39979,2020-11-02 15:28:48,2020-11-02 15:29:17,1,D7:F2:3B:06:4D:C8,59,59,-1162.1681934033911,12798.651214951502,30913.567008164257
68782,28437,-5383,-11019,-17156,-2300,5087,13856,-4638,-7896,59,-1,40005,2020-11-02 15:28:48,2020-11-02 15:29:17,1,D7:F2:3B:06:4D:C8,59,59,25680.73054009028,-17304.98417142121,-309.2260566896821
68783,-18933,4090,-10762,24820,16649,30426,-31970,30696,21289,59,-1,40030,2020-11-02 15:28:48,2020-11-02 15:29:17,1,D7:F2:3B:06:4D:C8,59,59,4521.937464412229,-12240.756647657918,-17908.74622246805
68784,-8709,14076,-32007,-1807,-26616,19166,-32484,7406,19241,59,-1,40056,2020-11-02 15:28:48,2020-11-02 15:29:17,1,D7:F2:3B:06:4D:C8,59,59,-3917.3115898519586,-34477.339228123565,9715.773549074893
68785,14580,-26627,-1291,-20755,-13820,-4118,31258,15858,-22744,59,-1,40081,2020-11-02 15:28:48,2020-11-02 15:29:17,1,D7:F2:3B:06:4D:C8,59,59,-17889.226756905617,6329.862547765601,-23730.7525410891
68786,18421,-5636,-22022,-20504,-9985,-17159,-28137,6132,2856,59,-1,40107,2020-11-02 15:28:48,2020-11-02 15:29:17,1,D7:F2:3B:06:4D:C8,59,59,18476.33747940459,20350.23999885851,-10027.90637850236
68787,-18439,30713,24834,998,4092,-5372,-8941,-12813,-16601,59,-1,40133,2020-11-02 15:28:48,2020-11-02 15:29:17,1,D7:F2:3B:06:4D:C8,59,59,26195.49523342933,-32853.54482111264,-11595.398577130672
68788,-16894,28405,-27642,24035,24827,32522,19727,24050,21800,59,1,40158,2020-11-02 15:28:48,2020-11-02 15:29:17,1,D7:F2:3B:06:4D:C8,59,59,15991.985240213384,22185.126243453517,-33292.76207584506
68789,6917,24821,15122,21476,-27651,-31479,1034,7665,-19927,59,1,40184,2020-11-02 15:28:48,2020-11-02 15:29:17,1,D7:F2:3B:06:4D:C8,59,59,-12794.512088153355,-26895.72066499063,2349.9966674217894
68790,6915,-9736,25111,-5141,-14338,20746,16645,28144,31787,59,1,40209,2020-11-02 15:28:48,2020-11-02 15:29:17,1,D7:F2:3B:06:4D:C8,59,59,-15148.576185349946,-15001.734005297636,17850.430201845138
68791,10502,-22534,-31975,13810,21503,-9718,23297,8176,-23251,59,1,40235,2020-11-02 15:28:48,2020-11-02 15:29:17,1,D7:F2:3B:06:4D:C8,59,59,-17417.921605651525,34654.1758324476,11669.528238672821
68792,-246,8187,-15082,-2059,-772,-12021,4606,-6417,-209,59,1,40261,2020-11-02 15:28:48,2020-11-02 15:29:17,1,D7:F2:3B:06:4D:C8,59,59,12558.151025629133,8187.0,-8355.841239366027
68793,-8435,-5382,25362,18425,-21258,-23283,-3846,16367,-11470,59,1,40286,2020-11-02 15:28:48,2020-11-02 15:29:17,1,D7:F2:3B:06:4D:C8,59,59,-15951.609223183375,-21921.967005835933,-2884.3922732340006
68794,12563,27898,16660,-20994,8685,5135,-25865,-17939,-14026,59,1,40312,2020-11-02 15:28:48,2020-11-02 15:29:17,1,D7:F2:3B:06:4D:C8,59,59,-22269.949116582065,25456.571933440882,-8348.370184796291
68795,6929,-27398,-8949,-12539,21479,-21490,-5133,-24341,16700,59,1,40337,2020-11-02 15:28:48,2020-11-02 15:29:17,1,D7:F2:3B:06:4D:C8,59,59,29616.106832693065,1124.9641312236035,605.5722731198284
68796,3353,24311,5637,-31993,23785,-32500,-29457,-7191,-1470,59,1,40363,2020-11-02 15:28:48,2020-11-02 15:29:17,1,D7:F2:3B:06:4D:C8,59,59,-19150.59657256201,1490.6552545203822,16281.145439653412
68797,-15078,9720,-13049,-7158,-11541,-13815,26603,-4888,-10052,59,1,40389,2020-11-02 15:28:48,2020-11-02 15:29:17,1,D7:F2:3B:06:4D:C8,59,59,-21802.853355038045,3919.1702593535356,1173.2753542562104
68798,-11238,-15883,-26369,-27377,26348,-29179,744,11240,17347,59,1,40415,2020-11-02 15:28:48,2020-11-02 15:29:17,1,D7:F2:3B:06:4D:C8,59,59,30219.25609157648,11735.905450486125,-4790.7805761658365
68799,-9958,26100,-15365,11280,9714,11522,-21787,-29721,-20792,59,1,40440,2020-11-02 15:28:48,2020-11-02 15:29:17,1,D7:F2:3B:06:4D:C8,59,59,-12099.77793179144,26565.44611819297,12819.02631024364
68800,15901,17651,24058,-2543,-29964,21757,-7196,-13850,31436,59,1,40465,2020-11-02 15:28:48,2020-11-02 15:29:17,1,D7:F2:3B:06:4D:C8,59,59,27158.936800942483,13176.311022272872,15230.36262492599
68801,9498,10482,26870,1041,15866,21495,-19995,30437,-31282,59,1,40491,2020-11-02 15:28:48,2020-11-02 15:29:17,1,D7:F2:3B:06:4D:C8,59,59,14717.106878230368,26536.43908601116,1142.5383009611633
68802,26390,9713,29936,-2291,-10242,-2574,-17176,-25373,-11059,59,1,40516,2020-11-02 15:28:48,2020-11-02 15:29:17,1,D7:F2:3B:06:4D:C8,59,59,1478.7341488566053,40596.498344237756,-6056.090529649166
68803,13845,10481,12271,-3834,-23043,-6927,15342,-14111,-24631,59,1,40542,2020-11-02 15:28:48,2020-11-02 15:29:17,1,D7:F2:3B:06:4D:C8,59,59,18140.61146015625,2739.6636971759663,10748.268961931675
68804,5649,3058,-9735,12035,-1287,19956,-10508,12768,32707,59,1,40568,2020-11-02 15:28:48,2020-11-02 15:29:17,1,D7:F2:3B:06:4D:C8,59,59,-8958.106064785237,7229.267346371031,-1876.9175173010408
68805,-750,-8974,-22020,3586,1273,-26123,-7426,-18210,-14151,59,1,40593,2020-11-02 15:28:48,2020-11-02 15:29:17,1,D7:F2:3B:06:4D:C8,59,59,-21821.6498902918,8495.78459692749,4196.762579433998
68806,26638,-25872,-17670,-31230,12543,13041,-1769,3551,-15059,59,1,40619,2020-11-02 15:28:48,2020-11-02 15:29:17,1,D7:F2:3B:06:4D:C8,59,59,-34610.66245877682,-13455.313900634843,-17670.0
68807,-3826,32501,18946,-28417,12286,20718,-19426,20705,39,59,1,40644,2020-11-02 15:28:48,2020-11-02 15:29:17,1,D7:F2:3B:06:4D:C8,59,59,493.55552076665253,-29502.086459308834,23649.25982975761
68808,22275,-24327,28426,31744,-25095,25334,-26334,32227,-6878,59,1,40670,2020-11-02 15:28:48,2020-11-02 15:29:17,1,D7:F2:3B:06:4D:C8,59,59,17857.35297516642,-38197.36384020967,10867.031350785623
68809,-26868,29954,25860,-6146,-6921,18166,30501,-11036,-6113,59,1,40696,2020-11-02 15:28:48,2020-11-02 15:29:17,1,D7:F2:3B:06:4D:C8,59,59,29897.033815863917,15060.295449248191,-34164.68951994799
68810,-29433,-8186,-1277,-6913,9475,-8722,-16348,231,-31968,59,1,40721,2020-11-02 15:28:48,2020-11-02 15:29:17,1,D7:F2:3B:06:4D:C8,59,59,-10502.202647806595,-27587.081632737394,7974.928246265731
68811,-18172,6149,32249,-23561,7942,18664,-4062,13802,-10975,59,1,40772,2020-11-02 15:28:48,2020-11-02 15:29:17,1,D7:F2:3B:06:4D:C8,59,59,25103.878623073746,-27716.308638354105,3103.4335084674913
68812,5881,-1533,9724,4592,-29177,13289,-7649,-275,12835,59,1,40774,2020-11-02 15:28:48,2020-11-02 15:29:17,1,D7:F2:3B:06:4D:C8,59,59,-9134.496879302864,2287.1592494092283,6543.874641972296
68813,28404,-18428,-14593,-1045,27395,-28427,-12004,-26640,-28381,59,-1,40798,2020-11-02 15:28:48,2020-11-02 15:29:17,1,D7:F2:3B:06:4D:C8,59,59,5080.964664733935,2685.4644532676375,-36418.4860715813
68814,-15371,27140,-13818,-7701,6655,14084,-28135,-2320,-19933,59,-1,40823,2020-11-02 15:28:48,2020-11-02 15:29:17,1,D7:F2:3B:06:4D:C8,59,59,14189.483590031174,9378.668081371648,29571.66727575056
68815,5883,27137,-15351,-17940,23036,-19697,9238,19183,21284,59,-1,40849,2020-11-02 15:28:48,2020-11-02 15:29:17,1,D7:F2:3B:06:4D:C8,59,59,-157.65801958189343,-27835.924166865276,-15225.509145029842
68816,22785,13057,23569,-18702,20730,29718,9746,-31764,23846,59,-1,40875,2020-11-02 15:28:48,2020-11-02 15:29:17,1,D7:F2:3B:06:4D:C8,59,59,-28763.499501047692,-13754.262224858685,-15120.205094609486
68817,3340,-7423,-10219,-5894,13818,-10472,-19699,28393,13098,59,-1,40900,2020-11-02 15:28:48,2020-11-02 15:29:17,1,D7:F2:3B:06:4D:C8,59,59,-946.2600889065234,-12125.95322799993,-4769.731665041617
68818,-30955,-11264,2060,256,-12290,-19436,26120,26599,2096,59,-1,40926,2020-11-02 15:28:48,2020-11-02 15:29:17,1,D7:F2:3B:06:4D:C8,59,59,14801.121087445079,8921.654885742057,-28118.751922062675
68819,-28141,-20741,17415,2556,-7426,22544,-19454,-21786,-1739,59,-1,40951,2020-11-02 15:28:48,2020-11-02 15:29:17,1,D7:F2:3B:06:4D:C8,59,59,29879.3352551079,22991.039312352426,10199.246200123378
68820,5907,8441,-11768,13818,17912,-6127,-2821,-1307,31036,59,-1,40977,2020-11-02 15:28:48,2020-11-02 15:29:17,1,D7:F2:3B:06:4D:C8,59,59,9769.87233196283,-3269.9731829400666,-11768.0
68821,14612,9463,780,7167,-17425,22,-30990,21733,8774,59,-1,41003,2020-11-02 15:28:48,2020-11-02 15:29:17,1,D7:F2:3B:06:4D:C8,59,59,-8736.495577086722,-10022.487691439359,-11264.577156133768
68822,-22245,22773,-24058,-4602,-23315,31252,-14872,-5147,-19260,59,-1,41028,2020-11-02 15:28:48,2020-11-02 15:29:17,1,D7:F2:3B:06:4D:C8,59,59,17597.87719358949,34178.24083601343,-10695.769707450097
68823,29468,-8460,24582,14348,-4623,-18675,27107,18407,20684,59,-1,41054,2020-11-02 15:28:48,2020-11-02 15:29:17,1,D7:F2:3B:06:4D:C8,59,59,26825.742958528426,-28201.41882949352,5410.068273732815
68824,18974,28401,-24326,-24817,-22538,-24315,-10527,9448,-23088,59,1,41080,2020-11-02 15:28:48,2020-11-02 15:29:17,1,D7:F2:3B:06:4D:C8,59,59,17551.20314148817,-12481.261478356937,-35979.95460246023
68825,-22754,4336,18933,14602,-21508,-13316,7394,-2073,-32558,59,1,41105,2020-11-02 15:28:48,2020-11-02 15:29:17,1,D7:F2:3B:06:4D:C8,59,59,6576.199377527961,-25673.99714239174,13878.16174712853
68826,-13287,12784,17909,27656,15358,18168,5603,-4122,-5934,59,1,41130,2020-11-02 15:28:48,2020-11-02 15:29:17,1,D7:F2:3B:06:4D:C8,59,59,3578.3683317141767,18087.84965336082,17909.0
68827,21016,-12815,24822,-15099,6910,13558,24292,-28699,-27182,59,1,41156,2020-11-02 15:28:48,2020-11-02 15:29:17,1,D7:F2:3B:06:4D:C8,59,59,-20362.11229788254,-17978.75289840075,-22004.022177471717
68828,18451,-21517,-21510,-8444,-13061,24822,-3100,-1309,-16174,59,1,41182,2020-11-02 15:28:48,2020-11-02 15:29:17,1,D7:F2:3B:06:4D:C8,59,59,-27243.678014139517,-7823.215340375789,-21510.0
68829,-24561,-20493,15609,26630,-30727,-4617,16868,29922,25300,59,1,41207,2020-11-02 15:28:48,2020-11-02 15:29:17,1,D7:F2:3B:06:4D:C8,59,59,-15484.698134231134,-9261.517407783023,-30680.532426883838
68830,15631,1010,12023,-6140,15352,-6663,29665,12769,8408,59,1,41233,2020-11-02 15:28:48,2020-11-02 15:29:17,1,D7:F2:3B:06:4D:C8,59,59,-12257.353977900097,2778.8843807685244,-15229.440733617812
68831,20245,-15631,26870,-4349,-23560,-18185,-24870,6880,-15649,59,1,41258,2020-11-02 15:28:48,2020-11-02 15:29:17,1,D7:F2:3B:06:4D:C8,59,59,-3459.721149497771,16754.336354644765,-32916.677063202274
68832,-3828,3057,28914,1021,8697,-12039,-560,29407,27625,59,1,41284,2020-11-02 15:28:48,2020-11-02 15:29:17,1,D7:F2:3B:06:4D:C8,59,59,21146.452904479822,19806.952767192,4531.046307073229
68833,18719,11504,14594,22522,18943,19953,9920,-6434,-22023,59,1,41310,2020-11-02 15:28:48,2020-11-02 15:29:17,1,D7:F2:3B:06:4D:C8,59,59,3764.333846491728,6662.6895365232385,25242.150697435838
68834,16907,18170,-20997,-775,31999,8174,-22988,-14113,-1008,59,1,41335,2020-11-02 15:28:48,2020-11-02 15:29:17,1,D7:F2:3B:06:4D:C8,59,59,-32019.338273122747,4013.8774028887383,3939.584082859029
68835,2316,14844,30468,-27401,20227,8686,810,-7711,-27622,59,1,41361,2020-11-02 15:28:48,2020-11-02 15:29:17,1,D7:F2:3B:06:4D:C8,59,59,4706.167862354481,-28158.52399393084,18410.77745600557
68836,29448,0,-17917,-27400,8197,22251,-22492,-20252,-7138,59,1,41386,2020-11-02 15:28:48,2020-11-02 15:29:17,1,D7:F2:3B:06:4D:C8,59,59,-19231.663972188766,25271.852238024567,-13404.483515610333
68837,31747,30976,-32010,12020,11017,-4889,-8160,10728,30753,59,-1,41412,2020-11-02 15:28:48,2020-11-02 15:29:17,1,D7:F2:3B:06:4D:C8,59,59,-15264.361433202786,15646.374264348578,-50141.94778243544
68838,18931,-21504,30204,-14610,10247,6126,21021,-19989,-9182,59,-1,41437,2020-11-02 15:28:48,2020-11-02 15:29:17,1,D7:F2:3B:06:4D:C8,59,59,6712.443706761865,21058.73542178827,35278.309978210025
68839,-21265,11522,10757,-2324,32765,28673,-27110,-10516,-18654,59,-1,41464,2020-11-02 15:28:48,2020-11-02 15:29:17,1,D7:F2:3B:06:4D:C8,59,59,10569.601589688602,17337.291506838108,-16981.50769049001
68840,4348,4097,5389,22255,18678,2323,-5353,-20502,-27614,59,-1,41489,2020-11-02 15:28:48,2020-11-02 15:29:17,1,D7:F2:3B:06:4D:C8,59,59,210.07406894019778,-6511.169762431564,-4721.479769135498
68841,8200,26879,10764,-23308,22774,32280,-19436,-7194,-8413,59,-1,41514,2020-11-02 15:28:48,2020-11-02 15:29:17,1,D7:F2:3B:06:4D:C8,59,59,-12150.123147839222,-27516.10773663023,-907.0057984927762
68842,-23279,-28930,-15094,-21771,-14596,5395,-19698,-8477,-28120,59,-1,41540,2020-11-02 15:28:48,2020-11-02 15:29:17,1,D7:F2:3B:06:4D:C8,59,59,-1377.3455092684417,-38963.18757464602,-9309.055288859754
68843,30992,13822,-26609,26362,767,-22002,19462,-24606,3376,59,-1,41565,2020-11-02 15:28:48,2020-11-02 15:29:17,1,D7:F2:3B:06:4D:C8,59,59,1154.6950661375886,-9928.61399354635,-41948.53909817829
68844,3858,-12034,-11247,23553,-6917,24080,-26628,7650,-12999,59,-1,41591,2020-11-02 15:28:48,2020-11-02 15:29:17,1,D7:F2:3B:06:4D:C8,59,59,14639.601760892292,-7367.478298544204,-4195.074826860595
68845,-3819,7677,2828,4358,5882,-18928,23282,27106,2117,59,-1,41616,2020-11-02 15:28:48,2020-11-02 15:29:17,1,D7:F2:3B:06:4D:C8,59,59,8292.219428577959,-2877.7846206391273,2115.6858522774937
68846,23830,15866,-16635,-31482,-29190,-21746,4331,31971,449,59,-1,41642,2020-11-02 15:28:48,2020-11-02 15:29:17,1,D7:F2:3B:06:4D:C8,59,59,22711.37518860999,15866.0,18132.445010041818
68847,2329,16885,-15103,10503,-21512,-2290,-28186,-5660,-10042,59,-1,41668,2020-11-02 15:28:48,2020-11-02 15:29:17,1,D7:F2:3B:06:4D:C8,59,59,1589.2435450817375,-1747.3306561389627,22650.5897391775
68848,-25580,6902,-23553,15878,10486,21517,-28702,28134,17868,59,1,41693,2020-11-02 15:28:48,2020-11-02 15:29:17,1,D7:F2:3B:06:4D:C8,59,59,-20063.340091823484,-21931.520899703282,-19318.089667089407
68849,-14311,6899,9728,-16377,13301,21770,-13857,-6937,-27440,59,1,41719,2020-11-02 15:28:48,2020-11-02 15:29:17,1,D7:F2:3B:06:4D:C8,59,59,-5144.546421064563,-3184.0634677694366,-17619.031981205095
68850,-25319,-20495,-10754,15115,25842,-13305,-12835,3305,-29228,59,1,41744,2020-11-02 15:28:48,2020-11-02 15:29:17,1,D7:F2:3B:06:4D:C8,59,59,-5983.718250883161,-24633.483610638978,23111.293843020318
68851,31260,236,3569,2571,-3597,-28670,15324,-12823,32216,59,1,41770,2020-11-02 15:28:48,2020-11-02 15:29:17,1,D7:F2:3B:06:4D:C8,59,59,-6568.508468689863,10418.057818898938,28953.40782669336
68852,-8169,-8726,31218,21258,25592,1788,-32293,-24087,10459,59,1,41796,2020-11-02 15:28:48,2020-11-02 15:29:17,1,D7:F2:3B:06:4D:C8,59,59,30357.326457930987,-12707.931784713946,5863.47687653497
68853,-1774,32234,15091,10250,5880,5369,475,-9752,-30499,59,1,41821,2020-11-02 15:28:48,2020-11-02 15:29:17,1,D7:F2:3B:06:4D:C8,59,59,-34783.97780873044,-3952.5913131656653,6660.932570806888
68854,-1780,27117,-24584,-15606,22773,15609,-18471,744,-11040,59,1,41847,2020-11-02 15:28:48,2020-11-02 15:29:17,1,D7:F2:3B:06:4D:C8,59,59,-26470.86437151188,-14881.403262061882,20511.22427786593
68855,15874,6385,-22291,8204,8436,-7432,-12073,25319,-2844,59,1,41872,2020-11-02 15:28:48,2020-11-02 15:29:17,1,D7:F2:3B:06:4D:C8,59,59,-13002.395457290437,-22926.246492724775,9745.035460533632
68856,-30702,22513,5881,-29431,-32013,19195,-24875,16615,3817,59,1,41898,2020-11-02 15:28:48,2020-11-02 15:29:17,1,D7:F2:3B:06:4D:C8,59,59,24773.64351690826,-19166.23431140842,22426.684623843532
68857,6924,13811,-5643,-13818,20469,13563,-5166,21223,30957,59,1,41923,2020-11-02 15:28:48,2020-11-02 15:29:17,1,D7:F2:3B:06:4D:C8,59,59,11073.390089141769,11254.434338840034,4609.412722509793
68858,11530,1521,-30990,-19710,-28170,-25864,-6705,22247,-22799,59,1,41949,2020-11-02 15:28:48,2020-11-02 15:29:17,1,D7:F2:3B:06:4D:C8,59,59,10254.412355545413,26972.41530408487,16216.358435431981
68859,-31738,-16656,-14873,5116,-10762,-8462,28619,-3098,24054,59,1,41975,2020-11-02 15:28:48,2020-11-02 15:29:17,1,D7:F2:3B:06:4D:C8,59,59,20466.205715431082,24260.484478655937,22326.94393495335
68860,-13038,-9234,31473,25845,-29956,-17167,3014,-25114,-4358,59,1,42000,2020-11-02 15:28:48,2020-11-02 15:29:17,1,D7:F2:3B:06:4D:C8,59,59,32341.0504636462,-9234.0,-10704.93474561569
68861,-5370,-14094,-6150,-20242,-17149,-6422,-16195,23525,28929,59,1,42026,2020-11-02 15:28:48,2020-11-02 15:29:17,1,D7:F2:3B:06:4D:C8,59,59,-2043.1807091672872,7869.395475523572,-14113.761491519397
68862,8200,-6920,25857,-18452,-3582,-18195,2880,-1820,30729,59,1,42051,2020-11-02 15:28:48,2020-11-02 15:29:17,1,D7:F2:3B:06:4D:C8,59,59,-4309.726059870462,-9826.12137564326,25857.0
68863,5639,17924,23819,28658,-24574,-29199,31543,-25115,-2033,59,1,42077,2020-11-02 15:28:48,2020-11-02 15:29:17,1,D7:F2:3B:06:4D:C8,59,59,-11580.261456667708,27924.97831044416,2550.6840173646333
68864,-1525,-13567,-27656,-9234,32007,-10259,22064,-6938,25877,59,1,42103,2020-11-02 15:28:48,2020-11-02 15:29:17,1,D7:F2:3B:06:4D:C8,59,59,27663.14932494215,5509.879050225756,12475.36982529319
68865,6657,-16640,-16898,21227,-15350,9452,-31448,4585,-9190,59,1,42128,2020-11-02 15:28:48,2020-11-02 15:29:17,1,D7:F2:3B:06:4D:C8,59,59,13260.046338802906,603.03162192745,-20749.82354035222
68866,-22536,5636,11525,-28435,-18940,-29706,16931,8427,-28643,59,1,42154,2020-11-02 15:28:48,2020-11-02 15:29:17,1,D7:F2:3B:06:4D:C8,59,59,17484.167961636183,-622.6719175592498,19140.9918074372
68867,11770,15620,32262,19440,-7942,28164,-7392,19691,18973,59,1,42179,2020-11-02 15:28:48,2020-11-02 15:29:17,1,D7:F2:3B:06:4D:C8,59,59,5914.565237622335,-36789.89744730979,-5905.531971494023
68868,13566,-20479,22272,-5392,27637,20494,13088,-29719,22043,59,1,42205,2020-11-02 15:28:48,2020-11-02 15:29:17,1,D7:F2:3B:06:4D:C8,59,59,24322.3122449953,8381.110314529,-20920.08360290768
68869,-27135,5119,-25340,-23314,-16649,12563,-28641,-19738,10521,59,1,42230,2020-11-02 15:28:48,2020-11-02 15:29:17,1,D7:F2:3B:06:4D:C8,59,59,-365.5595070139789,28731.62977268079,-24062.16538162005
68870,11789,-13825,-9716,7153,15100,-11502,22301,-24605,-12008,59,1,42256,2020-11-02 15:28:48,2020-11-02 15:29:17,1,D7:F2:3B:06:4D:C8,59,59,14483.837195041659,-4536.024801869449,-13933.942051851405
68871,6163,30974,25102,21751,28412,-17647,21017,-7200,10267,59,1,42282,2020-11-02 15:28:48,2020-11-02 15:29:17,1,D7:F2:3B:06:4D:C8,59,59,39893.94283567424,-1178.6488032713933,-5879.265347175864
68872,-20455,-3591,-30969,31228,18166,13332,-12530,-2339,-7132,59,1,42307,2020-11-02 15:28:48,2020-11-02 15:29:17,1,D7:F2:3B:06:4D:C8,59,59,-33490.25335660652,2804.777502644487,16152.938440759475
68873,-3563,18682,-10237,17409,14571,20755,-32049,-20001,-31017,59,1,42333,2020-11-02 15:28:48,2020-11-02 15:29:17,1,D7:F2:3B:06:4D:C8,59,59,-14095.302335227432,5638.951057127419,-15363.363728489074
68874,15129,-17158,27901,1285,-797,-26352,-7990,27364,-9508,59,1,42358,2020-11-02 15:28:48,2020-11-02 15:29:17,1,D7:F2:3B:06:4D:C8,59,59,-5455.8434081793,34792.205594002386,-7841.275955486799
68875,-8171,15611,30717,2826,-2842,-27127,16585,-12824,-801,59,1,42384,2020-11-02 15:28:48,2020-11-02 15:29:17,1,D7:F2:3B:06:4D:C8,59,59,2116.171642962594,-34427.3573251419,-8017.576702752463
68876,-9708,-16649,6134,5391,-28431,-4862,-29495,-29205,8418,59,1,42410,2020-11-02 15:28:48,2020-11-02 15:29:17,1,D7:F2:3B:06:4D:C8,59,59,65.51854439956332,-19525.367850376126,5274.100741153709
68877,4880,-12299,-28171,24337,8441,6910,-10038,-30740,-22045,59,1,42435,2020-11-02 15:28:48,2020-11-02 15:29:17,1,D7:F2:3B:06:4D:C8,59,59,-1028.6970286057895,30510.420577579458,-6061.440472573631
68878,26383,-12562,29426,9235,31738,-7427,-22836,-2836,1253,59,1,42461,2020-11-02 15:28:48,2020-11-02 15:29:17,1,D7:F2:3B:06:4D:C8,59,59,26383.0,16588.883099464445,-27358.769663716655
68879,-1775,-7448,26096,17685,-24838,-30212,-16434,13549,27110,59,1,42488,2020-11-02 15:28:48,2020-11-02 15:29:17,1,D7:F2:3B:06:4D:C8,59,59,22250.37073354701,-15282.565112733797,3314.9284750604515
68880,32529,11497,6892,-17133,-26374,-1543,-22832,5869,5608,59,-1,42512,2020-11-02 15:28:48,2020-11-02 15:29:17,1,D7:F2:3B:06:4D:C8,59,59,10468.863111269075,-10409.344637866716,-31935.32469488333
68881,-20724,10730,4337,-27633,-27394,-27401,2770,29932,-19479,59,-1,42537,2020-11-02 15:28:48,2020-11-02 15:29:17,1,D7:F2:3B:06:4D:C8,59,59,11451.237384983011,-9206.131682040512,-18642.50376976487
68882,-21238,3053,-16906,-29682,-23298,4854,18643,18923,-4118,59,-1,42563,2020-11-02 15:28:48,2020-11-02 15:29:17,1,D7:F2:3B:06:4D:C8,59,59,23448.159906503995,-636.672235861045,-13998.740459880742
68883,-29425,6383,2805,-7156,18177,-14605,-32044,-12567,1004,59,-1,42589,2020-11-02 15:28:48,2020-11-02 15:29:17,1,D7:F2:3B:06:4D:C8,59,59,5955.977674363548,-879.1668606183302,-29634.35058464541
68884,-15610,12015,-12,-15865,-3841,1010,-11052,-10521,25325,59,-1,42614,2020-11-02 15:28:48,2020-11-02 15:29:17,1,D7:F2:3B:06:4D:C8,59,59,4853.784652591986,-4296.344562666565,-18601.469483487264
68885,8974,-31507,-19467,-16382,-9475,22773,-18733,21734,27887,59,-1,42640,2020-11-02 15:28:48,2020-11-02 15:29:17,1,D7:F2:3B:06:4D:C8,59,59,25146.130274841064,-14402.123655261857,-24747.500488317364
68886,-7912,-8466,12532,32766,20735,-6929,-10544,-21020,-28174,59,-1,42665,2020-11-02 15:28:48,2020-11-02 15:29:17,1,D7:F2:3B:06:4D:C8,59,59,-8357.126263744156,540.935363837797,-14872.449480297026
68887,-11759,501,1011,8443,27131,-2831,-28213,8163,26871,59,-1,42691,2020-11-02 15:28:48,2020-11-02 15:29:17,1,D7:F2:3B:06:4D:C8,59,59,3480.912400943387,5701.831776262242,9742.66730686031
68888,-31725,13819,-27140,-20228,-31490,8688,30915,8162,6143,59,-1,42742,2020-11-02 15:28:48,2020-11-02 15:29:17,1,D7:F2:3B:06:4D:C8,59,59,-185.2967452746343,-41201.37683366101,15376.351912168655
68889,-28397,-1794,-10498,506,27135,19694,836,-18207,-20470,59,-1,42744,2020-11-02 15:28:48,2020-11-02 15:29:17,1,D7:F2:3B:06:4D:C8,59,59,-29551.299059510784,-2400.3005776484783,6385.556360435427
68890,2070,4612,-13819,14331,21247,12521,-31433,483,-23786,59,-1,42768,2020-11-02 15:28:48,2020-11-02 15:29:17,1,D7:F2:3B:06:4D:C8,59,59,-12371.802486075281,-7950.224544594801,502.6310138300714
68891,27157,20992,26357,-17926,12032,18145,20015,12262,-19682,59,-1,42793,2020-11-02 15:28:48,2020-11-02 15:29:17,1,D7:F2:3B:06:4D:C8,59,59,28552.889162397376,28819.214880691492,-15067.963901615252
68892,24837,-7683,-10246,24821,-15361,31455,16170,-20246,-4574,59,-1,42819,2020-11-02 15:28:48,2020-11-02 15:29:17,1,D7:F2:3B:06:4D:C8,59,59,-24204.27381945819,12513.91758044763,6200.045940350315
68893,-27911,-28162,-16389,26611,10751,12773,17959,5359,32292,59,-1,42844,2020-11-02 15:28:48,2020-11-02 15:29:17,1,D7:F2:3B:06:4D:C8,59,59,21035.49050441303,35329.143399434506,12250.76535980272
68894,-25608,9981,-12296,31214,-768,-12052,-17628,28914,-4316,59,-1,42870,2020-11-02 15:28:48,2020-11-02 15:29:17,1,D7:F2:3B:06:4D:C8,59,59,-17586.29345664051,-11616.326727673173,-21502.671387826886
68895,30455,-12291,14588,-31509,-3326,-1550,-29151,-9484,23333,59,-1,42896,2020-11-02 15:28:48,2020-11-02 15:29:17,1,D7:F2:3B:06:4D:C8,59,59,-28187.589950983504,-5901.012490889812,21494.7266634767
68896,-7689,-7425,-20481,-24345,21251,3066,-3555,21494,-19419,59,-1,42921,2020-11-02 15:28:48,2020-11-02 15:29:17,1,D7:F2:3B:06:4D:C8,59,59,-5722.336317565745,6684.357583989463,21361.10806484604
68897,20473,-2557,7952,25576,25599,32260,2330,28918,-2267,59,-1,42947,2020-11-02 15:28:48,2020-11-02 15:29:17,1,D7:F2:3B:06:4D:C8,59,59,-1817.949909132646,-2557.0,21887.738373982007
68898,-13311,12297,-11242,-3856,-19204,-17907,-8682,-7948,29222,59,-1,42972,2020-11-02 15:28:48,2020-11-02 15:29:17,1,D7:F2:3B:06:4D:C8,59,59,-820.4094375763561,-7152.905586557976,-20073.47413938413
68899,-16370,-5877,-15859,-14090,24577,-758,31252,10227,-21465,59,-1,42998,2020-11-02 15:28:48,2020-11-02 15:29:17,1,D7:F2:3B:06:4D:C8,59,59,5427.705077591203,17818.9436593942,14389.20339886909
68900,32014,7176,4096,23023,-3320,8450,-14063,5875,8233,59,1,43024,2020-11-02 15:28:48,2020-11-02 15:29:17,1,D7:F2:3B:06:4D:C8,59,59,4982.950725481522,9126.781362727175,-31385.354100669298
68901,-4344,23555,25866,7399,9734,-3073,-6387,-1037,5418,59,1,43049,2020-11-02 15:28:48,2020-11-02 15:29:17,1,D7:F2:3B:06:4D:C8,59,59,-4344.0,34492.309307765085,-5845.389603564698
68902,-24572,-27393,-8427,-6168,26874,-14329,-14583,-25357,-18902,59,1,43075,2020-11-02 15:28:48,2020-11-02 15:29:17,1,D7:F2:3B:06:4D:C8,59,59,-36662.77766526476,-9000.787771517262,22.701530096942406
68903,-11767,-29439,-2532,3061,10735,-31215,15110,6129,26924,59,1,43100,2020-11-02 15:28:48,2020-11-02 15:29:17,1,D7:F2:3B:06:4D:C8,59,59,29313.546016804474,11674.981170817215,-3992.3512598154325
68904,17675,-20737,21007,-8447,-25364,-4076,-23549,-25363,-24017,59,1,43126,2020-11-02 15:28:48,2020-11-02 15:29:17,1,D7:F2:3B:06:4D:C8,59,59,23881.128230073915,-24064.7268329813,5856.917270438131
68905,16146,-19716,-12286,30212,16622,9749,28416,-28950,-31948,59,1,43151,2020-11-02 15:28:48,2020-11-02 15:29:17,1,D7:F2:3B:06:4D:C8,59,59,4100.568198373906,26514.977823511315,-8972.238264178437
68906,24081,7929,-8956,-32764,-26388,-27627,25083,-3097,11323,59,1,43177,2020-11-02 15:28:48,2020-11-02 15:29:17,1,D7:F2:3B:06:4D:C8,59,59,23075.57105274715,13801.088760805998,-146.65471684205477
68907,-26603,12024,2305,-28922,-4119,32277,20723,11238,8005,59,1,43203,2020-11-02 15:28:48,2020-11-02 15:29:17,1,D7:F2:3B:06:4D:C8,59,59,2258.1673557907925,-19116.648174150407,22069.518634963308
68908,31512,-12554,22266,-18169,24043,-28654,-279,-4891,-9789,59,1,43228,2020-11-02 15:28:48,2020-11-02 15:29:17,1,D7:F2:3B:06:4D:C8,59,59,6462.179519238489,-33299.38882113506,22266.0
68909,-999,7413,-8191,-22264,-7442,25101,9955,-7194,-26932,59,1,43254,2020-11-02 15:28:48,2020-11-02 15:29:17,1,D7:F2:3B:06:4D:C8,59,59,-6897.8776267281155,-8685.801633349181,138.51076778512197
68910,7448,-7183,31994,-14835,-17420,-9209,10976,-2073,-559,59,1,43279,2020-11-02 15:28:48,2020-11-02 15:29:17,1,D7:F2:3B:06:4D:C8,59,59,7448.0,-30803.014150994688,11242.145890070142
68911,-14568,-25104,4594,-15860,-7,-26369,-16929,16360,-11308,59,1,43305,2020-11-02 15:28:48,2020-11-02 15:29:17,1,D7:F2:3B:06:4D:C8,59,59,25856.991346465944,-13203.063047271662,4542.840595767699
68912,1040,-11283,6382,-16122,30974,-26886,14816,-29465,-6955,59,1,43330,2020-11-02 15:28:48,2020-11-02 15:29:17,1,D7:F2:3B:06:4D:C8,59,59,-7464.358679936691,9574.806126013722,-4660.906579894508
68913,6163,-4115,-23816,10757,20991,26103,-6432,27110,1494,59,1,43356,2020-11-02 15:28:48,2020-11-02 15:29:17,1,D7:F2:3B:06:4D:C8,59,59,3089.463062983308,-22263.816962832258,10811.814011902185
68914,-28137,30705,-17924,11526,-24575,30707,-6686,-7708,-16428,59,-1,43382,2020-11-02 15:28:48,2020-11-02 15:29:17,1,D7:F2:3B:06:4D:C8,59,59,-4741.651798314202,-13983.112781480359,-42868.94989574557
68915,-30196,2548,27131,-20730,-14335,-23056,8167,-6686,24017,59,-1,43407,2020-11-02 15:28:48,2020-11-02 15:29:17,1,D7:F2:3B:06:4D:C8,59,59,3670.3225865742224,37070.61085299175,-16330.352846663583
68916,18,-5128,28934,-11517,-10752,-26130,32494,993,32714,59,-1,43433,2020-11-02 15:28:48,2020-11-02 15:29:17,1,D7:F2:3B:06:4D:C8,59,59,25216.08360216703,7440.4721748446,13124.845354665562
68917,6679,-16646,-24582,-20731,14080,-12054,23296,-11553,-3259,59,-1,43458,2020-11-02 15:28:48,2020-11-02 15:29:17,1,D7:F2:3B:06:4D:C8,59,59,-28845.00269914868,-7723.167226763808,-5855.902003410484
68918,-1265,-17671,10488,-25347,770,-3099,19475,-17439,-5838,59,-1,43484,2020-11-02 15:28:48,2020-11-02 15:29:17,1,D7:F2:3B:06:4D:C8,59,59,15133.856495236978,6069.545878833387,12569.391807335396
68919,-25598,8188,23551,-12297,8705,2279,-7912,11749,5932,59,-1,43511,2020-11-02 15:28:48,2020-11-02 15:29:17,1,D7:F2:3B:06:4D:C8,59,59,-11776.356522073685,26525.920707579906,20848.105589721967
68920,9466,-11779,-12545,-18445,-17920,6638,-1255,6120,6441,59,-1,43535,2020-11-02 15:28:48,2020-11-02 15:29:17,1,D7:F2:3B:06:4D:C8,59,59,6971.4956429105,-10943.297171896817,-14743.456769307362
68921,25593,4862,10241,29937,12545,-25353,-5352,-8215,-8409,59,-1,43561,2020-11-02 15:28:48,2020-11-02 15:29:17,1,D7:F2:3B:06:4D:C8,59,59,6906.451460199584,-1757.494834704301,27069.002828584114
68922,-4353,-5124,-15359,-1810,-16127,19199,30230,32234,-9177,59,-1,43586,2020-11-02 15:28:48,2020-11-02 15:29:17,1,D7:F2:3B:06:4D:C8,59,59,-14571.96728952145,-7254.670699331142,-4016.26547396746
68923,-14079,-517,18440,6893,25599,-2300,14099,12010,23336,59,-1,43612,2020-11-02 15:28:48,2020-11-02 15:29:17,1,D7:F2:3B:06:4D:C8,59,59,-11516.119960775384,11989.51242457803,16191.03773295337
68924,7179,2811,30216,-3606,-26114,15370,-18674,14825,4906,59,-1,43638,2020-11-02 15:28:48,2020-11-02 15:29:17,1,D7:F2:3B:06:4D:C8,59,59,-30548.597408889436,1481.2132555930953,6085.68990674425
68925,12051,-3587,30737,27117,-11010,-1015,21513,11240,-19412,59,1,43663,2020-11-02 15:28:48,2020-11-02 15:29:17,1,D7:F2:3B:06:4D:C8,59,59,19213.884085850863,3533.325849941998,-26855.141142314234
68926,24085,-28159,-4850,16113,-23037,-32766,8197,5608,-21202,59,1,43689,2020-11-02 15:28:48,2020-11-02 15:29:17,1,D7:F2:3B:06:4D:C8,59,59,-25415.091966958502,7622.947039818811,-26315.447644666034
68927,1036,9218,-1013,17138,26634,16890,23043,21737,16430,59,1,43714,2020-11-02 15:28:48,2020-11-02 15:29:17,1,D7:F2:3B:06:4D:C8,59,59,6973.499919727764,1083.6134082664578,6104.676064377374
68928,18690,-766,-22513,-29196,-3575,14075,28162,11755,301,59,1,43740,2020-11-02 15:28:48,2020-11-02 15:29:17,1,D7:F2:3B:06:4D:C8,59,59,6130.092123658049,-16537.20356328586,-23359.81365212298
68929,-9472,-24063,18197,-519,20481,-25851,-7168,3820,20781,59,1,43765,2020-11-02 15:28:48,2020-11-02 15:29:17,1,D7:F2:3B:06:4D:C8,59,59,9051.087204251871,-3624.5149695382206,30080.197367314955
68930,5896,32767,22029,-27392,-13578,29711,14334,25323,23344,59,1,43791,2020-11-02 15:28:48,2020-11-02 15:29:17,1,D7:F2:3B:06:4D:C8,59,59,-12755.981752204556,36737.2017748535,-9021.024403643158
68931,-32239,-14596,-13818,-19709,-6416,-9711,23802,-7959,-29131,59,1,43817,2020-11-02 15:28:48,2020-11-02 15:29:17,1,D7:F2:3B:06:4D:C8,59,59,-8854.373380854402,-33164.759506133305,-16279.811421904058
68932,26896,-12040,9735,10756,-12562,-2031,21493,29928,9276,59,1,43842,2020-11-02 15:28:48,2020-11-02 15:29:17,1,D7:F2:3B:06:4D:C8,59,59,1121.8911663019617,21265.401091895408,22575.445014700974
68933,-1261,31992,-15098,-18423,-1814,-23278,-2066,-20249,-23228,59,1,43868,2020-11-02 15:28:48,2020-11-02 15:29:17,1,D7:F2:3B:06:4D:C8,59,59,-26420.294035691226,-18354.123201216076,14768.954383510032
68934,-10987,8693,25602,9744,12268,-8176,13289,-11545,-10048,59,1,43893,2020-11-02 15:28:48,2020-11-02 15:29:17,1,D7:F2:3B:06:4D:C8,59,59,-18812.10633678834,-20484.005724136747,-8846.184865064772
68935,-2534,-27151,26369,20242,-1552,-14837,-5147,-27928,-24377,59,-1,43919,2020-11-02 15:28:48,2020-11-02 15:29:17,1,D7:F2:3B:06:4D:C8,59,59,6421.099290335094,34103.44004428942,-15318.191115442294
68936,-4328,-26895,-16390,16147,-21262,4358,-22812,-4120,31948,59,-1,43944,2020-11-02 15:28:48,2020-11-02 15:29:17,1,D7:F2:3B:06:4D:C8,59,59,22086.531681579192,11046.872131608938,20021.39963605143
68937,7967,8946,12286,-28401,-14603,4608,10212,-18200,2256,59,-1,43996,2020-11-02 15:28:48,2020-11-02 15:29:17,1,D7:F2:3B:06:4D:C8,59,59,-9886.369700976877,-5504.768091053438,-12899.88462736494
68938,24598,-15631,17131,1547,-776,1273,19940,-21529,10194,59,-1,43998,2020-11-02 15:28:48,2020-11-02 15:29:17,1,D7:F2:3B:06:4D:C8,59,59,-22683.164257558237,-11160.749537038793,22444.880374734028
68939,-27629,19181,-8200,16389,24312,-16904,-9757,16358,-13613,59,-1,44021,2020-11-02 15:28:48,2020-11-02 15:29:17,1,D7:F2:3B:06:4D:C8,59,59,6148.581388099982,5112.168577435665,33683.42443027119
68940,-3320,-7953,12015,7426,5365,29948,5857,13797,19927,59,-1,44047,2020-11-02 15:28:48,2020-11-02 15:29:17,1,D7:F2:3B:06:4D:C8,59,59,845.8544769071368,14432.363052751598,3102.299295275475
68941,30226,14061,-15631,-1793,19959,-32520,-25380,23268,13788,59,-1,44072,2020-11-02 15:28:48,2020-11-02 15:29:17,1,D7:F2:3B:06:4D:C8,59,59,12391.663295516573,-33417.0614278431,9241.08458452297
68942,789,22766,-8969,29434,-30978,-13075,-31271,26594,-12578,59,-1,44098,2020-11-02 15:28:48,2020-11-02 15:29:17,1,D7:F2:3B:06:4D:C8,59,59,19981.395786438145,7474.733353960866,-12009.513800021083
68943,-7929,15345,-16890,-24582,-16641,19948,-29997,32479,-541,59,-1,44123,2020-11-02 15:28:48,2020-11-02 15:29:17,1,D7:F2:3B:06:4D:C8,59,59,-11765.175493916275,20549.027234993613,-4788.349537454695
68944,-20475,15097,-18941,-7939,11773,-14095,19781,12510,30974,59,-1,44149,2020-11-02 15:28:48,2020-11-02 15:29:17,1,D7:F2:3B:06:4D:C8,59,59,-3965.7212202257906,-29859.941641716672,9927.912940629838
68945,-26870,-14852,-247,10750,-1025,26607,14640,-21793,18195,59,-1,44175,2020-11-02 15:28:48,2020-11-02 15:29:17,1,D7:F2:3B:06:4D:C8,59,59,-29111.167807574177,-2320.2610656898314,9476.08096558385
68946,18444,29949,-28161,-18689,22786,31212,-728,9186,-26854,59,-1,44200,2020-11-02 15:28:48,2020-11-02 15:29:17,1,D7:F2:3B:06:4D:C8,59,59,-13690.082538403296,-29967.876605426478,-30735.54407934953
68947,19205,17404,-31239,31733,4103,-6936,11556,21221,-22242,59,1,44226,2020-11-02 15:28:48,2020-11-02 15:29:17,1,D7:F2:3B:06:4D:C8,59,59,17781.911983792208,-18842.101606752727,-31247.162675056967
68948,1532,31997,-30466,-26385,-19450,-30227,1568,-27160,-10720,59,1,44251,2020-11-02 15:28:48,2020-11-02 15:29:17,1,D7:F2:3B:06:4D:C8,59,59,13925.885689399525,37532.2685733046,18754.485130419056
68949,-13318,-26625,-7934,1262,772,-11016,-19428,-30742,-27871,59,1,44277,2020-11-02 15:28:48,2020-11-02 15:29:17,1,D7:F2:3B:06:4D:C8,59,59,-23909.812973377193,-10929.347016350315,16064.816288221844
68950,10751,2047,-2306,-12821,6658,1282,22041,-8726,10530,59,1,44303,2020-11-02 15:28:48,2020-11-02 15:29:17,1,D7:F2:3B:06:4D:C8,59,59,3400.658709425431,2147.8045136159753,10436.201517472715
68951,10493,-9218,12549,12522,27646,28680,19989,8682,3107,59,1,44328,2020-11-02 15:28:48,2020-11-02 15:29:17,1,D7:F2:3B:06:4D:C8,59,59,-5879.174544867554,7354.835852519632,-16244.804407978361
68952,-3332,1535,-20721,2541,18680,4625,-17136,8168,-22236,59,1,44354,2020-11-02 15:28:48,2020-11-02 15:29:17,1,D7:F2:3B:06:4D:C8,59,59,-6987.419016926879,18681.225171782884,6708.657955435957
68953,-9211,5121,27,-18696,23538,11289,-24822,-11292,14377,59,1,44379,2020-11-02 15:28:48,2020-11-02 15:29:17,1,D7:F2:3B:06:4D:C8,59,59,6484.282942480716,-6075.737990873994,-5666.336875628212
68954,31249,17918,5396,6,22770,-29159,7167,-4127,24117,59,1,44405,2020-11-02 15:28:48,2020-11-02 15:29:17,1,D7:F2:3B:06:4D:C8,59,59,-16535.32141607609,-27009.414958569127,17992.948348252372
68955,19224,-9738,21765,10762,-31246,-17130,-16915,-18975,-4677,59,1,44431,2020-11-02 15:28:48,2020-11-02 15:29:17,1,D7:F2:3B:06:4D:C8,59,59,-19003.011074048813,23843.296389157036,2913.5600934920094
68956,-8676,-27917,-14851,31753,30189,2069,737,-22301,-23862,59,1,44456,2020-11-02 15:28:48,2020-11-02 15:29:17,1,D7:F2:3B:06:4D:C8,59,59,14143.50707040952,26334.164378390553,13478.021377085806
68957,-5612,-1553,-8710,-15098,3564,17168,-18727,26342,-18733,59,-1,44482,2020-11-02 15:28:48,2020-11-02 15:29:17,1,D7:F2:3B:06:4D:C8,59,59,3036.6462315755534,121.44381302758757,-10026.688589187124
68958,10774,-2317,6395,-14071,7913,-4851,4566,30185,20441,59,-1,44507,2020-11-02 15:28:48,2020-11-02 15:29:17,1,D7:F2:3B:06:4D:C8,59,59,3372.3348839216355,1859.7070991169965,12145.469811257986
68959,31767,7411,24566,-28662,31980,-10746,-4141,3820,-4131,59,-1,44534,2020-11-02 15:28:48,2020-11-02 15:29:17,1,D7:F2:3B:06:4D:C8,59,59,31767.0,7411.0,24566.0
68960,-8429,12530,-12045,-24056,5625,17151,-31533,4845,23008,59,-1,44558,2020-11-02 15:28:48,2020-11-02 15:29:17,1,D7:F2:3B:06:4D:C8,59,59,16940.70812933259,-3493.891494867115,8598.610137624566
68961,18703,-21265,19439,25352,15869,1020,-3373,-7188,31969,59,-1,44584,2020-11-02 15:28:48,2020-11-02 15:29:17,1,D7:F2:3B:06:4D:C8,59,59,-22165.003504007756,-36.8046660727432,26240.96835263286
68962,-31985,17392,-29194,-31480,12537,-11013,5076,-27412,-8734,59,-1,44610,2020-11-02 15:28:48,2020-11-02 15:29:17,1,D7:F2:3B:06:4D:C8,59,59,13993.361989032968,10396.016906294431,43288.79967991637
68963,4877,-29714,32756,-13048,25845,12029,-26925,-18964,17893,59,-1,44635,2020-11-02 15:28:48,2020-11-02 15:29:17,1,D7:F2:3B:06:4D:C8,59,59,-595.6131536591377,5506.616401366791,44147.30888490697
68964,10770,3311,25081,-15094,-16652,27644,2771,3821,-1817,59,-1,44661,2020-11-02 15:28:48,2020-11-02 15:29:17,1,D7:F2:3B:06:4D:C8,59,59,10770.0,3311.0,25081.0
68965,-28657,-9490,6899,30984,30714,-22278,2771,-2836,-23,59,-1,44686,2020-11-02 15:28:48,2020-11-02 15:29:17,1,D7:F2:3B:06:4D:C8,59,59,-28657.0,-9490.0,6899.0
68966,4110,20718,1522,-25337,19194,21495,-20270,24556,6124,59,-1,44712,2020-11-02 15:28:48,2020-11-02 15:29:17,1,D7:F2:3B:06:4D:C8,59,59,17438.523252302704,-10405.042689124419,6006.421681533558
68967,26672,2811,15878,26880,-4871,-14349,30929,22251,21998,59,-1,44737,2020-11-02 15:28:48,2020-11-02 15:29:17,1,D7:F2:3B:06:4D:C8,59,59,23626.98572908209,-19553.092088504385,-5554.306809694466
68968,-20242,3309,32252,-13831,9212,-10514,16078,26345,-23823,59,-1,44763,2020-11-02 15:28:48,2020-11-02 15:29:17,1,D7:F2:3B:06:4D:C8,59,59,9437.288834754045,36046.441823914276,-8512.999488111707
68969,-21737,29677,27895,-26628,26618,1013,-4150,-8984,-10508,59,-1,44789,2020-11-02 15:28:48,2020-11-02 15:29:17,1,D7:F2:3B:06:4D:C8,59,59,5944.300448505364,45668.95861744497,-3219.3219745774877
68970,23314,-24591,21751,32760,-5885,-7446,-31546,6887,-3080,59,-1,44814,2020-11-02 15:28:48,2020-11-02 15:29:17,1,D7:F2:3B:06:4D:C8,59,59,-2054.218653769348,-27833.09870092412,-29025.24212521098
68971,31249,-8972,14587,-30218,16643,-17432,31934,15077,17408,59,-1,44840,2020-11-02 15:28:48,2020-11-02 15:29:17,1,D7:F2:3B:06:4D:C8,59,59,-210.4184754694479,-11528.488396399636,-33716.865710787235
68972,32275,6908,12549,-27401,-29437,-2843,-15553,-11036,-9462,59,-1,44865,2020-11-02 15:28:48,2020-11-02 15:29:17,1,D7:F2:3B:06:4D:C8,59,59,21834.874051258194,-18207.181057453417,20943.02564355975
68973,-8687,28925,28922,30714,-26877,24546,16437,-30490,14101,59,-1,44891,2020-11-02 15:28:48,2020-11-02 15:29:17,1,D7:F2:3B:06:4D:C8,59,59,30191.30797409057,26151.51147785639,12376.794748122826
68974,-31483,10496,-2564,29944,-1022,4579,22574,-13591,-8165,59,-1,44942,2020-11-02 15:28:48,2020-11-02 15:29:17,1,D7:F2:3B:06:4D:C8,59,59,-3335.2034907598895,-13367.798914245237,-30300.128231800056
68975,30459,513,14590,-24328,6911,6634,2091,15085,-25314,59,1,44944,2020-11-02 15:28:48,2020-11-02 15:29:17,1,D7:F2:3B:06:4D:C8,59,59,-774.6953348004336,112.12740420161208,-33767.872668906246
68976,28151,-5375,-13572,31479,4354,13042,-4568,-18961,-8417,59,1,44968,2020-11-02 15:28:48,2020-11-02 15:29:17,1,D7:F2:3B:06:4D:C8,59,59,-18545.911521348044,18935.41138157881,17408.847510754567
68977,8441,1281,-18442,18418,-27900,15351,-29658,14065,-1504,59,1,44993,2020-11-02 15:28:48,2020-11-02 15:29:17,1,D7:F2:3B:06:4D:C8,59,59,-7152.536691780875,18047.852732915995,-6009.578737624213
68978,15865,-31487,6649,1258,-6652,-27395,10275,754,34,59,1,45019,2020-11-02 15:28:48,2020-11-02 15:29:17,1,D7:F2:3B:06:4D:C8,59,59,15865.0,-22607.43928285782,-22902.926866928978
68979,4350,-15870,-7164,-19739,-12800,-9977,-994,-30223,-26078,59,1,45044,2020-11-02 15:28:48,2020-11-02 15:29:17,1,D7:F2:3B:06:4D:C8,59,59,15694.262277918711,6108.1344919712865,-6203.476491443205
68980,30984,-26365,20243,-13847,-8196,24850,-11750,23791,11299,59,1,45070,2020-11-02 15:28:48,2020-11-02 15:29:17,1,D7:F2:3B:06:4D:C8,59,59,-42021.97558422342,-11070.939280966155,13284.893730703738
68981,-18665,517,527,-6161,-25091,26130,-4586,31468,-25052,59,1,45096,2020-11-02 15:28:48,2020-11-02 15:29:17,1,D7:F2:3B:06:4D:C8,59,59,3399.805834808219,-4727.318435790355,-17748.83161484836
68982,1817,-20476,31235,12783,13063,21252,4883,21483,-31194,59,1,45121,2020-11-02 15:28:48,2020-11-02 15:29:17,1,D7:F2:3B:06:4D:C8,59,59,20375.027119474802,-3306.369147104522,-31178.830685959692
68983,26380,-12286,-19962,-24598,-21747,-2310,-19442,-4116,12584,59,1,45147,2020-11-02 15:28:48,2020-11-02 15:29:17,1,D7:F2:3B:06:4D:C8,59,59,-19476.256585282743,20097.953535458073,21496.03063616162
68984,-19197,-16639,29707,-10005,14339,-23296,4363,14062,-15064,59,1,45172,2020-11-02 15:28:48,2020-11-02 15:29:17,1,D7:F2:3B:06:4D:C8,59,59,-29695.467454149453,-24902.297060402907,5093.308629466654
68985,27910,7936,-8178,-13585,-23561,-26869,25095,18669,1322,59,1,45198,2020-11-02 15:28:48,2020-11-02 15:29:17,1,D7:F2:3B:06:4D:C8,59,59,-27723.898520949526,-11376.446581801862,-3284.7821802216026
68986,-27888,-22272,28689,26615,-28178,-32239,12547,-19478,813,59,1,45224,2020-11-02 15:28:48,2020-11-02 15:29:17,1,D7:F2:3B:06:4D:C8,59,59,32151.66384235086,-16818.41153462403,27933.005470598648
68987,30995,-28161,-14070,-9726,12514,12306,30206,-12314,13874,59,1,45249,2020-11-02 15:28:48,2020-11-02 15:29:17,1,D7:F2:3B:06:4D:C8,59,59,33607.817806226274,-21817.363742134527,18606.82852199412
68988,24591,-30726,11772,21767,-29989,-25327,-29453,29922,-15042,59,1,45275,2020-11-02 15:28:48,2020-11-02 15:29:17,1,D7:F2:3B:06:4D:C8,59,59,-31517.792812059794,-20797.43559548347,16170.335491503849
68989,-4337,17656,5628,15880,-17447,23571,8666,-26910,26061,59,1,45300,2020-11-02 15:28:48,2020-11-02 15:29:17,1,D7:F2:3B:06:4D:C8,59,59,-7071.155766202314,-15536.366935035025,-8416.552001268345
68990,-27625,11509,31991,32011,-25380,12816,-9265,24039,-2087,59,-1,45326,2020-11-02 15:28:48,2020-11-02 15:29:17,1,D7:F2:3B:06:4D:C8,59,59,12304.962747840053,33137.83751322584,-25874.57059974737
68991,18200,-30991,32753,-18932,-26643,-12537,6606,7915,14814,59,-1,45351,2020-11-02 15:28:48,2020-11-02 15:29:17,1,D7:F2:3B:06:4D:C8,59,59,39129.42873691028,20965.962724440316,-19843.318869595343
68992,15642,-9999,-21774,-8434,5629,22526,14287,7660,-31265,59,-1,45403,2020-11-02 15:28:48,2020-11-02 15:29:17,1,D7:F2:3B:06:4D:C8,59,59,-20585.94283177446,14875.913351757466,-13178.975706704889
68993,-6634,-6414,-11789,-2802,19710,760,-27440,31979,-21792,59,-1,45405,2020-11-02 15:28:48,2020-11-02 15:29:17,1,D7:F2:3B:06:4D:C8,59,59,6420.86197066696,-12331.712361734946,-5552.591717484392
68994,-28651,26865,-19470,21519,19709,18933,29137,27114,31714,59,-1,45428,2020-11-02 15:28:48,2020-11-02 15:29:17,1,D7:F2:3B:06:4D:C8,59,59,1432.5165167988853,-43796.27075335574,-1234.297584804497
68995,21517,23790,25328,-17909,14081,23284,-4655,-6680,24036,59,-1,45454,2020-11-02 15:28:48,2020-11-02 15:29:17,1,D7:F2:3B:06:4D:C8,59,59,24336.237507409984,-8218.966048942284,31790.707983139757
68996,268,30701,9198,22791,-11006,21237,15058,19943,-27419,59,-1,45479,2020-11-02 15:28:48,2020-11-02 15:29:17,1,D7:F2:3B:06:4D:C8,59,59,13950.121113156303,16189.793573614683,-23885.374897037214
68997,-30949,27631,25077,5635,-5631,12531,-23343,-20763,-4122,59,-1,45505,2020-11-02 15:28:48,2020-11-02 15:29:17,1,D7:F2:3B:06:4D:C8,59,59,30001.44516410682,-37039.16306291938,-8842.079996446557
68998,-15084,8183,14081,29955,29951,7663,-27954,-21277,-26390,59,-1,45530,2020-11-02 15:28:48,2020-11-02 15:29:17,1,D7:F2:3B:06:4D:C8,59,59,2074.216435208442,22084.709543880792,852.2538015942027
68999,13074,3322,22018,-18427,-22784,18412,1736,-27167,12018,59,-1,45557,2020-11-02 15:28:48,2020-11-02 15:29:17,1,D7:F2:3B:06:4D:C8,59,59,-6398.774910842096,5998.819027385904,-24286.36106783086
69000,7443,-19207,6649,-30459,18688,-279,17477,-32032,-13566,59,-1,45582,2020-11-02 15:28:48,2020-11-02 15:29:17,1,D7:F2:3B:06:4D:C8,59,59,19266.669193104233,-1339.30184943325,-9773.332479742663
69001,19472,-8964,30719,-7936,9985,16870,16436,3298,-32748,59,-1,45607,2020-11-02 15:28:48,2020-11-02 15:29:17,1,D7:F2:3B:06:4D:C8,59,59,28731.707690878535,11806.877042811426,-20934.55680595708
69002,-1007,3325,-30986,254,24066,739,19244,27109,-13284,59,1,45633,2020-11-02 15:28:48,2020-11-02 15:29:17,1,D7:F2:3B:06:4D:C8,59,59,10517.9302160462,20384.409101414283,-21119.91665600413
69003,13062,-2820,-6916,-16394,17924,2530,30503,-25623,1313,59,1,45658,2020-11-02 15:28:48,2020-11-02 15:29:17,1,D7:F2:3B:06:4D:C8,59,59,-7976.073998688739,-7431.847646576563,-10370.592274576984
69004,-31748,-4867,32507,-29197,14851,27368,-32732,-29715,-23774,59,1,45684,2020-11-02 15:28:48,2020-11-02 15:29:17,1,D7:F2:3B:06:4D:C8,59,59,27667.837051473765,17766.940213463604,31735.70340081192
69005,-6407,-22785,-26886,5617,-14847,-20494,3106,14320,9507,59,1,45710,2020-11-02 15:28:48,2020-11-02 15:29:17,1,D7:F2:3B:06:4D:C8,59,59,7404.528197737514,-30638.966714778442,17014.392461078613
69006,-30469,-6402,-6149,-4117,2818,-15111,18207,-26639,17955,59,1,45735,2020-11-02 15:28:48,2020-11-02 15:29:17,1,D7:F2:3B:06:4D:C8,59,59,-24617.437059502987,-3769.3881411829684,19670.51782903841
69007,30206,-29186,17149,-13594,17153,2303,-16869,5618,23843,59,1,45761,2020-11-02 15:28:48,2020-11-02 15:29:17,1,D7:F2:3B:06:4D:C8,59,59,1249.138945501023,-40991.52935625112,19402.2525993874
69008,6400,-18177,14603,-13085,-9214,-11774,13079,5874,-4829,59,1,45786,2020-11-02 15:28:48,2020-11-02 15:29:17,1,D7:F2:3B:06:4D:C8,59,59,-15563.762211405377,-5714.169276018022,-17599.10546908114
69009,-30208,-4095,26902,16359,26880,-12537,32530,-27663,-7900,59,1,45812,2020-11-02 15:28:48,2020-11-02 15:29:17,1,D7:F2:3B:06:4D:C8,59,59,36124.41376413187,-10664.884779526388,15306.758501956787
69010,30210,23300,29977,18159,-7172,31757,27150,21744,25382,59,1,45838,2020-11-02 15:28:48,2020-11-02 15:29:17,1,D7:F2:3B:06:4D:C8,59,59,28626.234985871706,21736.05551918903,32591.980455326528
69011,520,21764,6161,20471,-22278,25104,4619,-29970,-23000,59,1,45863,2020-11-02 15:28:48,2020-11-02 15:29:17,1,D7:F2:3B:06:4D:C8,59,59,-20429.147138934008,-9643.130089625902,1249.002101814105
69012,-31216,8193,-15608,17143,20731,31760,-31225,-8212,-18901,59,1,45889,2020-11-02 15:28:48,2020-11-02 15:29:17,1,D7:F2:3B:06:4D:C8,59,59,21993.970546601868,-14330.558173274094,-24414.625351162296
69013,-17645,-29443,12041,4341,24313,-13041,10755,31723,15663,59,1,45914,2020-11-02 15:28:48,2020-11-02 15:29:17,1,D7:F2:3B:06:4D:C8,59,59,18470.69508164868,22215.517693296977,-22102.6277130021
69014,14867,-30725,14854,-24843,3572,9999,13566,-9239,19507,59,1,45940,2020-11-02 15:28:48,2020-11-02 15:29:17,1,D7:F2:3B:06:4D:C8,59,59,-36273.93592991763,5898.600823747074,-5924.754043360859
69015,32023,20476,26892,13818,11501,10511,12280,1512,-11976,59,1,45965,2020-11-02 15:28:48,2020-11-02 15:29:17,1,D7:F2:3B:06:4D:C8,59,59,-43309.30621984384,-15396.468537730063,7427.753383256904
69016,-20453,-32004,-15349,-16124,-1565,-15347,25072,-4123,-32447,59,1,45991,2020-11-02 15:28:48,2020-11-02 15:29:17,1,D7:F2:3B:06:4D:C8,59,59,-14722.662137794921,-16973.95499542888,34253.48299647051
69017,-22501,32503,-29187,-3061,32737,-7672,-19227,31460,-5183,59,1,46017,2020-11-02 15:28:48,2020-11-02 15:29:17,1,D7:F2:3B:06:4D:C8,59,59,-29692.29789088176,-36296.59579224762,-14681.469914600877
69018,-27880,12277,-16905,30220,-16408,5893,-10789,-15644,23758,59,1,46042,2020-11-02 15:28:48,2020-11-02 15:29:17,1,D7:F2:3B:06:4D:C8,59,59,-24898.042544492026,-17212.93496608272,-17251.101451967414
69019,-28395,23286,-1548,25102,20978,-21504,7895,-28699,-25387,59,1,46068,2020-11-02 15:28:48,2020-11-02 15:29:17,1,D7:F2:3B:06:4D:C8,59,59,-17000.155587384692,-1557.9076690551117,32549.619947080984
69020,1812,-268,23798,-15345,-18696,-21763,-6955,-14363,25561,59,1,46093,2020-11-02 15:28:48,2020-11-02 15:29:17,1,D7:F2:3B:06:4D:C8,59,59,23314.85568742234,-3420.4946627433,-3797.0636729998077
69021,29978,-8460,12026,19729,17146,-30470,-11563,-29211,13788,59,1,46119,2020-11-02 15:28:48,2020-11-02 15:29:17,1,D7:F2:3B:06:4D:C8,59,59,-17756.075247549757,4060.4428353843305,-27984.126854056514
