id,accelerationx,accelerationy,accelerationz,angularvelocityx,angularvelocityy,angularvelocityz,pitch,roll,yaw,mdlcircle_id,hallsensor,timestamp,starttime,endtime,train_mode,blemac,training_id,training_handle_id,accelerationWorldx,accelerationWorldy,accelerationWorldz
74268,13583,-31758,-10230,-13559,22525,-24561,26837,-20757,21235,64,1,466,2020-11-02 15:33:39,2020-11-02 15:34:08,3,D7:F2:3B:06:4D:C8,64,64,15767.637445871065,-15395.524471317507,-28497.031224824597
74269,1813,4334,-31725,-15091,32003,3853,27608,-21011,-7183,64,1,494,2020-11-02 15:33:39,2020-11-02 15:34:08,3,D7:F2:3B:06:4D:C8,64,64,-24887.94988125545,-10919.74410613973,-17026.31167823917
74270,-17898,-34,2837,-17901,8185,-13558,9691,31471,-6159,64,1,518,2020-11-02 15:33:39,2020-11-02 15:34:08,3,D7:F2:3B:06:4D:C8,64,64,-5546.7233433926995,4186.144066677497,-16736.134171453195
74271,27423,-20010,-20211,15897,15095,21509,-15139,-18704,-31245,64,1,543,2020-11-02 15:33:39,2020-11-02 15:34:08,3,D7:F2:3B:06:4D:C8,64,64,871.8102537517188,-32484.80957726163,-22469.593757131086
74272,-1255,11220,15882,-31974,-6661,4093,6881,-21264,-22284,64,1,569,2020-11-02 15:33:39,2020-11-02 15:34:08,3,D7:F2:3B:06:4D:C8,64,64,257.39468223006713,7412.555018051897,-18019.132195583486
74273,-740,-22828,-8949,27,-20477,22264,30181,-8977,16628,64,1,594,2020-11-02 15:33:39,2020-11-02 15:34:08,3,D7:F2:3B:06:4D:C8,64,64,20634.080376213475,-8904.69940378956,9833.15008306656
74274,-7400,-805,-25594,10779,8973,-32265,12523,-30737,-12815,64,1,620,2020-11-02 15:33:39,2020-11-02 15:34:08,3,D7:F2:3B:06:4D:C8,64,64,18381.663402413284,-16564.242972986936,9909.65015993164
74275,3353,-30234,5888,27416,31492,3321,-30992,-25617,-27409,64,1,646,2020-11-02 15:33:39,2020-11-02 15:34:08,3,D7:F2:3B:06:4D:C8,64,64,25711.688661798322,-8010.911949847344,15321.235749460437
74276,21267,-2073,17408,-14830,25603,-9,-21516,22767,2030,64,1,671,2020-11-02 15:33:39,2020-11-02 15:34:08,3,D7:F2:3B:06:4D:C8,64,64,-23444.919423638225,4508.871545758891,13770.508799712403
74277,12553,15086,-1279,9488,-3580,26614,-29448,27375,748,64,1,697,2020-11-02 15:33:39,2020-11-02 15:34:08,3,D7:F2:3B:06:4D:C8,64,64,-18878.77330778787,5505.791877192385,281.4608288884658
74278,27409,-14349,14077,16910,14338,-12043,10236,-30737,-3095,64,-1,722,2020-11-02 15:33:39,2020-11-02 15:34:08,3,D7:F2:3B:06:4D:C8,64,64,3490.0093092005272,-19598.184840042697,-27550.680517860434
74279,-19191,-23825,5626,22538,-10499,23795,30719,9967,-21017,64,-1,773,2020-11-02 15:33:39,2020-11-02 15:34:08,3,D7:F2:3B:06:4D:C8,64,64,-10288.8397180397,-89.51334968113497,29354.876027956885
74280,28683,18167,-27652,-2297,-24065,-10514,-8446,-10002,-28444,64,-1,775,2020-11-02 15:33:39,2020-11-02 15:34:08,3,D7:F2:3B:06:4D:C8,64,64,-16574.57436396897,39771.462749338665,7803.955242774601
74281,-29190,-18959,-3075,14345,-30721,-10005,-11514,29935,-24096,64,-1,799,2020-11-02 15:33:39,2020-11-02 15:34:08,3,D7:F2:3B:06:4D:C8,64,64,13164.98098744132,-23035.379322897235,-22737.85348379541
74282,-26877,30450,-28936,9482,8447,-10773,-17142,-32016,-7460,64,-1,825,2020-11-02 15:33:39,2020-11-02 15:34:08,3,D7:F2:3B:06:4D:C8,64,64,-45028.9904013748,-2022.0395243045095,21334.6925123154
74283,-258,9719,23538,-23291,-17922,-32275,-6131,-7183,-20519,64,-1,850,2020-11-02 15:33:39,2020-11-02 15:34:08,3,D7:F2:3B:06:4D:C8,64,64,7455.681387652096,-24248.26088688221,2235.537520936845
74284,-24319,29679,32240,26875,28920,-8465,-26609,-6670,-22058,64,-1,876,2020-11-02 15:33:39,2020-11-02 15:34:08,3,D7:F2:3B:06:4D:C8,64,64,7983.2290573104765,45379.53062828289,-19713.97108081597
74285,-22781,-9735,-525,21999,23027,10226,-25585,755,21203,64,-1,901,2020-11-02 15:33:39,2020-11-02 15:34:08,3,D7:F2:3B:06:4D:C8,64,64,21598.97132929129,-9907.740716116794,-7024.3093908692845
74286,27381,23281,-25354,18916,-26641,-26378,-1779,13042,-6961,64,-1,927,2020-11-02 15:33:39,2020-11-02 15:34:08,3,D7:F2:3B:06:4D:C8,64,64,977.4964245073661,41566.48024097931,-14346.485950097742
74287,15611,-14350,-27391,10715,-28692,-16386,20490,16624,27085,64,-1,953,2020-11-02 15:33:39,2020-11-02 15:34:08,3,D7:F2:3B:06:4D:C8,64,64,3009.6854643727766,-24163.125735989488,-24636.92046649308
74288,24314,-18973,-12014,-31018,-6679,-15606,12036,-1812,15565,64,-1,1004,2020-11-02 15:33:39,2020-11-02 15:34:08,3,D7:F2:3B:06:4D:C8,64,64,-27231.0382860736,14276.835255847556,-12252.511984886289
74289,30995,32741,23325,11994,-17691,-24043,-16647,27113,28882,64,-1,1006,2020-11-02 15:33:39,2020-11-02 15:34:08,3,D7:F2:3B:06:4D:C8,64,64,10000.836472236442,-7070.896501659302,49261.591768013415
74290,-23005,-19,-750,6120,-30740,-3314,-14611,-6425,2779,64,-1,1029,2020-11-02 15:33:39,2020-11-02 15:34:08,3,D7:F2:3B:06:4D:C8,64,64,-12706.823963400517,-674.0662802248655,-19180.071569548803
74291,-27873,13547,-29432,-20244,-16901,8964,18919,9448,-7970,64,-1,1055,2020-11-02 15:33:39,2020-11-02 15:34:08,3,D7:F2:3B:06:4D:C8,64,64,-1810.7105100623776,-14314.808273299466,40230.28154944266
74292,9995,30701,-11772,-24084,-18949,15105,9443,12264,15840,64,-1,1081,2020-11-02 15:33:39,2020-11-02 15:34:08,3,D7:F2:3B:06:4D:C8,64,64,-29728.48238050837,1293.810162970125,-17192.28898704296
74293,-14074,-23313,13577,32749,29687,-27896,18910,-8216,-32030,64,-1,1106,2020-11-02 15:33:39,2020-11-02 15:34:08,3,D7:F2:3B:06:4D:C8,64,64,-18457.827207095277,12211.885598142457,-20882.692329555935
74294,9483,8435,30998,4595,-19467,11022,-39,-10006,-11292,64,-1,1132,2020-11-02 15:33:39,2020-11-02 15:34:08,3,D7:F2:3B:06:4D:C8,64,64,-4227.05328700491,22194.876020347947,24727.960226233878
74295,10,-2320,-12774,-514,10996,11025,-11817,-28179,-27674,64,-1,1157,2020-11-02 15:33:39,2020-11-02 15:34:08,3,D7:F2:3B:06:4D:C8,64,64,4390.941864241379,11209.210456596451,-4861.152793790914
74296,-12531,31717,11021,-3317,-7949,32529,-2345,-22800,8936,64,-1,1183,2020-11-02 15:33:39,2020-11-02 15:34:08,3,D7:F2:3B:06:4D:C8,64,64,-20826.486434373553,26266.991267372017,-12679.082126031706
74297,28175,-23076,12035,32272,-13580,-28402,-28711,21747,-31767,64,-1,1208,2020-11-02 15:33:39,2020-11-02 15:34:08,3,D7:F2:3B:06:4D:C8,64,64,8682.188632299982,-34410.22914162404,14550.922890802773
74298,13830,-23844,-32506,-14575,-5136,-12787,16603,-21259,-31509,64,-1,1234,2020-11-02 15:33:39,2020-11-02 15:34:08,3,D7:F2:3B:06:4D:C8,64,64,-41415.92774767055,-826.7268600758089,10024.10711727295
74299,-23796,-2083,-29934,-16874,26859,-28661,18397,-13833,27118,64,-1,1259,2020-11-02 15:33:39,2020-11-02 15:34:08,3,D7:F2:3B:06:4D:C8,64,64,15723.508330187775,8587.47713346007,-33847.59050911624
74300,16380,-13354,2072,-13282,-3859,10501,31968,-21000,-18703,64,-1,1285,2020-11-02 15:33:39,2020-11-02 15:34:08,3,D7:F2:3B:06:4D:C8,64,64,17670.755653784818,4338.245918638841,-10947.644357287334
74301,-25352,-18231,-17901,-8666,12529,3588,8421,-12040,28404,64,-1,1311,2020-11-02 15:33:39,2020-11-02 15:34:08,3,D7:F2:3B:06:4D:C8,64,64,-17817.414548910474,-28604.554461362437,-12643.506984188516
74302,-13311,24526,4863,31270,-16656,20746,9962,-3080,16631,64,-1,1336,2020-11-02 15:33:39,2020-11-02 15:34:08,3,D7:F2:3B:06:4D:C8,64,64,-2789.270992056012,-15915.305457464081,23265.407486835233
74303,-24547,25567,-23823,-32482,2552,17413,29678,-7688,32761,64,1,1362,2020-11-02 15:33:39,2020-11-02 15:34:08,3,D7:F2:3B:06:4D:C8,64,64,-11248.741579160805,-16940.469284069382,-37553.27336359323
74304,22561,-26902,-22032,4117,12536,8950,-3343,29943,-4871,64,1,1387,2020-11-02 15:33:39,2020-11-02 15:34:08,3,D7:F2:3B:06:4D:C8,64,64,27526.72218561411,-26902.0,15384.645290549268
74305,2325,-13078,3068,-8437,-18440,12777,-3084,-3084,760,64,1,1413,2020-11-02 15:33:39,2020-11-02 15:34:08,3,D7:F2:3B:06:4D:C8,64,64,2325.0,-13078.0,3068.0
74306,28169,-25370,25604,-23031,5878,3040,29176,-15631,7924,64,1,1439,2020-11-02 15:33:39,2020-11-02 15:34:08,3,D7:F2:3B:06:4D:C8,64,64,-36458.46860783174,-24658.336372153957,12467.589627889458
74307,31740,-19999,2563,-11507,-18181,27354,20222,-17937,-26899,64,1,1464,2020-11-02 15:33:39,2020-11-02 15:34:08,3,D7:F2:3B:06:4D:C8,64,64,5334.545935316144,-35913.09742000069,9785.122552402789
74308,-25094,18404,-32006,-10994,26110,5854,13061,-11793,29158,64,1,1490,2020-11-02 15:33:39,2020-11-02 15:34:08,3,D7:F2:3B:06:4D:C8,64,64,15773.692091832818,22274.49106383553,-35324.747325906836
74309,-2051,19943,-20745,-7924,11517,-16416,4107,7153,26336,64,1,1515,2020-11-02 15:33:39,2020-11-02 15:34:08,3,D7:F2:3B:06:4D:C8,64,64,27227.463220541606,1014.026734224075,-9482.714345393564
74310,-30216,20719,-9486,-12282,-15618,20710,5903,22003,-4645,64,1,1541,2020-11-02 15:33:39,2020-11-02 15:34:08,3,D7:F2:3B:06:4D:C8,64,64,31650.67775421682,19176.717237169694,-7921.863840306976
74311,20981,502,20211,-17412,-13578,-11537,-7920,-22028,-26664,64,1,1566,2020-11-02 15:33:39,2020-11-02 15:34:08,3,D7:F2:3B:06:4D:C8,64,64,1468.991226909031,-28134.502457640632,-7431.737497804768
74312,-29198,22266,1272,-2319,-6415,8955,-21744,26100,-2603,64,1,1592,2020-11-02 15:33:39,2020-11-02 15:34:08,3,D7:F2:3B:06:4D:C8,64,64,22416.113691472725,-21863.668279053367,-19220.140487376375
74313,17399,-28679,-30213,14569,3821,520,-27890,5618,19668,64,1,1618,2020-11-02 15:33:39,2020-11-02 15:34:08,3,D7:F2:3B:06:4D:C8,64,64,-23097.040924315985,-38739.34875646425,-1955.804045783767
74314,-17667,-17162,25092,-26141,-20756,13841,15882,30702,-22060,64,1,1643,2020-11-02 15:33:39,2020-11-02 15:34:08,3,D7:F2:3B:06:4D:C8,64,64,-21978.077508633396,12699.725091960418,-24329.954554275966
74315,11279,-30992,20475,-16935,-5638,17675,17923,-3093,7127,64,1,1669,2020-11-02 15:33:39,2020-11-02 15:34:08,3,D7:F2:3B:06:4D:C8,64,64,-17292.441356055817,24507.25730427232,-24643.687657685525
74316,26121,-23839,22536,8653,-8971,4,-16646,-534,-6184,64,1,1694,2020-11-02 15:33:39,2020-11-02 15:34:08,3,D7:F2:3B:06:4D:C8,64,64,39704.431833145834,-5548.146058099384,12298.456249671026
74317,-16900,3552,-3804,14547,3571,30731,-32016,10730,13020,64,1,1720,2020-11-02 15:33:39,2020-11-02 15:34:08,3,D7:F2:3B:06:4D:C8,64,64,-1248.0599640348241,-8459.654142688963,15478.169081395217
74318,22021,26596,10538,-27163,20215,-13292,26599,-30485,-800,64,-1,1746,2020-11-02 15:33:39,2020-11-02 15:34:08,3,D7:F2:3B:06:4D:C8,64,64,-19659.78821758287,-9409.121044933676,-28779.893491838633
74319,-21228,-6171,-23531,-32011,9979,28438,-21022,-29202,8932,64,-1,1771,2020-11-02 15:33:39,2020-11-02 15:34:08,3,D7:F2:3B:06:4D:C8,64,64,6920.854204551111,15939.68172362736,27211.128415205552
74320,-3298,32224,-6660,9203,7164,27666,8928,-29711,-23579,64,-1,1797,2020-11-02 15:33:39,2020-11-02 15:34:08,3,D7:F2:3B:06:4D:C8,64,64,-31546.66146975226,1315.23329898272,9833.457758189385
74321,-14074,24798,2317,29167,-25864,30989,-7460,-23821,4327,64,-1,1822,2020-11-02 15:33:39,2020-11-02 15:34:08,3,D7:F2:3B:06:4D:C8,64,64,-5645.237840013101,15348.104852718026,23472.403714993863
74322,-19442,23777,29214,-16388,-2826,-20208,-8486,14326,25320,64,-1,1848,2020-11-02 15:33:39,2020-11-02 15:34:08,3,D7:F2:3B:06:4D:C8,64,64,25548.412282308625,-27682.36166137587,19436.05854338706
74323,-26361,24029,29454,12555,23035,19980,-15397,24312,2281,64,-1,1874,2020-11-02 15:33:39,2020-11-02 15:34:08,3,D7:F2:3B:06:4D:C8,64,64,43042.73272912837,16782.854074332346,2343.554208566029
74324,19985,20438,-1799,15369,-19206,-15351,13277,8186,-5655,64,-1,1899,2020-11-02 15:33:39,2020-11-02 15:34:08,3,D7:F2:3B:06:4D:C8,64,64,27065.989872786096,-6869.382974491095,-6371.203948706425
74325,13836,27869,26111,15620,-25605,-17400,-6179,29179,-17942,64,-1,1925,2020-11-02 15:33:39,2020-11-02 15:34:08,3,D7:F2:3B:06:4D:C8,64,64,-7529.578353915971,-38476.966376366225,10617.38603820276
74326,11271,-1559,-26609,30213,-10758,7686,27102,30716,-31509,64,-1,1950,2020-11-02 15:33:39,2020-11-02 15:34:08,3,D7:F2:3B:06:4D:C8,64,64,14188.364931200422,-19435.65242371629,16076.396313962061
74327,27143,-26909,20762,-26092,26864,-3323,27104,9981,22765,64,-1,1976,2020-11-02 15:33:39,2020-11-02 15:34:08,3,D7:F2:3B:06:4D:C8,64,64,-24877.80348353718,-30092.019763375014,-19169.314395542497
74328,31505,17380,29945,-29926,-9232,22018,2276,9213,-1297,64,-1,2001,2020-11-02 15:33:39,2020-11-02 15:34:08,3,D7:F2:3B:06:4D:C8,64,64,42220.0727864482,17380.0,-10331.190827151333
74329,-1515,-13073,32252,23320,-7437,26363,-30745,1532,-18959,64,-1,2027,2020-11-02 15:33:39,2020-11-02 15:34:08,3,D7:F2:3B:06:4D:C8,64,64,-3387.9292572195072,34502.722970330695,-3387.344237111236
74330,-20206,-26127,-31751,-15852,-26383,-29454,-22550,-21511,-25358,64,1,2052,2020-11-02 15:33:39,2020-11-02 15:34:08,3,D7:F2:3B:06:4D:C8,64,64,-26019.870373886253,-2589.988951453839,-37620.29862929723
74331,20484,-23316,-770,-28400,23792,-12822,19949,-2571,-21262,64,1,2078,2020-11-02 15:33:39,2020-11-02 15:34:08,3,D7:F2:3B:06:4D:C8,64,64,-17006.245982720833,-25849.94241367487,-2528.059885541521
74332,11009,-19738,-26363,-16875,31481,14308,5361,6642,-5904,64,1,2104,2020-11-02 15:33:39,2020-11-02 15:34:08,3,D7:F2:3B:06:4D:C8,64,64,-25381.03859161473,2997.2249267588486,-23507.7437613519
74333,-25855,-15392,-20227,-25574,-26112,29408,-7945,-20241,2028,64,1,2129,2020-11-02 15:33:39,2020-11-02 15:34:08,3,D7:F2:3B:06:4D:C8,64,64,25310.738237409765,-25336.76670163173,-5651.637018104462
74334,-20490,5603,7658,-11754,-25346,-542,-14849,-17426,-4379,64,1,2155,2020-11-02 15:33:39,2020-11-02 15:34:08,3,D7:F2:3B:06:4D:C8,64,64,21453.652199513213,4631.728969457432,5307.218391569226
74335,-22280,-5396,19165,-16380,9465,-24597,7941,28142,-4640,64,1,2180,2020-11-02 15:33:39,2020-11-02 15:34:08,3,D7:F2:3B:06:4D:C8,64,64,10162.890820323213,-19042.26266630782,-20662.050327146375
74336,8442,21233,-24069,8950,-32264,-27919,11015,750,-3364,64,1,2206,2020-11-02 15:33:39,2020-11-02 15:34:08,3,D7:F2:3B:06:4D:C8,64,64,8442.0,31725.60399383947,4862.417220485811
74337,-1284,23286,24582,2041,11514,-27661,14088,-26387,-18727,64,1,2232,2020-11-02 15:33:39,2020-11-02 15:34:08,3,D7:F2:3B:06:4D:C8,64,64,-13552.445219649693,30434.799765556356,-6181.857956867403
74338,12797,13049,28671,-6151,-23557,29942,7945,-24851,10455,64,1,2257,2020-11-02 15:33:39,2020-11-02 15:34:08,3,D7:F2:3B:06:4D:C8,64,64,20673.20393090935,593.170621783609,-26987.638630389414
74339,4096,-22790,-7434,-3340,-3845,8186,14089,24813,15829,64,1,2283,2020-11-02 15:33:39,2020-11-02 15:34:08,3,D7:F2:3B:06:4D:C8,64,64,-19208.37161588705,2937.471345568143,14623.111637402995
74340,-27392,-9225,-19209,19688,-30725,10492,25863,1261,724,64,1,2308,2020-11-02 15:33:39,2020-11-02 15:34:08,3,D7:F2:3B:06:4D:C8,64,64,-27392.0,-8507.556729903172,19537.343332384757
74341,-31752,-27667,-10234,-16935,-774,-2047,-24062,20972,-28717,64,1,2334,2020-11-02 15:33:39,2020-11-02 15:34:08,3,D7:F2:3B:06:4D:C8,64,64,-16422.200614876056,35541.67068817609,18587.310743031347
74342,-4871,-5661,-30455,4053,757,-31986,13818,20459,10710,64,1,2360,2020-11-02 15:33:39,2020-11-02 15:34:08,3,D7:F2:3B:06:4D:C8,64,64,-22105.577746504965,21186.765215035288,-6763.504950555997
74343,19459,13521,11797,-10035,4073,1818,4077,2283,23773,64,1,2385,2020-11-02 15:33:39,2020-11-02 15:34:08,3,D7:F2:3B:06:4D:C8,64,64,-2486.524679326527,-23564.53515389387,11797.0
74344,-13034,-24115,26651,-23082,-31771,-8411,7135,28654,20966,64,1,2411,2020-11-02 15:33:39,2020-11-02 15:34:08,3,D7:F2:3B:06:4D:C8,64,64,3069.8321535887826,35376.24649088961,-14170.091628659748
74345,12348,31206,24873,-28950,23285,-12521,-7208,24051,6121,64,1,2436,2020-11-02 15:33:39,2020-11-02 15:34:08,3,D7:F2:3B:06:4D:C8,64,64,-30918.434118029207,21790.794205689028,17724.711240931327
74346,-13802,26855,22573,-27388,23047,-12804,-23592,-3085,22504,64,1,2462,2020-11-02 15:33:39,2020-11-02 15:34:08,3,D7:F2:3B:06:4D:C8,64,64,18551.836350755788,32342.534897470818,5569.233557740101
74347,-28682,-18733,-23787,32019,765,25606,-28709,-4109,-21529,64,1,2488,2020-11-02 15:33:39,2020-11-02 15:34:08,3,D7:F2:3B:06:4D:C8,64,64,30864.01286722951,-13273.391769806136,-24711.000842878337
74348,8447,-28199,-12789,5138,20718,-16621,-29731,32758,-6423,64,1,2513,2020-11-02 15:33:39,2020-11-02 15:34:08,3,D7:F2:3B:06:4D:C8,64,64,20772.83616068322,-24458.61544003654,-599.4494122257629
74349,6452,19944,1555,18196,13549,-8694,29919,9721,15085,64,1,2539,2020-11-02 15:33:39,2020-11-02 15:34:08,3,D7:F2:3B:06:4D:C8,64,64,-1408.2297332313326,-14100.758880834015,-15524.012142581698
74350,-2055,5846,31015,10779,239,-18696,27618,9976,-20497,64,1,2564,2020-11-02 15:33:39,2020-11-02 15:34:08,3,D7:F2:3B:06:4D:C8,64,64,24446.21815755975,-16364.950579536868,-11614.636297461564
74351,-27921,16325,-21736,-1760,-9241,-7169,6118,-7434,-15374,64,1,2590,2020-11-02 15:33:39,2020-11-02 15:34:08,3,D7:F2:3B:06:4D:C8,64,64,31627.443566393216,3960.39195344763,-22417.887300762308
74352,27139,-18482,24057,-25573,17902,-8441,26345,24054,4854,64,1,2615,2020-11-02 15:33:39,2020-11-02 15:34:08,3,D7:F2:3B:06:4D:C8,64,64,-16424.304369533616,30287.039030424105,21674.556206448287
74353,2067,19683,15875,-25837,-1044,-2047,14827,17909,30969,64,1,2641,2020-11-02 15:33:39,2020-11-02 15:34:08,3,D7:F2:3B:06:4D:C8,64,64,-21825.194618433547,-5983.899168583152,-11470.066852801217
74354,-15857,9700,-30451,-19948,-23566,20216,22509,18163,9979,64,-1,2666,2020-11-02 15:33:39,2020-11-02 15:34:08,3,D7:F2:3B:06:4D:C8,64,64,15349.359433793756,14085.371586751662,-28961.997897854624
74355,2308,23012,-28933,1300,-5133,-32524,20720,-10768,27131,64,-1,2692,2020-11-02 15:33:39,2020-11-02 15:34:08,3,D7:F2:3B:06:4D:C8,64,64,2574.3902188836,31587.52938312375,19172.845367112575
74356,14094,-3102,2298,13330,-20748,23021,-29709,1006,-23302,64,-1,2718,2020-11-02 15:33:39,2020-11-02 15:34:08,3,D7:F2:3B:06:4D:C8,64,64,-6878.831445276677,12681.90282973864,-2322.7273978105613
74357,-31237,-19493,-12820,25615,9981,-26652,24825,-21781,12790,64,-1,2743,2020-11-02 15:33:39,2020-11-02 15:34:08,3,D7:F2:3B:06:4D:C8,64,64,-14274.218765098716,23886.384344239308,-27308.733760564268
74358,-30733,1504,-8219,-10488,20221,23012,20480,-25366,-25873,64,-1,2769,2020-11-02 15:33:39,2020-11-02 15:34:08,3,D7:F2:3B:06:4D:C8,64,64,-17011.69506549137,20199.9625211358,17801.54518977062
74359,-29959,18148,-23836,-28671,30466,-18717,-25850,16619,-26904,64,-1,2794,2020-11-02 15:33:39,2020-11-02 15:34:08,3,D7:F2:3B:06:4D:C8,64,64,-30247.213948730423,25571.03995553656,15042.421511581197
74360,-20493,21738,25832,-21516,-26885,12013,-6135,13804,13795,64,-1,2820,2020-11-02 15:33:39,2020-11-02 15:34:08,3,D7:F2:3B:06:4D:C8,64,64,-32353.713393033875,-9762.952186992436,20438.148430714566
74361,-17671,-21009,1267,-12054,-1288,-9737,-30199,6380,9184,64,-1,2845,2020-11-02 15:33:39,2020-11-02 15:34:08,3,D7:F2:3B:06:4D:C8,64,64,-8117.5422671992055,-25920.844764288096,4178.866502523497
74362,30969,-32270,30969,4838,-6662,-30213,13063,30955,21470,64,-1,2871,2020-11-02 15:33:39,2020-11-02 15:34:08,3,D7:F2:3B:06:4D:C8,64,64,-46708.745317133114,21538.05426286376,17717.679065530334
74363,18915,-22024,-8702,32742,10493,-2810,5123,-5142,27358,64,-1,2897,2020-11-02 15:33:39,2020-11-02 15:34:08,3,D7:F2:3B:06:4D:C8,64,64,-29031.48724529703,80.92790715072806,-8702.0
74364,-12289,4347,-16123,-17694,13307,-3832,-25604,29418,8161,64,-1,2922,2020-11-02 15:33:39,2020-11-02 15:34:08,3,D7:F2:3B:06:4D:C8,64,64,-16924.75290326977,-9034.110401113769,-7861.593186100989
74365,-29685,-28684,-3584,25824,-3845,-19452,11766,-10775,20707,64,1,2948,2020-11-02 15:33:39,2020-11-02 15:34:08,3,D7:F2:3B:06:4D:C8,64,64,-6751.428566567179,-14386.893064786776,-38265.54138193958
74366,-509,4325,3086,-2086,-14091,23557,10991,-28695,17381,64,1,2973,2020-11-02 15:33:39,2020-11-02 15:34:08,3,D7:F2:3B:06:4D:C8,64,64,-4858.204809314993,955.1202573064595,1993.4124823607165
74367,22284,27107,15382,8672,-32523,-20467,-283,2026,-14615,64,1,2999,2020-11-02 15:33:39,2020-11-02 15:34:08,3,D7:F2:3B:06:4D:C8,64,64,15374.909243347232,-31543.276157666878,15382.0
74368,-11239,4585,14357,2539,-17412,-16375,28896,-22293,-4629,64,1,3025,2020-11-02 15:33:39,2020-11-02 15:34:08,3,D7:F2:3B:06:4D:C8,64,64,11172.266869652693,15067.866931687571,-1265.1616980516628
74369,-19186,-23578,-12015,20977,-4350,13315,7646,32236,-17941,64,1,3050,2020-11-02 15:33:39,2020-11-02 15:34:08,3,D7:F2:3B:06:4D:C8,64,64,-19980.761359388787,-192.63915579359855,-25867.29538731893
74370,-12534,-1563,28945,-26636,-21505,-16377,-30500,26861,24555,64,1,3076,2020-11-02 15:33:39,2020-11-02 15:34:08,3,D7:F2:3B:06:4D:C8,64,64,-23376.35912267329,16076.252984564468,-13872.889898795103
74371,21014,3561,-3571,10489,18434,-26104,32731,-11538,1771,64,1,3101,2020-11-02 15:33:39,2020-11-02 15:34:08,3,D7:F2:3B:06:4D:C8,64,64,-4718.825221524799,-2414.1975423875188,20950.544068234398
74372,1297,9447,14605,-20228,-1530,-3836,-10533,-19473,-25367,64,1,3127,2020-11-02 15:33:39,2020-11-02 15:34:08,3,D7:F2:3B:06:4D:C8,64,64,-12329.844254132135,-12334.952045761132,240.71081740972022
74373,-15349,-22814,28687,768,-1788,8711,-24612,-26128,14568,64,1,3152,2020-11-02 15:33:39,2020-11-02 15:34:08,3,D7:F2:3B:06:4D:C8,64,64,13349.603582555628,-12833.43306068756,35158.29128478046
74374,-20210,9953,17418,-7423,11006,22282,3805,4594,-2585,64,1,3178,2020-11-02 15:33:39,2020-11-02 15:34:08,3,D7:F2:3B:06:4D:C8,64,64,-20210.0,9953.0,17418.0
74375,-11254,-13596,7178,27906,-3846,-29686,1501,-18445,-18968,64,1,3204,2020-11-02 15:33:39,2020-11-02 15:34:08,3,D7:F2:3B:06:4D:C8,64,64,-11945.723609527618,12030.615816626136,-8694.330711303743
74376,-15105,-3102,-12533,-15610,3833,32523,18653,27637,-13335,64,1,3229,2020-11-02 15:33:39,2020-11-02 15:34:08,3,D7:F2:3B:06:4D:C8,64,64,4061.6984423007425,-2754.6090530309557,-19255.499285367066
74377,-25597,4065,-19203,-10745,8440,7438,3806,31223,1259,64,1,3255,2020-11-02 15:33:39,2020-11-02 15:34:08,3,D7:F2:3B:06:4D:C8,64,64,11153.321885054043,4065.0,-29992.74960600269
74378,3359,12501,23296,12279,30454,-1030,21725,29688,-6932,64,1,3280,2020-11-02 15:33:39,2020-11-02 15:34:08,3,D7:F2:3B:06:4D:C8,64,64,-1630.4480583949025,-26450.846163660404,-2820.6159531648377
74379,-25610,29158,11559,-7416,-15886,25864,9693,-20488,30446,64,1,3306,2020-11-02 15:33:39,2020-11-02 15:34:08,3,D7:F2:3B:06:4D:C8,64,64,11739.69816458036,-18437.106862111716,-34087.00811980455
74380,-18139,-25873,-19986,27158,-25618,-1532,28639,-10503,2545,64,1,3331,2020-11-02 15:33:39,2020-11-02 15:34:08,3,D7:F2:3B:06:4D:C8,64,64,-37269.919837909874,1786.2667313799775,2374.441500677016
74381,25359,-8206,3588,20228,-1806,3836,27616,249,6643,64,1,3357,2020-11-02 15:33:39,2020-11-02 15:34:08,3,D7:F2:3B:06:4D:C8,64,64,6903.107982875437,25704.07682462573,3865.047964838219
74382,29465,-10768,26653,7948,-27660,-17421,481,13815,17653,64,-1,3383,2020-11-02 15:33:39,2020-11-02 15:34:08,3,D7:F2:3B:06:4D:C8,64,64,-10334.330310012749,12349.973175177323,-37884.0103159097
74383,8448,-4110,22250,24339,16115,11250,24035,-21260,28662,64,-1,3434,2020-11-02 15:33:39,2020-11-02 15:34:08,3,D7:F2:3B:06:4D:C8,64,64,16808.589468948245,12011.35192611314,12510.877226294737
74384,18180,-10769,14085,-236,-4361,-9491,-13851,-16655,17655,64,-1,3436,2020-11-02 15:33:39,2020-11-02 15:34:08,3,D7:F2:3B:06:4D:C8,64,64,8588.514998205981,-18687.970776461232,14895.238983773364
74385,-28926,26855,5614,5401,-28416,-26138,-25878,-30226,-24843,64,-1,3459,2020-11-02 15:33:39,2020-11-02 15:34:08,3,D7:F2:3B:06:4D:C8,64,64,11424.436160396184,20127.553353759737,32462.06018429187
74386,-23803,-6175,23789,31509,-14848,23520,31729,30699,-784,64,-1,3485,2020-11-02 15:33:39,2020-11-02 15:34:08,3,D7:F2:3B:06:4D:C8,64,64,-18901.00345007833,21060.23557472598,-19231.44563253562
74387,7666,15846,-24852,-11251,-18176,-29725,1786,-29207,-22295,64,-1,3511,2020-11-02 15:33:39,2020-11-02 15:34:08,3,D7:F2:3B:06:4D:C8,64,64,23676.090591921104,-12631.237052586283,-14400.686122699717
74388,-18955,-7441,-29454,9221,-31234,-21781,-20736,-8216,17635,64,-1,3536,2020-11-02 15:33:39,2020-11-02 15:34:08,3,D7:F2:3B:06:4D:C8,64,64,34851.81288510926,-8210.439566934117,372.0789419663033
74389,-30229,29176,-12548,16127,14075,-9741,-12028,-17176,-24098,64,-1,3563,2020-11-02 15:33:39,2020-11-02 15:34:08,3,D7:F2:3B:06:4D:C8,64,64,-3063.370305737686,39577.7296383047,-18619.957036663174
74390,26109,20224,1018,-12036,-22792,-29701,-22522,-5657,10972,64,-1,3587,2020-11-02 15:33:39,2020-11-02 15:34:08,3,D7:F2:3B:06:4D:C8,64,64,30833.46945330924,11229.864757154357,-3861.8234045420077
74391,-14320,-29179,-17423,31484,2300,-23811,25351,26599,-16166,64,-1,3613,2020-11-02 15:33:39,2020-11-02 15:34:08,3,D7:F2:3B:06:4D:C8,64,64,11999.176141825521,12072.475893473797,-32715.630327397623
74392,24583,-769,24573,11760,20225,-8454,15367,-32281,2777,64,-1,3639,2020-11-02 15:33:39,2020-11-02 15:34:08,3,D7:F2:3B:06:4D:C8,64,64,-3503.196850681342,-22024.14875208272,-26672.30890964465
74393,18178,-15108,25613,10729,24064,-22277,27141,-16153,-28457,64,-1,3664,2020-11-02 15:33:39,2020-11-02 15:34:08,3,D7:F2:3B:06:4D:C8,64,64,-20353.674509157652,-21197.358984100912,18738.116849737664
74394,-20220,-23814,18956,13288,15875,4864,7170,8424,19671,64,-1,3690,2020-11-02 15:33:39,2020-11-02 15:34:08,3,D7:F2:3B:06:4D:C8,64,64,23043.57331728567,25824.209714204582,11721.299134808458
74395,-12285,30709,19731,28647,4873,-8191,-515,18921,-20265,64,1,3715,2020-11-02 15:33:39,2020-11-02 15:34:08,3,D7:F2:3B:06:4D:C8,64,64,-10463.265255720913,-32510.929312840795,-17799.88265140792
74396,30976,-16400,-20705,8424,-2811,27910,-25607,-15126,31960,64,1,3741,2020-11-02 15:33:39,2020-11-02 15:34:08,3,D7:F2:3B:06:4D:C8,64,64,21359.3888876098,20825.174640631045,27699.426140898093
74397,-8955,-14103,-21219,-15636,8450,29969,18932,12268,8923,64,1,3766,2020-11-02 15:33:39,2020-11-02 15:34:08,3,D7:F2:3B:06:4D:C8,64,64,-2912.048878264077,26847.719944243487,229.12905985809084
74398,7455,-11803,-14825,8943,-3328,21782,-9490,-28178,-15650,64,1,3792,2020-11-02 15:33:39,2020-11-02 15:34:08,3,D7:F2:3B:06:4D:C8,64,64,-15719.50870673661,10953.553523944289,-6898.200505705785
74399,22558,-28186,-31985,10224,-11007,30220,-1046,-27664,-4896,64,1,3817,2020-11-02 15:33:39,2020-11-02 15:34:08,3,D7:F2:3B:06:4D:C8,64,64,-38951.22061186544,-28186.0,3834.8405241663822
74400,8715,28894,7697,-32014,-17673,-758,-32281,-31503,-9246,64,1,3843,2020-11-02 15:33:39,2020-11-02 15:34:08,3,D7:F2:3B:06:4D:C8,64,64,17508.27706024503,-25758.565055759977,121.78115567874727
74401,26898,11997,9734,5365,-27912,-10479,23268,20723,16101,64,1,3869,2020-11-02 15:33:39,2020-11-02 15:34:08,3,D7:F2:3B:06:4D:C8,64,64,12420.310023085942,-25997.33546928048,11491.545432539613
74402,30,13285,9478,27122,12027,28429,-31263,27637,6375,64,1,3894,2020-11-02 15:33:39,2020-11-02 15:34:08,3,D7:F2:3B:06:4D:C8,64,64,-1842.258507346406,-12715.916899126643,-10061.617663507954
74403,26383,1262,28949,-24844,-27400,18437,2527,24310,22504,64,1,3920,2020-11-02 15:33:39,2020-11-02 15:34:08,3,D7:F2:3B:06:4D:C8,64,64,38583.83029861472,-6774.748764007996,1044.3910533283706
74404,20986,31202,22296,5381,12272,-27380,-9763,-23817,-15126,64,1,3945,2020-11-02 15:33:39,2020-11-02 15:34:08,3,D7:F2:3B:06:4D:C8,64,64,42572.56196040894,7428.078619196725,-6594.636620328289
74405,-29929,-793,1024,5648,-14611,19730,3039,12538,-15379,64,1,3971,2020-11-02 15:33:39,2020-11-02 15:34:08,3,D7:F2:3B:06:4D:C8,64,64,-6291.605772656904,-11841.832033535778,26788.228326841556
74406,-5098,25850,4848,-23290,23533,-7420,3296,23547,-14864,64,1,3997,2020-11-02 15:33:39,2020-11-02 15:34:08,3,D7:F2:3B:06:4D:C8,64,64,23645.456504122012,-10451.232264000597,-7027.043395026609
74407,-7417,5374,12547,-12290,9698,26116,2783,-6917,-24588,64,1,4022,2020-11-02 15:33:39,2020-11-02 15:34:08,3,D7:F2:3B:06:4D:C8,64,64,5453.497156730347,-14535.780589145726,537.9827374073811
74408,-5394,-29448,-3311,11533,19435,28413,24799,23291,20984,64,1,4048,2020-11-02 15:33:39,2020-11-02 15:34:08,3,D7:F2:3B:06:4D:C8,64,64,12465.840894772366,-18688.93341747987,-20064.128177003477
74409,32298,17908,19975,20497,14060,-22794,15073,11258,-28677,64,1,4073,2020-11-02 15:33:39,2020-11-02 15:34:08,3,D7:F2:3B:06:4D:C8,64,64,31416.159831298784,15899.703451255014,-22870.99089712639
74410,27931,4328,-5632,-2797,-1801,-13085,-8221,19702,-19972,64,1,4099,2020-11-02 15:33:39,2020-11-02 15:34:08,3,D7:F2:3B:06:4D:C8,64,64,27969.894227642813,6412.0161791906,2676.347214445665
74411,-18165,15573,18429,29208,-29951,-32042,29672,-1808,-29702,64,1,4124,2020-11-02 15:33:39,2020-11-02 15:34:08,3,D7:F2:3B:06:4D:C8,64,64,-26334.86858355455,-11152.907384119608,-9705.71731342726
74412,-29425,-28460,-25360,21526,-7935,29397,13296,26348,32500,64,1,4150,2020-11-02 15:33:39,2020-11-02 15:34:08,3,D7:F2:3B:06:4D:C8,64,64,42215.38826148852,-19664.37241795424,-12251.7458486445
74413,-16628,-5421,-18962,18192,-2555,5840,-27653,-15127,-11543,64,1,4176,2020-11-02 15:33:39,2020-11-02 15:34:08,3,D7:F2:3B:06:4D:C8,64,64,16528.875939473863,-6882.730740935482,-18570.388976143277
74414,30209,-19239,31217,2313,8,-16944,31239,18155,-32547,64,-1,4227,2020-11-02 15:33:39,2020-11-02 15:34:08,3,D7:F2:3B:06:4D:C8,64,64,-30862.34866952002,-18040.095855327105,-31293.677750171606
74415,27128,18147,-10244,-21500,-14587,-29226,10766,26351,-25131,64,-1,4229,2020-11-02 15:33:39,2020-11-02 15:34:08,3,D7:F2:3B:06:4D:C8,64,64,2462.2893948393976,-31038.873207911653,14167.11014707112
74416,-13323,-10776,-12288,-22781,-24832,25055,-14319,7923,-31792,64,-1,4252,2020-11-02 15:33:39,2020-11-02 15:34:08,3,D7:F2:3B:06:4D:C8,64,64,7931.809091404779,3232.562733176572,19268.014732026404
74417,24828,-4880,-2307,-11007,28660,-10010,1044,-11531,-16948,64,-1,4278,2020-11-02 15:33:39,2020-11-02 15:34:08,3,D7:F2:3B:06:4D:C8,64,64,-1010.6750306478998,9518.2648224365,23536.087265142283
74418,-3080,28148,30714,32507,-2051,31206,5397,8440,18377,64,-1,4304,2020-11-02 15:33:39,2020-11-02 15:34:08,3,D7:F2:3B:06:4D:C8,64,64,-27911.065186662425,-24453.912872098655,19186.575655642366
74419,11243,-18184,11000,-2313,2320,-9245,26132,-31492,456,64,-1,4329,2020-11-02 15:33:39,2020-11-02 15:34:08,3,D7:F2:3B:06:4D:C8,64,64,9490.896771898568,20210.68305017113,-8917.066452073277
74420,14306,-23813,29434,-30227,-28414,28909,27922,30976,199,64,-1,4355,2020-11-02 15:33:39,2020-11-02 15:34:08,3,D7:F2:3B:06:4D:C8,64,64,5225.665588008749,37840.94019051875,13372.981180719726
74421,-30501,-2562,-12262,-15388,-15878,5119,-28402,12033,-18491,64,-1,4380,2020-11-02 15:33:39,2020-11-02 15:34:08,3,D7:F2:3B:06:4D:C8,64,64,-16489.61057798474,-13415.819996005503,25205.951793598128
74422,-3860,29700,24127,-16918,31234,5389,-29430,-25344,-19770,64,-1,4406,2020-11-02 15:33:39,2020-11-02 15:34:08,3,D7:F2:3B:06:4D:C8,64,64,-31039.59357620996,10435.322900290072,-20168.029045754243
74423,3077,-26612,24374,-31238,-32000,-8949,-18936,-10753,-26168,64,-1,4432,2020-11-02 15:33:39,2020-11-02 15:34:08,3,D7:F2:3B:06:4D:C8,64,64,-34834.78478506,-5235.708324687046,-8419.232525435738
74424,31243,1804,3629,20998,-27120,-8197,-3832,3073,-27703,64,-1,4457,2020-11-02 15:33:39,2020-11-02 15:34:08,3,D7:F2:3B:06:4D:C8,64,64,-21787.05934817733,22465.607268867643,3629.0
74425,15360,15111,30747,4110,13333,-2828,-22518,25604,-27447,64,-1,4483,2020-11-02 15:33:39,2020-11-02 15:34:08,3,D7:F2:3B:06:4D:C8,64,64,-1512.1943242270718,17999.398740759727,32914.811913436664
74426,29953,12808,31507,-4084,-1518,14836,-16628,-10745,-27703,64,-1,4508,2020-11-02 15:33:39,2020-11-02 15:34:08,3,D7:F2:3B:06:4D:C8,64,64,-41843.752907982256,12771.839275779173,11827.873269924385
74427,-24575,-25335,11279,19464,782,-14353,9486,6667,15817,64,-1,4534,2020-11-02 15:33:39,2020-11-02 15:34:08,3,D7:F2:3B:06:4D:C8,64,64,31933.918091468688,-14076.568359431394,12453.264212632123
74428,-4361,-10236,-11252,17927,19464,8940,23310,1550,-27193,64,-1,4559,2020-11-02 15:33:39,2020-11-02 15:34:08,3,D7:F2:3B:06:4D:C8,64,64,4231.587514575003,-2107.617013502245,15101.428363929315
74429,13087,-31495,2806,15105,-6133,7139,27661,15633,-2108,64,-1,4587,2020-11-02 15:33:39,2020-11-02 15:34:08,3,D7:F2:3B:06:4D:C8,64,64,14559.676013850785,22710.093640933505,-21055.776195422713
74430,-9755,7418,24343,-7919,4369,-7194,3852,-3051,10945,64,-1,4611,2020-11-02 15:33:39,2020-11-02 15:34:08,3,D7:F2:3B:06:4D:C8,64,64,-11512.680759048679,-4200.58695187117,24343.0
74431,-1053,29180,-10254,25108,-23792,-17940,-23284,10778,14270,64,-1,4636,2020-11-02 15:33:39,2020-11-02 15:34:08,3,D7:F2:3B:06:4D:C8,64,64,443.56849434680043,26216.06467059211,16439.188701944968
74432,-19734,20219,23782,16135,32006,13558,4876,-25572,-32069,64,-1,4662,2020-11-02 15:33:39,2020-11-02 15:34:08,3,D7:F2:3B:06:4D:C8,64,64,-10624.099895057852,35363.51769200964,-610.2121489717647
74433,-32288,24057,14323,-21503,24070,-25857,-20468,8478,-24389,64,-1,4687,2020-11-02 15:33:39,2020-11-02 15:34:08,3,D7:F2:3B:06:4D:C8,64,64,37563.90929020688,-10148.454688977876,17673.82551296895
74434,-25621,-1035,-28687,11264,-32254,-1782,-24303,-3043,-27712,64,-1,4713,2020-11-02 15:33:39,2020-11-02 15:34:08,3,D7:F2:3B:06:4D:C8,64,64,-195.46941741484625,-34023.10047523095,17967.78396907073
74435,10487,-24588,29168,27900,7,3343,-30184,-14308,200,64,-1,4738,2020-11-02 15:33:39,2020-11-02 15:34:08,3,D7:F2:3B:06:4D:C8,64,64,9551.911835062865,-34944.58905954423,15904.584645779581
74436,-28678,2547,-22284,6903,30726,-8430,26909,-12006,13774,64,1,4764,2020-11-02 15:33:39,2020-11-02 15:34:08,3,D7:F2:3B:06:4D:C8,64,64,16664.664821660033,8113.194598683661,-31336.186251450847
74437,-28677,8688,-30726,-7951,2,19479,-28898,-8681,31953,64,1,4790,2020-11-02 15:33:39,2020-11-02 15:34:08,3,D7:F2:3B:06:4D:C8,64,64,26313.56928827795,23604.288234999676,-24338.70163402418
74438,21503,32493,-10501,-14867,-29187,28187,15901,5908,-4142,64,1,4815,2020-11-02 15:33:39,2020-11-02 15:34:08,3,D7:F2:3B:06:4D:C8,64,64,40157.247794804,-3973.3268808298144,230.61232574189944
74439,-12281,1517,-7685,24810,28411,-20453,-8422,-6641,-3373,64,1,4841,2020-11-02 15:33:39,2020-11-02 15:34:08,3,D7:F2:3B:06:4D:C8,64,64,-2067.329880267935,-5647.065920246717,-13267.263043240662
74440,-24823,15341,-24065,30182,11518,5911,2840,18444,26581,64,1,4866,2020-11-02 15:33:39,2020-11-02 15:34:08,3,D7:F2:3B:06:4D:C8,64,64,-2233.1044429282288,-26055.511705582707,27327.191390759803
74441,5127,27624,9730,-22049,-17927,-11756,8212,9993,-16682,64,1,4892,2020-11-02 15:33:39,2020-11-02 15:34:08,3,D7:F2:3B:06:4D:C8,64,64,-5006.797555003942,-27130.967622395565,11085.439960404385
74442,9993,-25888,10507,-8232,-6412,25621,-8434,-3323,7384,64,1,4917,2020-11-02 15:33:39,2020-11-02 15:34:08,3,D7:F2:3B:06:4D:C8,64,64,9729.459429571536,5628.418235280238,27460.957182463368
74443,-26867,26072,-21487,4308,-6161,12055,-30712,17922,-1831,64,1,4943,2020-11-02 15:33:39,2020-11-02 15:34:08,3,D7:F2:3B:06:4D:C8,64,64,29266.14670916704,28000.04638908409,-14925.350950870474
74444,789,-7466,-20971,28115,28908,27158,29697,-25090,-15396,64,1,4969,2020-11-02 15:33:39,2020-11-02 15:34:08,3,D7:F2:3B:06:4D:C8,64,64,-20378.00408852809,8885.700513233194,-1388.4501276819092
74445,-2280,4059,22553,27862,22515,-9968,16890,15868,-289,64,1,4994,2020-11-02 15:33:39,2020-11-02 15:34:08,3,D7:F2:3B:06:4D:C8,64,64,-4229.198822469668,-22196.52487674445,4442.955178266595
74446,-32486,-16415,23332,27614,24574,-26364,9204,-7685,-17439,64,1,5020,2020-11-02 15:33:39,2020-11-02 15:34:08,3,D7:F2:3B:06:4D:C8,64,64,12349.364614800288,30550.74246137938,-27987.85403830007
74447,14866,-23324,-4310,-1304,-6651,25849,4336,-5125,9697,64,1,5045,2020-11-02 15:33:39,2020-11-02 15:34:08,3,D7:F2:3B:06:4D:C8,64,64,27658.603328695142,-92.70332191430316,-4310.0
74448,16392,-27928,22054,20211,-5887,15605,-8211,22267,-26657,64,-1,5071,2020-11-02 15:33:39,2020-11-02 15:34:08,3,D7:F2:3B:06:4D:C8,64,64,4715.6401205322545,-10765.876520853051,-37375.237858659464
74449,-29947,14831,-4583,-30473,15359,9974,-16916,14074,29406,64,-1,5097,2020-11-02 15:33:39,2020-11-02 15:34:08,3,D7:F2:3B:06:4D:C8,64,64,-9365.900785762398,-4787.36430871464,32049.123302313597
74450,-26874,26613,-25319,30456,25336,27896,-22037,-17416,12766,64,-1,5122,2020-11-02 15:33:39,2020-11-02 15:34:08,3,D7:F2:3B:06:4D:C8,64,64,17385.74866122019,33908.394911975614,-24889.19251366717
74451,-11768,-18440,-14825,12282,18679,-25352,-25622,2807,-23842,64,-1,5173,2020-11-02 15:33:39,2020-11-02 15:34:08,3,D7:F2:3B:06:4D:C8,64,64,-9920.823904150942,-24118.1594561641,-4265.171334175149
74452,-9978,-24585,12054,5884,-25097,-11785,-10775,23285,-2082,64,-1,5175,2020-11-02 15:33:39,2020-11-02 15:34:08,3,D7:F2:3B:06:4D:C8,64,64,-14063.250445108479,-3140.240938893832,-25330.722428779074
74453,-8450,19448,-29679,-1283,19702,-5127,12265,-19469,-27681,64,-1,5199,2020-11-02 15:33:39,2020-11-02 15:34:08,3,D7:F2:3B:06:4D:C8,64,64,-16996.42098835256,-9226.558090375236,-30926.728640314024
74454,31740,13049,-12282,8702,-14093,28670,12776,29170,225,64,-1,5224,2020-11-02 15:33:39,2020-11-02 15:34:08,3,D7:F2:3B:06:4D:C8,64,64,-7275.776208157425,5737.690926169362,35251.85822626325
74455,-22009,-14090,-13563,-517,16882,17409,21222,-20495,23267,64,-1,5250,2020-11-02 15:33:39,2020-11-02 15:34:08,3,D7:F2:3B:06:4D:C8,64,64,-1181.764304130993,-25636.85559802164,-14430.322871497641
74456,-11518,-30729,-5366,-27909,-29193,23807,-29980,5873,13541,64,-1,5276,2020-11-02 15:33:39,2020-11-02 15:34:08,3,D7:F2:3B:06:4D:C8,64,64,16688.48698134858,-27883.74105346002,-7051.3196025245725
74457,-2056,-24073,12049,-10499,-16647,28417,19683,-10256,31718,64,-1,5301,2020-11-02 15:33:39,2020-11-02 15:34:08,3,D7:F2:3B:06:4D:C8,64,64,24565.66938830553,-5023.16621413355,-10010.522198649564
74458,-2058,18676,10259,-27389,3572,-27128,27106,27377,21224,64,-1,5327,2020-11-02 15:33:39,2020-11-02 15:34:08,3,D7:F2:3B:06:4D:C8,64,64,-16318.440407643018,6814.465694338063,12064.285348204141
74459,-5385,10993,-16895,-21751,8430,14093,-24863,-18446,-18709,64,-1,5352,2020-11-02 15:33:39,2020-11-02 15:34:08,3,D7:F2:3B:06:4D:C8,64,64,-1782.2527345212602,-5911.343140912739,-19928.996373642985
74460,-21752,24301,5906,23823,19689,-18420,20193,23284,-22545,64,-1,5378,2020-11-02 15:33:39,2020-11-02 15:34:08,3,D7:F2:3B:06:4D:C8,64,64,-19399.71330253908,22377.517815487656,-14881.759344809361
74461,23823,29927,4117,5144,-16401,8455,-2846,13813,-3342,64,-1,5404,2020-11-02 15:33:39,2020-11-02 15:34:08,3,D7:F2:3B:06:4D:C8,64,64,-6170.288580821241,29927.0,-23375.469125332802
74462,-23029,31457,19469,-5093,-14867,22531,-18715,4341,-3339,64,-1,5429,2020-11-02 15:33:39,2020-11-02 15:34:08,3,D7:F2:3B:06:4D:C8,64,64,-23029.0,-28394.728528642656,-23713.376009853317
74463,14348,15840,19201,-8679,12784,-28161,27880,3572,-12552,64,-1,5455,2020-11-02 15:33:39,2020-11-02 15:34:08,3,D7:F2:3B:06:4D:C8,64,64,-2172.148635715612,-14785.11521105852,-24538.362689879796
74464,8203,-26910,-28163,19222,22259,29436,-7958,-24846,-14342,64,-1,5480,2020-11-02 15:33:39,2020-11-02 15:34:08,3,D7:F2:3B:06:4D:C8,64,64,-34877.504268486926,15676.81630058601,-11062.956416770223
74465,29969,-13850,-23554,23827,-11530,-25861,16109,11505,-6917,64,-1,5506,2020-11-02 15:33:39,2020-11-02 15:34:08,3,D7:F2:3B:06:4D:C8,64,64,14762.207993068267,27316.66220829688,-26088.916381620693
74466,-15089,5606,21747,28432,1276,22770,8944,25327,-31749,64,-1,5531,2020-11-02 15:33:39,2020-11-02 15:34:08,3,D7:F2:3B:06:4D:C8,64,64,13905.872548324714,-6824.512156242877,-22183.09961432447
74467,-1022,-31005,-28695,-10232,-6914,-6167,-8973,23277,-21000,64,-1,5557,2020-11-02 15:33:39,2020-11-02 15:34:08,3,D7:F2:3B:06:4D:C8,64,64,1498.334711940457,41525.090392398415,-7692.814504076843
74468,31992,30695,1515,28929,10757,-28698,11512,9964,-27661,64,-1,5583,2020-11-02 15:33:39,2020-11-02 15:34:08,3,D7:F2:3B:06:4D:C8,64,64,-15593.62269469143,39704.3656318394,-12180.664802415942
74469,-4103,-8472,8682,28155,-32249,-10267,-28164,12012,24557,64,-1,5611,2020-11-02 15:33:39,2020-11-02 15:34:08,3,D7:F2:3B:06:4D:C8,64,64,5285.96959126177,7700.412463974603,8760.632988826805
74470,-4367,-18710,-28441,32749,13060,10988,-17922,-18452,-1817,64,1,5634,2020-11-02 15:33:39,2020-11-02 15:34:08,3,D7:F2:3B:06:4D:C8,64,64,-22.737827869506418,14509.16546216365,-31104.804622159918
74471,32485,18157,4094,10465,-29696,-11526,-30724,-15380,23269,64,1,5659,2020-11-02 15:33:39,2020-11-02 15:34:08,3,D7:F2:3B:06:4D:C8,64,64,20801.781108957082,22211.21887480712,21809.63935489187
74472,-12547,30703,-497,-26400,13315,-5884,19959,20205,-13595,64,1,5685,2020-11-02 15:33:39,2020-11-02 15:34:08,3,D7:F2:3B:06:4D:C8,64,64,-33027.48029822036,706.0011121261175,-3005.916595706272
74473,26120,20465,-14319,-32284,24582,-26364,30706,31726,18918,64,1,5711,2020-11-02 15:33:39,2020-11-02 15:34:08,3,D7:F2:3B:06:4D:C8,64,64,-28702.550633905947,12097.25758661545,18328.23864944856
74474,17419,-25879,16654,-11551,-13307,17152,28142,28911,-11035,64,1,5736,2020-11-02 15:33:39,2020-11-02 15:34:08,3,D7:F2:3B:06:4D:C8,64,64,23002.144657500765,18811.310988606536,19171.22421874357
74475,-30463,-1571,23058,-15650,-25086,-8192,-11543,-9745,19941,64,1,5762,2020-11-02 15:33:39,2020-11-02 15:34:08,3,D7:F2:3B:06:4D:C8,64,64,6439.924565180883,-22756.88859447791,-30046.383594258077
74476,12800,32216,-28902,-288,30206,-2551,-29468,-7184,-13083,64,1,5787,2020-11-02 15:33:39,2020-11-02 15:34:08,3,D7:F2:3B:06:4D:C8,64,64,38579.57243523394,-4260.47792292482,23032.6111976651
74477,22284,-4906,-21738,-17945,-29184,23823,11232,5107,27110,64,1,5813,2020-11-02 15:33:39,2020-11-02 15:34:08,3,D7:F2:3B:06:4D:C8,64,64,-2728.5155739525053,-27088.339861138622,-15873.348176429163
74478,-31980,-6693,-9197,16364,31491,-13046,13277,11509,742,64,1,5838,2020-11-02 15:33:39,2020-11-02 15:34:08,3,D7:F2:3B:06:4D:C8,64,64,11254.613730231045,11148.07921152582,30019.2514509746
74479,5895,18140,25882,6130,28672,6151,2779,23030,30437,64,1,5864,2020-11-02 15:33:39,2020-11-02 15:34:08,3,D7:F2:3B:06:4D:C8,64,64,10745.620245145172,27623.575866563475,-12456.253485351768
74480,-25846,-24867,30225,-6658,-13574,4363,2522,-4361,-2331,64,1,5890,2020-11-02 15:33:39,2020-11-02 15:34:08,3,D7:F2:3B:06:4D:C8,64,64,-25846.0,-24867.0,30225.0
74481,7443,24546,-9474,13575,23295,-28920,-16934,-31495,17382,64,1,5915,2020-11-02 15:33:39,2020-11-02 15:34:08,3,D7:F2:3B:06:4D:C8,64,64,18012.874811597234,16452.091393589813,-12350.144565902612
74482,-32745,18157,-27657,-10237,-8445,25090,-13093,9210,-22043,64,1,5941,2020-11-02 15:33:39,2020-11-02 15:34:08,3,D7:F2:3B:06:4D:C8,64,64,17065.763196276464,35467.68061908042,24852.05587132627
74483,-2033,-13832,2320,-13314,-20742,-6659,-16933,-5639,-10523,64,1,5966,2020-11-02 15:33:39,2020-11-02 15:34:08,3,D7:F2:3B:06:4D:C8,64,64,5520.334738223,5960.573422945687,11611.941347063459
74484,18200,-20229,29464,-24564,-16909,12791,28892,4601,24295,64,1,5992,2020-11-02 15:33:39,2020-11-02 15:34:08,3,D7:F2:3B:06:4D:C8,64,64,5143.5048315550375,-28490.946126246516,27755.901784649126
74485,-11771,12279,16899,-14576,26103,-5389,24286,18679,-4888,64,1,6017,2020-11-02 15:33:39,2020-11-02 15:34:08,3,D7:F2:3B:06:4D:C8,64,64,8783.003973560655,4763.115347624388,21796.28538044138
74486,21249,-5642,17923,16400,-23818,13302,29920,30197,-2583,64,1,6043,2020-11-02 15:33:39,2020-11-02 15:34:08,3,D7:F2:3B:06:4D:C8,64,64,-4035.728189851664,15586.377724403907,23353.02595831731
74487,17664,17396,-23302,-29423,-20492,-1033,15586,-9229,-21525,64,1,6069,2020-11-02 15:33:39,2020-11-02 15:34:08,3,D7:F2:3B:06:4D:C8,64,64,13775.545395378282,-12126.509276906465,28649.66034383259
74488,-2053,15347,-25346,-10732,-24073,-11016,29412,27378,-8212,64,1,6094,2020-11-02 15:33:39,2020-11-02 15:34:08,3,D7:F2:3B:06:4D:C8,64,64,-7106.048509946962,-25859.592520339662,12765.205962156415
74489,-243,22254,-20482,11035,19959,-11790,-22297,-30480,-15123,64,1,6120,2020-11-02 15:33:39,2020-11-02 15:34:08,3,D7:F2:3B:06:4D:C8,64,64,-29470.958117264716,-4508.392694402222,5094.00745616743
74490,-1269,-5146,-25359,-17894,2045,-9752,-21524,-23059,32492,64,1,6145,2020-11-02 15:33:39,2020-11-02 15:34:08,3,D7:F2:3B:06:4D:C8,64,64,7234.258327457205,-19111.700797954116,-15924.16268006252
74491,-22004,-28698,20720,10771,13823,7139,-31245,-13590,-1561,64,1,6171,2020-11-02 15:33:39,2020-11-02 15:34:08,3,D7:F2:3B:06:4D:C8,64,64,28835.662893448763,-28009.448369443897,-11002.04378898934
74492,19719,-29719,26870,13835,-20992,10465,-4101,2025,26080,64,1,6196,2020-11-02 15:33:39,2020-11-02 15:34:08,3,D7:F2:3B:06:4D:C8,64,64,-35380.611917865885,4502.246363468648,26870.0
74493,2813,-29202,-23559,-15355,14081,-28444,15620,17129,472,64,1,6222,2020-11-02 15:33:39,2020-11-02 15:34:08,3,D7:F2:3B:06:4D:C8,64,64,-16400.716565956973,33574.45799943589,4412.314604293333
74494,-11782,-777,11257,14847,-5379,-27924,-26871,12522,-1839,64,1,6248,2020-11-02 15:33:39,2020-11-02 15:34:08,3,D7:F2:3B:06:4D:C8,64,64,-2322.327872664804,-8011.444596270321,14020.08740103767
74495,23291,17917,-5900,31992,-30721,26354,-6645,8939,15310,64,-1,6273,2020-11-02 15:33:39,2020-11-02 15:34:08,3,D7:F2:3B:06:4D:C8,64,64,-3129.286931463167,-4494.7237009268665,-29467.008537564518
74496,6649,14075,20462,17900,-5890,-32520,-26869,-15637,-5429,64,-1,6299,2020-11-02 15:33:39,2020-11-02 15:34:08,3,D7:F2:3B:06:4D:C8,64,64,-291.07013477765577,-24685.726622646165,7179.028436259245
74497,25081,31727,-19980,11228,-26375,-8192,-7929,17131,-7222,64,-1,6324,2020-11-02 15:33:39,2020-11-02 15:34:08,3,D7:F2:3B:06:4D:C8,64,64,-23781.947623245644,37648.18259717611,-7203.666037156826
74498,-29964,10975,19726,22735,29423,29453,-25345,27113,-23348,64,-1,6350,2020-11-02 15:33:39,2020-11-02 15:34:08,3,D7:F2:3B:06:4D:C8,64,64,1655.5298516074254,31897.374919871647,-19678.000181206924
74499,25608,20446,14133,-20775,-9488,7709,17393,30696,12501,64,-1,6376,2020-11-02 15:33:39,2020-11-02 15:34:08,3,D7:F2:3B:06:4D:C8,64,64,12764.11320356191,25542.571597773323,21405.716976996588
74500,19744,16874,11308,11506,-10255,11546,3559,-12310,13533,64,-1,6427,2020-11-02 15:33:39,2020-11-02 15:34:08,3,D7:F2:3B:06:4D:C8,64,64,-7645.293296951103,-23842.916985939213,13247.379967571173
74501,1810,30697,-9427,32258,-32005,10516,-19229,28141,-4640,64,-1,6429,2020-11-02 15:33:39,2020-11-02 15:34:08,3,D7:F2:3B:06:4D:C8,64,64,-4967.635964545101,-31720.13798412424,-1898.8620781606269
74502,-13813,11732,12328,-10992,-14092,13587,4068,-529,6883,64,-1,6452,2020-11-02 15:33:39,2020-11-02 15:34:08,3,D7:F2:3B:06:4D:C8,64,64,-17335.333344722858,-5284.41206070646,12328.0
74503,-6895,-29744,-28395,28953,752,8727,16869,-28430,-3354,64,-1,6478,2020-11-02 15:33:39,2020-11-02 15:34:08,3,D7:F2:3B:06:4D:C8,64,64,-7018.966808660376,38197.37194097343,15172.91889327361
74504,9764,3031,-3821,8981,1520,-1264,-29210,29428,25323,64,-1,6503,2020-11-02 15:33:39,2020-11-02 15:34:08,3,D7:F2:3B:06:4D:C8,64,64,2755.6760998636096,-3730.361792207359,9879.946767664285
74505,-19429,-804,-15587,-27106,-1797,-29437,-26647,-11532,-22803,64,1,6529,2020-11-02 15:33:39,2020-11-02 15:34:08,3,D7:F2:3B:06:4D:C8,64,64,2358.230659514209,-12110.209397576918,-21653.373928867688
74506,-16630,28377,13840,22815,-20218,-11523,-16146,7413,-1300,64,1,6555,2020-11-02 15:33:39,2020-11-02 15:34:08,3,D7:F2:3B:06:4D:C8,64,64,-35544.24391050905,775.6776065691738,-3059.685944816505
74507,9484,-4905,11532,-28893,-32513,7938,-11789,15349,-2580,64,1,6580,2020-11-02 15:33:39,2020-11-02 15:34:08,3,D7:F2:3B:06:4D:C8,64,64,-4254.898805590605,12527.218159417494,-8482.744033657045
74508,-16355,14055,-7191,-31205,-771,-12028,2808,16629,-8467,64,1,6606,2020-11-02 15:33:39,2020-11-02 15:34:08,3,D7:F2:3B:06:4D:C8,64,64,11971.31031133237,7369.003758895494,17864.071317344526
74509,4384,-17422,-26,18442,-17416,-6154,-24582,2036,-10771,64,1,6631,2020-11-02 15:33:39,2020-11-02 15:34:08,3,D7:F2:3B:06:4D:C8,64,64,11967.728566592854,2474.465998384342,-13168.018339112272
74510,-18936,-29710,-26635,-21250,-23816,-28694,30204,16370,1003,64,1,6657,2020-11-02 15:33:39,2020-11-02 15:34:08,3,D7:F2:3B:06:4D:C8,64,64,26915.659701025907,-33968.55158576515,8506.714231933642
74511,-2301,9973,-29429,-14335,-31239,-18200,-29186,26864,4327,64,1,6682,2020-11-02 15:33:39,2020-11-02 15:34:08,3,D7:F2:3B:06:4D:C8,64,64,584.1728273737162,31049.14545468626,-2535.8784753008003
74512,-30476,-21262,-19718,-12790,24832,-14104,-6142,-25872,11490,64,1,6708,2020-11-02 15:33:39,2020-11-02 15:34:08,3,D7:F2:3B:06:4D:C8,64,64,14963.831559426319,34779.692412083525,18333.45261487799
74513,-21760,-30224,-28687,781,20476,20970,23815,-7440,-547,64,1,6734,2020-11-02 15:33:39,2020-11-02 15:34:08,3,D7:F2:3B:06:4D:C8,64,64,-46782.93290027436,-1954.6683859167279,4179.498265285512
74514,17661,-2316,-5152,-1280,4865,-20753,31498,-13071,-25382,64,1,6759,2020-11-02 15:33:39,2020-11-02 15:34:08,3,D7:F2:3B:06:4D:C8,64,64,9491.458255550939,-2426.122976951012,15743.062868573075
74515,-8970,25588,14304,-7955,-25607,-9482,20490,9970,17880,64,1,6785,2020-11-02 15:33:39,2020-11-02 15:34:08,3,D7:F2:3B:06:4D:C8,64,64,17446.28624125486,25140.07795895925,1847.8735361632525
74516,-3082,-787,13294,2523,-19983,-24574,30726,-25104,4311,64,1,6810,2020-11-02 15:33:39,2020-11-02 15:34:08,3,D7:F2:3B:06:4D:C8,64,64,5439.574419528517,12524.697167412203,-625.7155895674268
74517,10482,-26139,-8180,-12590,10476,-10736,28670,-10771,985,64,1,6836,2020-11-02 15:33:39,2020-11-02 15:34:08,3,D7:F2:3B:06:4D:C8,64,64,-13475.779275968274,-15258.646432567744,21109.455865826378
74518,-25329,-6428,12806,-27944,-26897,-19687,4851,-27668,-23841,64,1,6862,2020-11-02 15:33:39,2020-11-02 15:34:08,3,D7:F2:3B:06:4D:C8,64,64,-12291.949235120966,24065.985425749666,10798.4901948751
74519,26139,-1824,-20976,-11816,26605,-7148,-6425,28397,20198,64,1,6887,2020-11-02 15:33:39,2020-11-02 15:34:08,3,D7:F2:3B:06:4D:C8,64,64,12203.201295721865,17085.069812253223,26186.81234221771
74520,-2779,-31260,-14310,-26146,12789,15112,-28705,-13074,16618,64,1,6913,2020-11-02 15:33:39,2020-11-02 15:34:08,3,D7:F2:3B:06:4D:C8,64,64,-17774.788403999723,27172.24285326963,11636.69439815167
74521,-15601,-29463,31774,16365,-16129,16379,13019,-20242,17643,64,1,6938,2020-11-02 15:33:39,2020-11-02 15:34:08,3,D7:F2:3B:06:4D:C8,64,64,-18533.495104570473,19441.085906606648,37411.23339293697
74522,-23301,10988,22288,25083,17666,-28417,25306,9710,-31510,64,1,6964,2020-11-02 15:33:39,2020-11-02 15:34:08,3,D7:F2:3B:06:4D:C8,64,64,-18321.031886615772,-27790.46593999215,7242.753788977254
74523,-1020,4327,-11007,19199,30972,-1014,11226,20207,-28438,64,1,6990,2020-11-02 15:33:39,2020-11-02 15:34:08,3,D7:F2:3B:06:4D:C8,64,64,-9226.206134229227,-7064.313389245868,2426.927009045086
74524,-10476,-30,11523,21757,14076,-27636,-22311,24817,-1302,64,1,7015,2020-11-02 15:33:39,2020-11-02 15:34:08,3,D7:F2:3B:06:4D:C8,64,64,15477.729940429068,1655.8256277718633,-474.470632978956
74525,22544,10720,16917,-255,18682,24074,19161,9715,-30229,64,1,7041,2020-11-02 15:33:39,2020-11-02 15:34:08,3,D7:F2:3B:06:4D:C8,64,64,12284.758202939956,-4300.516435587619,-27201.571632582927
74526,30469,-31781,10008,9235,16635,24844,-806,-4108,3564,64,1,7066,2020-11-02 15:33:39,2020-11-02 15:34:08,3,D7:F2:3B:06:4D:C8,64,64,30469.0,-31781.0,10008.0
74527,24856,-5419,13034,28696,9469,-4852,-27682,6391,22508,64,-1,7092,2020-11-02 15:33:39,2020-11-02 15:34:08,3,D7:F2:3B:06:4D:C8,64,64,-1889.5086783276274,6655.319555373933,-27734.598096427897
74528,1031,13533,3557,25347,17661,20486,-5409,14584,1005,64,-1,7117,2020-11-02 15:33:39,2020-11-02 15:34:08,3,D7:F2:3B:06:4D:C8,64,64,2805.323558738846,13533.0,-2417.719944655463
74529,-17402,11493,-17649,-18183,4082,-26615,-22818,20473,24814,64,-1,7143,2020-11-02 15:33:39,2020-11-02 15:34:08,3,D7:F2:3B:06:4D:C8,64,64,-23218.756654180208,-5665.7818877825075,-13236.091153888217
74530,19477,-23834,-4312,30479,25592,23045,4063,22266,26352,64,-1,7169,2020-11-02 15:33:39,2020-11-02 15:34:08,3,D7:F2:3B:06:4D:C8,64,64,-5036.271227141896,30632.192725750407,1520.2532483590867
74531,16401,-2331,-29968,29724,12532,31233,-15902,26106,5362,64,-1,7194,2020-11-02 15:33:39,2020-11-02 15:34:08,3,D7:F2:3B:06:4D:C8,64,64,-21762.657451414107,-26279.787011120643,2875.225435082445
74532,7949,-23565,-19463,-20974,31987,31229,-22555,-23559,32755,64,-1,7220,2020-11-02 15:33:39,2020-11-02 15:34:08,3,D7:F2:3B:06:4D:C8,64,64,23113.58982413367,-5575.744574009899,-20784.0619919953
74533,-16886,24053,-27898,-3054,-17935,-20488,-12825,-5385,19957,64,-1,7245,2020-11-02 15:33:39,2020-11-02 15:34:08,3,D7:F2:3B:06:4D:C8,64,64,21709.438327567324,32640.16997325922,-10261.666561445943
74534,1020,-31248,13558,-20459,-20754,9205,28906,23285,-17418,64,-1,7271,2020-11-02 15:33:39,2020-11-02 15:34:08,3,D7:F2:3B:06:4D:C8,64,64,26575.582160540893,-390.7837454983073,-21327.9860486778
74535,-4343,-1300,-26371,-4844,-25359,-1555,8685,10226,-31497,64,-1,7296,2020-11-02 15:33:39,2020-11-02 15:34:08,3,D7:F2:3B:06:4D:C8,64,64,-24933.113451353314,-8534.551000299287,-4634.930727123655
74536,-10262,30692,-26894,-3563,-11270,-27418,-9999,-14354,19445,64,-1,7322,2020-11-02 15:33:39,2020-11-02 15:34:08,3,D7:F2:3B:06:4D:C8,64,64,-39703.8914831759,11768.347558026591,7463.359889867426
74537,-10492,-11278,15604,-14067,-12558,23296,-20492,2541,-23820,64,-1,7373,2020-11-02 15:33:39,2020-11-02 15:34:08,3,D7:F2:3B:06:4D:C8,64,64,-3258.2802414091975,-16677.738476070335,-13856.291466054168
74538,-18926,24553,14570,-10231,32261,7664,-10505,-277,-3086,64,-1,7375,2020-11-02 15:33:39,2020-11-02 15:34:08,3,D7:F2:3B:06:4D:C8,64,64,-18926.0,25526.27476463149,-12788.432493489487
74539,-3823,-17434,-27157,-25859,-1282,8931,-30724,1771,23533,64,-1,7399,2020-11-02 15:33:39,2020-11-02 15:34:08,3,D7:F2:3B:06:4D:C8,64,64,18464.490945075166,-10896.101386910846,-24421.29977510199
74540,-3346,-21272,14835,31474,-3586,-25122,-9471,-20246,-2332,64,-1,7424,2020-11-02 15:33:39,2020-11-02 15:34:08,3,D7:F2:3B:06:4D:C8,64,64,-344.63205889781557,989.9114091980755,-26127.99703662566
74541,30465,2301,-19450,-23057,18168,10992,-13053,-25622,26591,64,1,7450,2020-11-02 15:33:39,2020-11-02 15:34:08,3,D7:F2:3B:06:4D:C8,64,64,-4062.1391041655424,23819.02204103774,-26979.00185156907
74542,-27904,-3074,-30712,-274,771,-27669,27909,-4630,22234,64,1,7476,2020-11-02 15:33:39,2020-11-02 15:34:08,3,D7:F2:3B:06:4D:C8,64,64,30621.238932504504,17083.309538688256,22401.113754539823
74543,512,-11773,19474,-32017,-19202,-14610,22278,-7701,-6443,64,1,7501,2020-11-02 15:33:39,2020-11-02 15:34:08,3,D7:F2:3B:06:4D:C8,64,64,17165.03776771046,-10247.727150163475,-10883.37795396613
74544,27373,4107,-227,-6671,-22787,9718,-27642,24556,-26158,64,1,7527,2020-11-02 15:33:39,2020-11-02 15:34:08,3,D7:F2:3B:06:4D:C8,64,64,15207.701387437799,-13763.625753086035,18587.32179846008
74545,28138,-9717,-29168,-8969,23031,9223,15365,-18709,20434,64,1,7552,2020-11-02 15:33:39,2020-11-02 15:34:08,3,D7:F2:3B:06:4D:C8,64,64,23725.538167875977,-34257.06195785742,701.3570133519261
74546,-13821,-13306,14350,14070,-18947,23050,-8191,-17174,-16428,64,1,7578,2020-11-02 15:33:39,2020-11-02 15:34:08,3,D7:F2:3B:06:4D:C8,64,64,9219.876680464895,8405.119741163175,-20453.36190296668
74547,7424,26618,-29151,29170,6143,-13807,10749,-15894,20440,64,1,7603,2020-11-02 15:33:39,2020-11-02 15:34:08,3,D7:F2:3B:06:4D:C8,64,64,3551.810535273831,-39811.12899586432,3984.1123222330616
74548,-29941,-19730,-22227,-17417,3578,12573,23542,-26389,-23330,64,1,7629,2020-11-02 15:33:39,2020-11-02 15:34:08,3,D7:F2:3B:06:4D:C8,64,64,-24395.166860334815,34250.13702014883,3402.9190348070406
74549,-24542,6633,-989,-17921,23799,26655,11248,18157,4582,64,1,7655,2020-11-02 15:33:39,2020-11-02 15:34:08,3,D7:F2:3B:06:4D:C8,64,64,25008.645193118173,4416.039998798381,-1533.2417727612378
74550,17967,1258,-10724,-8956,16378,15380,5101,16879,4075,64,1,7680,2020-11-02 15:33:39,2020-11-02 15:34:08,3,D7:F2:3B:06:4D:C8,64,64,-17228.21581752112,1258.0,-11874.588192645468
74551,11544,-14624,8481,-16893,-19714,-18422,30700,30192,8941,64,1,7706,2020-11-02 15:33:39,2020-11-02 15:34:08,3,D7:F2:3B:06:4D:C8,64,64,-10095.489600250054,-8348.475573482492,15730.121370485644
74552,17694,20448,16414,-14831,-5377,27138,-2835,-8464,1518,64,1,7731,2020-11-02 15:33:39,2020-11-02 15:34:08,3,D7:F2:3B:06:4D:C8,64,64,-4251.795744605948,20448.0,23757.509653710567
74553,28195,25830,14088,28942,27644,27643,15856,28912,19694,64,1,7757,2020-11-02 15:33:39,2020-11-02 15:34:08,3,D7:F2:3B:06:4D:C8,64,64,12138.271072871596,22067.13899399727,32036.26727602787
74554,18964,-28179,-14324,12554,14332,10743,28914,18415,-30483,64,1,7782,2020-11-02 15:33:39,2020-11-02 15:34:08,3,D7:F2:3B:06:4D:C8,64,64,16429.91226915534,-21059.931972281578,-25404.794058419975
74555,28176,-19215,-23283,-24306,-13570,-13069,29173,8430,-6677,64,1,7834,2020-11-02 15:33:39,2020-11-02 15:34:08,3,D7:F2:3B:06:4D:C8,64,64,-9773.882860056732,-36188.56283352716,-17322.252275086685
74556,-31473,8178,15867,-21233,27391,31218,-18951,22765,19433,64,1,7836,2020-11-02 15:33:39,2020-11-02 15:34:08,3,D7:F2:3B:06:4D:C8,64,64,-27663.88614241679,9859.605338642365,21135.010954944286
74557,-11254,-25614,8945,31498,-6402,29424,766,-21780,6374,64,1,7859,2020-11-02 15:33:39,2020-11-02 15:34:08,3,D7:F2:3B:06:4D:C8,64,64,26891.115127506622,-5526.363368516119,-10443.64745279673
74558,-23060,-5389,29159,8705,16637,-24333,20993,14572,-16670,64,1,7885,2020-11-02 15:33:39,2020-11-02 15:34:08,3,D7:F2:3B:06:4D:C8,64,64,8327.145039855535,15263.122894515156,33297.86685348082
74559,8453,-22795,22770,9209,-16900,19193,-6655,-22805,4833,64,1,7910,2020-11-02 15:33:39,2020-11-02 15:34:08,3,D7:F2:3B:06:4D:C8,64,64,-12811.43096834015,6844.103261811557,-29976.050792009202
74560,30473,31733,27388,-8202,10496,-1547,12034,-22805,-1058,64,1,7936,2020-11-02 15:33:39,2020-11-02 15:34:08,3,D7:F2:3B:06:4D:C8,64,64,-32631.616468032244,-38109.42549005224,-12982.251634497115
74561,18179,-5388,-15623,16120,-21759,-12816,23555,-2069,-10789,64,1,7961,2020-11-02 15:33:39,2020-11-02 15:34:08,3,D7:F2:3B:06:4D:C8,64,64,2836.5213670923204,-19782.525203190537,14289.526133471327
74562,14845,21749,15347,-14602,31489,-6673,-8700,-23572,11736,64,1,7987,2020-11-02 15:33:39,2020-11-02 15:34:08,3,D7:F2:3B:06:4D:C8,64,64,-15237.60287379381,-25975.391426088834,-4692.32713288632
74563,-29448,19703,-24596,24305,-512,-2574,23813,16365,2261,64,1,8013,2020-11-02 15:33:39,2020-11-02 15:34:08,3,D7:F2:3B:06:4D:C8,64,64,13314.695455412619,-31493.054436469545,26291.87205565971
74564,29170,9462,-13334,27878,-1798,-31495,-15869,15085,-7214,64,1,8038,2020-11-02 15:33:39,2020-11-02 15:34:08,3,D7:F2:3B:06:4D:C8,64,64,-21575.411388218923,3873.6266513142637,-25252.93131490563
74565,-20749,8686,-21000,-16935,20980,-27643,-30466,-14357,-2094,64,1,8064,2020-11-02 15:33:39,2020-11-02 15:34:08,3,D7:F2:3B:06:4D:C8,64,64,6477.49501008663,22601.29951085949,-19854.241758745797
74566,-14335,18667,23051,9943,24816,11535,-14092,14570,11735,64,1,8089,2020-11-02 15:33:39,2020-11-02 15:34:08,3,D7:F2:3B:06:4D:C8,64,64,-4425.182790891264,-22031.153087725004,24090.325151239136
74567,-30450,15856,-30189,15837,16626,8974,-26390,27626,-28196,64,-1,8115,2020-11-02 15:33:39,2020-11-02 15:34:08,3,D7:F2:3B:06:4D:C8,64,64,-6759.372072747305,-11271.321851705186,-43786.517901032465
74568,-25075,-14864,28181,-32282,29424,-10486,-2591,8939,-16671,64,-1,8141,2020-11-02 15:33:39,2020-11-02 15:34:08,3,D7:F2:3B:06:4D:C8,64,64,-17746.101623898758,-3057.777762667287,36326.14422572805
74569,27662,-19473,-32743,1777,-18191,30217,23516,29932,13029,64,-1,8166,2020-11-02 15:33:39,2020-11-02 15:34:08,3,D7:F2:3B:06:4D:C8,64,64,22114.682362962347,-19361.535845787497,36777.163779682196
74570,2323,10992,5910,-26117,-5898,-3834,28377,-7443,-31001,64,-1,8192,2020-11-02 15:33:39,2020-11-02 15:34:08,3,D7:F2:3B:06:4D:C8,64,64,5864.493302420307,10263.818028027914,-4627.121220953319
74571,7945,19687,32021,3844,505,-29948,-6440,-13586,-23576,64,-1,8217,2020-11-02 15:33:39,2020-11-02 15:34:08,3,D7:F2:3B:06:4D:C8,64,64,-25843.930807006775,-27573.0107379296,6918.508097029685
74572,-15863,-18204,-24565,26378,-6154,26376,20185,7408,2282,64,-1,8243,2020-11-02 15:33:39,2020-11-02 15:34:08,3,D7:F2:3B:06:4D:C8,64,64,9731.361084771255,21488.436406105146,25099.94665848066
74573,-20982,26081,29443,-4852,-10246,-5368,-31014,-22287,11499,64,-1,8269,2020-11-02 15:33:39,2020-11-02 15:34:08,3,D7:F2:3B:06:4D:C8,64,64,12260.589881974951,23277.579637922372,-35988.68372066691
74574,22285,994,30987,20748,4603,13578,7644,13555,-12053,64,-1,8294,2020-11-02 15:33:39,2020-11-02 15:34:08,3,D7:F2:3B:06:4D:C8,64,64,-26013.827234866254,4525.5534399437565,-27579.042562365066
74575,-6382,-20000,-14828,15887,-18699,30220,-24355,-12,10477,64,-1,8320,2020-11-02 15:33:39,2020-11-02 15:34:08,3,D7:F2:3B:06:4D:C8,64,64,-23891.52795610059,7756.23611892485,-5443.822295992926
74576,-14836,-19751,18198,-13548,-29972,-20981,26847,-23050,-10513,64,-1,8345,2020-11-02 15:33:39,2020-11-02 15:34:08,3,D7:F2:3B:06:4D:C8,64,64,28940.243950504006,4312.458715007122,9232.609648234644
74577,-32262,-12592,27417,-1764,29930,-6903,-3103,-16649,-23565,64,1,8371,2020-11-02 15:33:39,2020-11-02 15:34:08,3,D7:F2:3B:06:4D:C8,64,64,17049.48588000216,-475.9374187602443,-40745.25140186315
74578,-22002,-13114,-16633,17953,-5140,-11516,-25883,-4105,28151,64,1,8396,2020-11-02 15:33:39,2020-11-02 15:34:08,3,D7:F2:3B:06:4D:C8,64,64,30395.24000052004,2820.2143654047613,947.3464223562878
74579,17938,-28974,-18186,10521,20978,-8711,10217,-28426,-31495,64,1,8422,2020-11-02 15:33:39,2020-11-02 15:34:08,3,D7:F2:3B:06:4D:C8,64,64,-10332.045674608036,-36167.588105066694,8783.479882145302
74580,-17405,5851,21760,-16624,-11789,28404,-31765,8692,-29446,64,1,8448,2020-11-02 15:33:39,2020-11-02 15:34:08,3,D7:F2:3B:06:4D:C8,64,64,18562.578679098486,-4957.9307566003445,21012.268354345626
74581,-29437,-22049,11782,-21745,-26632,-12810,-22803,8690,-14598,64,1,8473,2020-11-02 15:33:39,2020-11-02 15:34:08,3,D7:F2:3B:06:4D:C8,64,64,30973.978218399887,11230.50276873057,20149.426167700767
74582,-5365,21989,28918,-754,24318,-15880,21232,-1040,11514,64,1,8499,2020-11-02 15:33:39,2020-11-02 15:34:08,3,D7:F2:3B:06:4D:C8,64,64,25737.832959264353,5878.954023039863,-25525.51515946326
74583,1562,22253,18671,28424,-2052,-15884,30706,-14353,17145,64,1,8524,2020-11-02 15:33:39,2020-11-02 15:34:08,3,D7:F2:3B:06:4D:C8,64,64,-27819.986838997364,2595.7969803132873,8096.435284432896
74584,24338,-31505,-4628,21761,-3073,12011,-2828,9198,29430,64,1,8550,2020-11-02 15:33:39,2020-11-02 15:34:08,3,D7:F2:3B:06:4D:C8,64,64,-27585.4597886134,-17812.14853401651,-22980.239899812335
74585,26625,6385,30960,-27397,-29699,17382,3064,20716,-21775,64,1,8576,2020-11-02 15:33:39,2020-11-02 15:34:08,3,D7:F2:3B:06:4D:C8,64,64,22670.466280375877,-3217.947233672977,-34407.487909343756
74586,5367,27379,-22030,-26382,7167,8171,-9222,-3094,15596,64,1,8627,2020-11-02 15:33:39,2020-11-02 15:34:08,3,D7:F2:3B:06:4D:C8,64,64,1171.5577805797002,6438.5314326230755,-34941.49389133052
74587,-26889,7923,8444,9714,-24318,-12312,24317,32234,-30490,64,1,8629,2020-11-02 15:33:39,2020-11-02 15:34:08,3,D7:F2:3B:06:4D:C8,64,64,-193.11538129084147,3618.52544311092,-29051.030378750216
74588,-32009,-20239,14338,26356,-30718,-5143,5888,-15638,-20512,64,1,8652,2020-11-02 15:33:39,2020-11-02 15:34:08,3,D7:F2:3B:06:4D:C8,64,64,-24790.070458352802,19698.951732180936,-25242.32860342146
74589,4603,-5392,-28677,-22024,-12287,4331,2051,25323,21723,64,1,8678,2020-11-02 15:33:39,2020-11-02 15:34:08,3,D7:F2:3B:06:4D:C8,64,64,-17746.103182611936,7976.151588296673,22228.10000140819
74590,-13573,-8463,-17939,2036,-11265,-7187,13317,-6421,-18474,64,1,8704,2020-11-02 15:33:39,2020-11-02 15:34:08,3,D7:F2:3B:06:4D:C8,64,64,9867.363621206172,-18627.671267303434,-11545.623297344106
74591,28923,18929,24299,-11800,-32001,20210,6917,24044,10963,64,1,8729,2020-11-02 15:33:39,2020-11-02 15:34:08,3,D7:F2:3B:06:4D:C8,64,64,-13496.638677142755,-39934.21963404771,2896.069342797671
74592,11512,-790,-16141,221,-18184,16887,28674,492,-29232,64,1,8755,2020-11-02 15:33:39,2020-11-02 15:34:08,3,D7:F2:3B:06:4D:C8,64,64,18322.63419326547,6585.04712847459,-3821.0411585780557
74593,-5896,-7960,29451,29910,-280,3841,-25604,-30743,4560,64,1,8780,2020-11-02 15:33:39,2020-11-02 15:34:08,3,D7:F2:3B:06:4D:C8,64,64,-25908.905606363558,-17085.58706723944,-1515.6324911808924
74594,15362,-18967,13067,3036,-9494,26122,17394,-13338,6613,64,1,8806,2020-11-02 15:33:39,2020-11-02 15:34:08,3,D7:F2:3B:06:4D:C8,64,64,-10032.318306557721,15715.771856152764,20465.86734935179
74595,-27644,13024,-3574,-25892,12783,9999,-12827,-10778,-7716,64,-1,8831,2020-11-02 15:33:39,2020-11-02 15:34:08,3,D7:F2:3B:06:4D:C8,64,64,-10657.28019786564,551.6664607377556,-28856.66007874574
74596,-4079,10459,11291,31199,26093,-16365,2011,26601,12003,64,-1,8857,2020-11-02 15:33:39,2020-11-02 15:34:08,3,D7:F2:3B:06:4D:C8,64,64,-7063.879185592979,-9698.098071870409,-10467.28750153208
74597,3352,-24599,36,-7439,-1047,-16367,-23340,4845,2023,64,-1,8883,2020-11-02 15:33:39,2020-11-02 15:34:08,3,D7:F2:3B:06:4D:C8,64,64,3352.0,16051.734539792906,-18640.115752430815
74598,17155,25824,-19949,23043,-28426,-10736,31955,13552,23016,64,-1,8908,2020-11-02 15:33:39,2020-11-02 15:34:08,3,D7:F2:3B:06:4D:C8,64,64,13814.381006075157,34053.79534642357,-2938.9627290747094
74599,11026,19668,-9963,26636,-1288,21266,11477,12275,4072,64,-1,8934,2020-11-02 15:33:39,2020-11-02 15:34:08,3,D7:F2:3B:06:4D:C8,64,64,15443.507978180412,874.5542822550706,-19193.68346970605
74600,-5093,7118,-3312,-17389,30194,4113,-24361,16886,-11544,64,-1,8959,2020-11-02 15:33:39,2020-11-02 15:34:08,3,D7:F2:3B:06:4D:C8,64,64,-5691.050601984904,-7278.085458014008,1488.3991774696347
74601,-14308,-17202,-29169,-28391,-18962,13065,-31526,-29192,3307,64,-1,8985,2020-11-02 15:33:39,2020-11-02 15:34:08,3,D7:F2:3B:06:4D:C8,64,64,-27810.76866296042,23091.305253310667,6694.101662936237
74602,15889,-24633,-13800,-2018,-22543,14080,18398,4857,25069,64,-1,9010,2020-11-02 15:33:39,2020-11-02 15:34:08,3,D7:F2:3B:06:4D:C8,64,64,9543.848980083128,-29237.847577806766,10185.687294547437
74603,-15604,7105,18195,25381,4587,-17155,-6430,27896,4336,64,-1,9036,2020-11-02 15:33:39,2020-11-02 15:34:08,3,D7:F2:3B:06:4D:C8,64,64,7284.139002563734,19149.41245177281,-14327.078827982286
74604,-3060,3273,-25849,-18909,29675,17402,24039,-20234,10995,64,-1,9062,2020-11-02 15:33:39,2020-11-02 15:34:08,3,D7:F2:3B:06:4D:C8,64,64,18798.938119740717,-10888.723285915607,-14706.548227674584
74605,26126,2518,20476,27166,-1806,-13067,-32021,24564,-15116,64,-1,9087,2020-11-02 15:33:39,2020-11-02 15:34:08,3,D7:F2:3B:06:4D:C8,64,64,-7508.231491283954,29060.551295576137,14397.41623592511
74606,128,25310,9422,-23286,14581,-16113,-16147,7411,5110,64,-1,9113,2020-11-02 15:33:39,2020-11-02 15:34:08,3,D7:F2:3B:06:4D:C8,64,64,-22596.07548154879,-1965.2760774566013,-14660.887789336855
74607,-18139,-23833,-26897,19725,-21783,3339,25067,14067,-13827,64,-1,9138,2020-11-02 15:33:39,2020-11-02 15:34:08,3,D7:F2:3B:06:4D:C8,64,64,-20963.250207140874,-34325.3868983408,1671.4586539971024
74608,-26588,-3606,-25106,18446,15866,-29456,29933,18418,-23043,64,-1,9164,2020-11-02 15:33:39,2020-11-02 15:34:08,3,D7:F2:3B:06:4D:C8,64,64,2126.751743301651,35934.11899776339,7379.175758642892
74609,-11248,-4374,31467,23813,4092,30944,-30736,-16914,-6662,64,-1,9190,2020-11-02 15:33:39,2020-11-02 15:34:08,3,D7:F2:3B:06:4D:C8,64,64,-26230.573670859758,-17292.06370151384,-12196.844134463072
74610,-15627,8931,509,21759,257,-4136,-267,28651,-17165,64,-1,9215,2020-11-02 15:33:39,2020-11-02 15:34:08,3,D7:F2:3B:06:4D:C8,64,64,10168.744558281502,757.9374230261415,-14840.725587760082
74611,8197,-17692,-2297,-14335,6145,-1572,10493,1258,-7958,64,-1,9241,2020-11-02 15:33:39,2020-11-02 15:34:08,3,D7:F2:3B:06:4D:C8,64,64,-1988.3423947244464,-11017.974651665012,-16128.379059800422
74612,31231,3302,-7681,-24058,-20991,6365,30725,-25366,-23583,64,-1,9266,2020-11-02 15:33:39,2020-11-02 15:34:08,3,D7:F2:3B:06:4D:C8,64,64,20852.957593706713,-14308.60062830963,-20141.857750828418
74613,4340,3819,-6416,-27131,-5126,-1313,-25844,21484,-9767,64,-1,9292,2020-11-02 15:33:39,2020-11-02 15:34:08,3,D7:F2:3B:06:4D:C8,64,64,204.04188986895497,4049.000842764016,-7625.573819882342
74614,-31244,3058,31475,3326,12284,-5657,-3824,15086,15572,64,-1,9317,2020-11-02 15:33:39,2020-11-02 15:34:08,3,D7:F2:3B:06:4D:C8,64,64,-20101.590156010112,36574.408038880385,15311.867123420294
74615,-30977,-5643,26361,-27910,23034,11242,-8686,8176,29392,64,-1,9343,2020-11-02 15:33:39,2020-11-02 15:34:08,3,D7:F2:3B:06:4D:C8,64,64,18132.65384090897,6152.560601426704,36327.30600707326
74616,6126,21751,1779,-18446,27127,-19223,-3821,2034,21452,64,-1,9369,2020-11-02 15:33:39,2020-11-02 15:34:08,3,D7:F2:3B:06:4D:C8,64,64,-9134.1953294845,-20668.82562418154,1779.0
74617,20191,-4610,-1037,-8214,27123,-3845,-7918,-26126,21961,64,-1,9394,2020-11-02 15:33:39,2020-11-02 15:34:08,3,D7:F2:3B:06:4D:C8,64,64,11053.67877941519,1821.7348202625221,-17449.96898811426
74618,-7445,13047,-26110,26590,-13580,18185,4623,-6672,19912,64,-1,9420,2020-11-02 15:33:39,2020-11-02 15:34:08,3,D7:F2:3B:06:4D:C8,64,64,-19609.83225089983,-10383.57396646934,-20372.04468811192
74619,20225,3317,-18415,8160,-27662,21267,-13816,3054,-3639,64,-1,9445,2020-11-02 15:33:39,2020-11-02 15:34:08,3,D7:F2:3B:06:4D:C8,64,64,20225.0,-18125.071171821797,4647.20443023484
74620,24586,-26387,4629,30943,-8971,18195,-19968,-15381,-3891,64,-1,9471,2020-11-02 15:33:39,2020-11-02 15:34:08,3,D7:F2:3B:06:4D:C8,64,64,-9450.352723864558,26776.17652510508,22713.432371417526
74621,-23036,5860,19988,31201,4851,-24811,13303,-24598,-20525,64,-1,9497,2020-11-02 15:33:39,2020-11-02 15:34:08,3,D7:F2:3B:06:4D:C8,64,64,-15575.858087550589,18601.74927985935,19387.74377192295
74622,29449,-5667,-20200,25830,11241,2590,-2581,6891,7900,64,1,9522,2020-11-02 15:33:39,2020-11-02 15:34:08,3,D7:F2:3B:06:4D:C8,64,64,4181.657965228567,-3976.026255186136,-35694.58561014417
74623,14103,6877,1548,-19985,-9236,-1504,-13598,15598,11236,64,1,9573,2020-11-02 15:33:39,2020-11-02 15:34:08,3,D7:F2:3B:06:4D:C8,64,64,-5335.959840837169,-11001.812681184236,-9953.476392954712
74624,11037,12757,19464,15859,6384,-19172,-7459,-32526,31208,64,1,9575,2020-11-02 15:33:39,2020-11-02 15:34:08,3,D7:F2:3B:06:4D:C8,64,64,23143.884137166344,3799.5739664091843,-10645.542669080141
74625,18213,24785,11284,28410,18415,-30187,14043,20982,10219,64,1,9599,2020-11-02 15:33:39,2020-11-02 15:34:08,3,D7:F2:3B:06:4D:C8,64,64,8931.317347022681,-24170.29681838521,-20232.809299697597
74626,-6622,-29737,-6389,1800,-27140,4358,20699,14328,28652,64,1,9624,2020-11-02 15:33:39,2020-11-02 15:34:08,3,D7:F2:3B:06:4D:C8,64,64,30425.468604477628,4108.063216689145,5135.56723309428
74627,-27893,-11047,-9727,1547,-16901,6400,-7204,19960,-13844,64,1,9650,2020-11-02 15:33:39,2020-11-02 15:34:08,3,D7:F2:3B:06:4D:C8,64,64,-24598.61884447967,-19737.631660859348,-63.51664547391374
74628,32267,-2338,-32250,10249,29684,11524,-7203,-21000,18926,64,1,9676,2020-11-02 15:33:39,2020-11-02 15:34:08,3,D7:F2:3B:06:4D:C8,64,64,33472.792349680094,23916.328059360167,19856.219616841958
74629,-23280,-1824,3586,522,-11276,-30206,-13346,7673,15344,64,1,9702,2020-11-02 15:33:39,2020-11-02 15:34:08,3,D7:F2:3B:06:4D:C8,64,64,1520.9881734731025,-12982.97274024386,19679.272999840206
74630,17438,-24597,19169,21509,2037,19968,30175,5113,-2063,64,1,9727,2020-11-02 15:33:39,2020-11-02 15:34:08,3,D7:F2:3B:06:4D:C8,64,64,17438.0,11404.380645178726,29024.180817033797
74631,-7444,-14361,-12269,3080,-3078,-17671,22239,-27657,24307,64,1,9752,2020-11-02 15:33:39,2020-11-02 15:34:08,3,D7:F2:3B:06:4D:C8,64,64,3883.6030449245154,-19903.144056072288,-980.9699652320514
74632,16661,-29190,-29745,-31482,-28936,9735,30432,12280,-6413,64,1,9778,2020-11-02 15:33:39,2020-11-02 15:34:08,3,D7:F2:3B:06:4D:C8,64,64,-25108.523991607795,-29011.920110259976,-23286.918226307844
74633,28716,18958,28153,1538,3564,1,-10018,19705,1271,64,1,9804,2020-11-02 15:33:39,2020-11-02 15:34:08,3,D7:F2:3B:06:4D:C8,64,64,-28533.26164740455,33932.983749944906,-3318.3463632851417
74634,-14313,23027,-5369,15110,15105,-19733,14815,15095,32759,64,1,9829,2020-11-02 15:33:39,2020-11-02 15:34:08,3,D7:F2:3B:06:4D:C8,64,64,3159.071661147374,-27250.392255123777,3371.5348406365147
74635,13861,30194,-15098,24583,28159,-15388,-25632,-24333,-9738,64,1,9855,2020-11-02 15:33:39,2020-11-02 15:34:08,3,D7:F2:3B:06:4D:C8,64,64,1491.345103319376,-17702.74704196742,-31877.001081515165
74636,23239,-4102,-13101,16643,3078,5346,-15646,-274,-7436,64,1,9880,2020-11-02 15:33:39,2020-11-02 15:34:08,3,D7:F2:3B:06:4D:C8,64,64,3968.3090358094396,-25069.09193353903,9181.877750443058
74637,-5143,28165,9728,-18944,11506,32757,5090,10477,22005,64,1,9906,2020-11-02 15:33:39,2020-11-02 15:34:08,3,D7:F2:3B:06:4D:C8,64,64,-9327.588887032283,-27120.09502423414,9583.746106352275
74638,-24042,-13578,-24572,-24564,32261,-26129,24291,23531,10741,64,-1,9932,2020-11-02 15:33:39,2020-11-02 15:34:08,3,D7:F2:3B:06:4D:C8,64,64,5901.382101700676,-8800.880488811039,-35410.18531314673
74639,30463,16622,2800,19985,2061,-24859,29162,-14360,-24337,64,-1,9957,2020-11-02 15:33:39,2020-11-02 15:34:08,3,D7:F2:3B:06:4D:C8,64,64,-6315.580851412134,-4008.87178352135,34002.46518316816
74640,19971,10986,7906,-1015,-1017,-10273,23284,-17946,-17690,64,-1,9983,2020-11-02 15:33:39,2020-11-02 15:34:08,3,D7:F2:3B:06:4D:C8,64,64,17520.73695440222,3707.2754023149682,16165.325813791529
74641,-521,1773,17635,1021,26891,10721,15615,-22810,2267,64,-1,10008,2020-11-02 15:33:39,2020-11-02 15:34:08,3,D7:F2:3B:06:4D:C8,64,64,1323.9190072884724,-16773.288463268982,5595.732980594055
74642,9705,28146,-5396,-9744,6917,3820,-21500,24552,6867,64,-1,10034,2020-11-02 15:33:39,2020-11-02 15:34:08,3,D7:F2:3B:06:4D:C8,64,64,20100.11214655129,-21677.033547507832,6449.253078944977
74643,-2325,28662,-12801,3560,30459,16891,11780,28392,-3889,64,-1,10059,2020-11-02 15:33:39,2020-11-02 15:34:08,3,D7:F2:3B:06:4D:C8,64,64,-22235.838558211144,-287.68426831864235,-22277.032822504265
74644,17116,26098,17716,21230,1274,24842,-17409,-18969,3537,64,-1,10085,2020-11-02 15:33:39,2020-11-02 15:34:08,3,D7:F2:3B:06:4D:C8,64,64,-13949.911159267764,-23336.742113489818,23424.69129309941
74645,-20978,-28174,30206,4846,24827,-3312,-31752,-21273,3799,64,-1,10111,2020-11-02 15:33:39,2020-11-02 15:34:08,3,D7:F2:3B:06:4D:C8,64,64,23371.505542457133,-36957.1650537157,15303.39425981408
74646,12309,25335,-3576,-12051,30977,23050,18930,-30488,-10534,64,-1,10136,2020-11-02 15:33:39,2020-11-02 15:34:08,3,D7:F2:3B:06:4D:C8,64,64,-15107.559503214994,-21958.52516356175,-9785.003857845115
74647,-29172,17644,-24051,-3354,2823,-12031,-4882,-17431,-7206,64,-1,10162,2020-11-02 15:33:39,2020-11-02 15:34:08,3,D7:F2:3B:06:4D:C8,64,64,32284.705466710537,-17624.65715930108,19693.556660614868
74648,32255,15333,-8937,25833,-26368,22534,-6678,31978,10459,64,-1,10187,2020-11-02 15:33:39,2020-11-02 15:34:08,3,D7:F2:3B:06:4D:C8,64,64,13487.000208019846,22419.205471151516,25900.500659855254
74649,-1531,31721,-15345,-11537,773,24589,-22553,23020,-15397,64,-1,10213,2020-11-02 15:33:39,2020-11-02 15:34:08,3,D7:F2:3B:06:4D:C8,64,64,-27566.108221470004,20433.285773631433,-8162.434502972455
74650,-8436,26849,-31471,31213,30465,6928,-23324,-13586,21980,64,-1,10239,2020-11-02 15:33:39,2020-11-02 15:34:08,3,D7:F2:3B:06:4D:C8,64,64,32449.295278344372,-10956.546238211942,-24687.164042650613
74651,11795,29405,28964,25073,31726,27414,2016,29681,20703,64,-1,10264,2020-11-02 15:33:39,2020-11-02 15:34:08,3,D7:F2:3B:06:4D:C8,64,64,20034.385207965868,-32558.077675038534,19526.503359408605
74652,17703,-19741,15389,-22013,-6405,-25842,31966,14836,24545,64,1,10290,2020-11-02 15:33:39,2020-11-02 15:34:08,3,D7:F2:3B:06:4D:C8,64,64,-2100.2248012027558,-16441.016919312504,-25791.59997835134
74653,-32497,-23585,-13050,-11252,26624,513,12000,-2572,23265,64,1,10315,2020-11-02 15:33:39,2020-11-02 15:34:08,3,D7:F2:3B:06:4D:C8,64,64,37649.80861939956,10422.062318893913,-16015.063594743497
74654,18941,21466,-14346,-8442,-17669,31239,31969,-32011,-13855,64,1,10341,2020-11-02 15:33:39,2020-11-02 15:34:08,3,D7:F2:3B:06:4D:C8,64,64,630.0813455971074,19802.064544764522,-25156.303191504718
74655,23049,-16677,-11019,19709,-13325,-21232,-20000,25591,-13341,64,1,10366,2020-11-02 15:33:39,2020-11-02 15:34:08,3,D7:F2:3B:06:4D:C8,64,64,24045.040929957606,16602.28972508848,8774.797636463463
74656,1817,-19746,20220,20986,-32266,-3828,7135,29945,4070,64,1,10392,2020-11-02 15:33:39,2020-11-02 15:34:08,3,D7:F2:3B:06:4D:C8,64,64,5972.434985517892,-27683.352644487954,128.1081757098268
74657,28432,-26914,10760,-4866,-16132,11523,20446,19194,-3354,64,1,10418,2020-11-02 15:33:39,2020-11-02 15:34:08,3,D7:F2:3B:06:4D:C8,64,64,-30186.71049620011,25126.206766780215,10293.486432283767
74658,-13813,25057,-11264,775,-6919,-3071,-14370,31226,-23577,64,1,10443,2020-11-02 15:33:39,2020-11-02 15:34:08,3,D7:F2:3B:06:4D:C8,64,64,6861.045834541784,23678.43943871732,-18378.995342600017
74659,20726,17661,4116,31489,13556,-3067,7903,-6406,3305,64,1,10469,2020-11-02 15:33:39,2020-11-02 15:34:08,3,D7:F2:3B:06:4D:C8,64,64,-3178.3131531137296,6078.784450467915,26671.44836909863
74660,-19417,-1287,30717,7686,3314,23803,-11553,-10758,-19989,64,1,10494,2020-11-02 15:33:39,2020-11-02 15:34:08,3,D7:F2:3B:06:4D:C8,64,64,4729.442643934264,-28080.062374078243,-22613.11160246664
74661,4628,-5129,277,12297,19693,-7186,16096,23032,8430,64,1,10520,2020-11-02 15:33:39,2020-11-02 15:34:08,3,D7:F2:3B:06:4D:C8,64,64,-1264.3850974945776,1515.0747190299196,6626.283492349995
74662,-2300,9202,11294,13591,-9995,-20758,18402,-5644,-11537,64,1,10545,2020-11-02 15:33:39,2020-11-02 15:34:08,3,D7:F2:3B:06:4D:C8,64,64,-8775.72762469435,6545.703434127234,-9882.388942438532
74663,-29228,32233,-20235,-9950,11765,10486,3303,12786,12016,64,1,10571,2020-11-02 15:33:39,2020-11-02 15:34:08,3,D7:F2:3B:06:4D:C8,64,64,-26714.086837293416,-19084.48865008157,34997.67642879245
74664,20754,-19476,-21773,-2275,-28951,6639,13802,-21265,-28686,64,1,10597,2020-11-02 15:33:39,2020-11-02 15:34:08,3,D7:F2:3B:06:4D:C8,64,64,-32238.8704456874,-10616.94843217795,11490.964249124503
74665,775,-30495,-9488,-16104,23291,-29982,29423,-22805,-5648,64,1,10622,2020-11-02 15:33:39,2020-11-02 15:34:08,3,D7:F2:3B:06:4D:C8,64,64,-4514.122780500775,-17748.551863704943,-26175.93162170049
74666,-26124,-22044,-14,9233,-27913,30954,-30986,-19736,-3349,64,1,10648,2020-11-02 15:33:39,2020-11-02 15:34:08,3,D7:F2:3B:06:4D:C8,64,64,28846.193466712684,-6239.624276506075,17244.295270292096
74667,3585,16870,-13591,15374,25857,30947,16895,-9498,-13084,64,1,10674,2020-11-02 15:33:39,2020-11-02 15:34:08,3,D7:F2:3B:06:4D:C8,64,64,11399.815748012148,12082.175061655666,14360.698196497282
74668,13818,17378,7398,-29946,-21502,-14881,6409,21480,23515,64,1,10699,2020-11-02 15:33:39,2020-11-02 15:34:08,3,D7:F2:3B:06:4D:C8,64,64,9618.740208215082,6295.962102545867,-20383.893396752563
74669,32213,-21528,-32310,14582,15871,15855,6158,8682,8149,64,-1,10725,2020-11-02 15:33:39,2020-11-02 15:34:08,3,D7:F2:3B:06:4D:C8,64,64,-19859.269036689282,-2137.135420139916,-46326.130191549324
74670,18176,8421,26596,-18982,21758,26602,13581,17899,1233,64,-1,10751,2020-11-02 15:33:39,2020-11-02 15:34:08,3,D7:F2:3B:06:4D:C8,64,64,-18475.414239739814,-27688.046874419317,811.5182992255668
74671,27629,-15651,778,-31541,-19470,-1801,7433,20715,973,64,-1,10776,2020-11-02 15:33:39,2020-11-02 15:34:08,3,D7:F2:3B:06:4D:C8,64,64,-29151.71324588183,-9110.935815322799,8722.91175003771
74672,12257,1769,17719,-7981,-5909,-6635,-27393,-20760,-2866,64,-1,10801,2020-11-02 15:33:39,2020-11-02 15:34:08,3,D7:F2:3B:06:4D:C8,64,64,-10688.827766701495,-14566.07897966891,11870.32750735373
74673,-24567,224,26634,479,-26387,16674,-17169,-25113,-8486,64,-1,10827,2020-11-02 15:33:39,2020-11-02 15:34:08,3,D7:F2:3B:06:4D:C8,64,64,24361.288581887675,6710.490111036304,25970.263034857257
74674,-7144,11215,17678,-7714,23276,-5851,8674,19179,-16156,64,-1,10853,2020-11-02 15:33:39,2020-11-02 15:34:08,3,D7:F2:3B:06:4D:C8,64,64,-12074.732424220185,-5198.860651639595,-17790.371828838186
74675,13612,8914,-3302,12775,10228,-13282,-20518,-28432,-5656,64,-1,10878,2020-11-02 15:33:39,2020-11-02 15:34:08,3,D7:F2:3B:06:4D:C8,64,64,-7375.458467146738,-9290.771381310053,-11616.080386241461
74676,-9182,-11558,-23522,-29705,-1787,-15605,-4392,21235,16104,64,-1,10904,2020-11-02 15:33:39,2020-11-02 15:34:08,3,D7:F2:3B:06:4D:C8,64,64,8108.206821536429,10057.095316961204,24582.367419041377
74677,-30699,12764,3599,-11007,7940,29703,-18983,19700,-19226,64,-1,10929,2020-11-02 15:33:39,2020-11-02 15:34:08,3,D7:F2:3B:06:4D:C8,64,64,-31049.76422994652,7824.938437225433,9642.79926776274
74678,-16363,-21029,2821,6658,19448,-9976,-807,-22795,4071,64,-1,10955,2020-11-02 15:33:39,2020-11-02 15:34:08,3,D7:F2:3B:06:4D:C8,64,64,15801.147679136204,-21029.0,-5101.915524793463
74679,17174,10710,31746,-12285,-5130,-17146,-7975,759,31976,64,-1,10980,2020-11-02 15:33:39,2020-11-02 15:34:08,3,D7:F2:3B:06:4D:C8,64,64,36036.62988234402,-7249.551392665477,8140.282754797394
74680,26390,27097,3329,5126,-18438,2562,22490,-19209,31465,64,-1,11006,2020-11-02 15:33:39,2020-11-02 15:34:08,3,D7:F2:3B:06:4D:C8,64,64,-33606.50426655739,17381.51150639649,3201.1995774812826
74681,-19694,1765,-13311,-20985,6651,32767,14299,-14857,11242,64,-1,11032,2020-11-02 15:33:39,2020-11-02 15:34:08,3,D7:F2:3B:06:4D:C8,64,64,-8648.651195615485,7572.741775666108,-20880.756607356456
74682,-22753,15079,-13798,-10494,-516,31992,32219,17655,3051,64,-1,11057,2020-11-02 15:33:39,2020-11-02 15:34:08,3,D7:F2:3B:06:4D:C8,64,64,19932.418110118466,-8953.895047201997,21400.619751939732
74683,4615,-2849,-26077,27423,-25085,31993,-1826,1014,-13846,64,-1,11083,2020-11-02 15:33:39,2020-11-02 15:34:08,3,D7:F2:3B:06:4D:C8,64,64,-4511.1060196914295,-3010.805287477712,-26077.0
74684,-13833,-22817,-11805,-14049,-14857,27651,27364,-5643,31466,64,-1,11108,2020-11-02 15:33:39,2020-11-02 15:34:08,3,D7:F2:3B:06:4D:C8,64,64,1810.5957263876571,14961.13709894072,24984.22547973594
74685,-6113,-19989,25588,-15852,18420,27646,-11802,26613,2541,64,-1,11134,2020-11-02 15:33:39,2020-11-02 15:34:08,3,D7:F2:3B:06:4D:C8,64,64,-1701.1686386075226,31585.461673356374,-9546.688962355161
74686,-1543,-22029,-1043,8976,-3594,8695,8425,-21517,-16659,64,-1,11160,2020-11-02 15:33:39,2020-11-02 15:34:08,3,D7:F2:3B:06:4D:C8,64,64,-11782.084870860986,747.9230304413634,18691.405143443983
74687,-31207,-19720,17154,-3572,-10250,-21521,-28694,29937,-28690,64,-1,11185,2020-11-02 15:33:39,2020-11-02 15:34:08,3,D7:F2:3B:06:4D:C8,64,64,22446.845897550964,-1827.4550175782806,-33908.914497670485
74688,24834,-4884,3591,-26348,7424,24034,16623,20718,30443,64,-1,11211,2020-11-02 15:33:39,2020-11-02 15:34:08,3,D7:F2:3B:06:4D:C8,64,64,-8393.752052347745,24029.098828714526,2371.4191876549917
74689,21235,28131,-26378,-13799,-7676,10465,-28169,17132,14053,64,1,11236,2020-11-02 15:33:39,2020-11-02 15:34:08,3,D7:F2:3B:06:4D:C8,64,64,-12335.30435556314,23167.71903615021,-35343.66040915441
74690,1002,-20505,-17185,2836,-8187,-17940,-26113,30700,19679,64,1,11262,2020-11-02 15:33:39,2020-11-02 15:34:08,3,D7:F2:3B:06:4D:C8,64,64,-8076.389404332391,-25524.307786788653,-254.75516651728776
74691,-9466,-19731,736,-30202,32259,-1807,-21757,-3860,11484,64,1,11287,2020-11-02 15:33:39,2020-11-02 15:34:08,3,D7:F2:3B:06:4D:C8,64,64,-13916.997041865252,-16779.45394222822,2055.804401531312
74692,-11523,19184,-15140,-21258,11267,-1808,-31227,2542,9689,64,1,11313,2020-11-02 15:33:39,2020-11-02 15:34:08,3,D7:F2:3B:06:4D:C8,64,64,-23021.570826668936,1088.1038311320408,14101.357797224404
74693,-13315,32241,-14608,27366,-3584,5874,32260,32238,15318,64,1,11339,2020-11-02 15:33:39,2020-11-02 15:34:08,3,D7:F2:3B:06:4D:C8,64,64,-7997.823648053985,29159.932697855933,-22713.390586857364
74694,10746,16117,13826,28896,24834,25076,-20735,1263,-22317,64,1,11364,2020-11-02 15:33:39,2020-11-02 15:34:08,3,D7:F2:3B:06:4D:C8,64,64,-12614.78635231841,12347.957309311465,-15962.067427898637
74695,-11273,-30475,-3828,-11298,-17152,22264,510,-30481,-15663,64,1,11390,2020-11-02 15:33:39,2020-11-02 15:34:08,3,D7:F2:3B:06:4D:C8,64,64,-24852.540386655928,18927.571435329515,9724.094502324331
74696,22010,-30477,16406,17887,-17932,-20992,2041,-26130,-31023,64,1,11415,2020-11-02 15:33:39,2020-11-02 15:34:08,3,D7:F2:3B:06:4D:C8,64,64,28666.15201688752,-10534.823190982825,-27380.900165615916
74697,512,-12558,11801,-798,-29198,-32761,-17934,23533,-14381,64,1,11441,2020-11-02 15:33:39,2020-11-02 15:34:08,3,D7:F2:3B:06:4D:C8,64,64,9836.966290624012,-12382.540005212224,6865.559424871781
74698,-19711,22765,18205,-3607,22006,14091,23532,12525,11479,64,1,11467,2020-11-02 15:33:39,2020-11-02 15:34:08,3,D7:F2:3B:06:4D:C8,64,64,8611.226747966542,-16166.309895995202,30044.766087319655
74699,30987,-18967,5133,-6416,-10506,17679,17895,20718,-25638,64,1,11492,2020-11-02 15:33:39,2020-11-02 15:34:08,3,D7:F2:3B:06:4D:C8,64,64,7104.978553711856,-35845.04373996886,3307.728228106572
74700,4615,-22040,26125,-17,-11531,12816,-6686,6384,-29987,64,1,11518,2020-11-02 15:33:39,2020-11-02 15:34:08,3,D7:F2:3B:06:4D:C8,64,64,-1157.9434082701846,31603.74231502293,13763.650996333527
74701,-3313,29928,-13540,17396,7155,2577,8671,26610,18144,64,1,11543,2020-11-02 15:33:39,2020-11-02 15:34:08,3,D7:F2:3B:06:4D:C8,64,64,7353.470736453665,-28890.52845565181,-14186.49310722325
74702,24335,-6686,-29153,32512,29168,28175,7133,-16396,3811,64,1,11569,2020-11-02 15:33:39,2020-11-02 15:34:08,3,D7:F2:3B:06:4D:C8,64,64,9311.579864814728,20918.942403070225,31023.935262281084
74703,14353,19419,-22768,-3573,8178,5643,28637,-19210,28645,64,1,11594,2020-11-02 15:33:39,2020-11-02 15:34:08,3,D7:F2:3B:06:4D:C8,64,64,-13341.54770423015,30333.14708509537,1841.5446694885431
74704,-5370,23508,16394,1039,18673,-1529,-12322,-4361,-16153,64,1,11620,2020-11-02 15:33:39,2020-11-02 15:34:08,3,D7:F2:3B:06:4D:C8,64,64,6894.168742627794,2750.4900083839275,-28198.075148171978
74705,-17909,-28974,16657,30226,-23827,-29176,30432,-2312,-24854,64,1,11646,2020-11-02 15:33:39,2020-11-02 15:34:08,3,D7:F2:3B:06:4D:C8,64,64,5837.8771267317625,-18621.911190966646,32508.832957350733
74706,16913,17875,18702,3095,10730,16900,-14366,16121,-275,64,1,11671,2020-11-02 15:33:39,2020-11-02 15:34:08,3,D7:F2:3B:06:4D:C8,64,64,-28894.591441614786,9567.055773213731,-5376.24657678378
74707,27662,-9514,30478,13336,-21271,20223,21733,21240,31729,64,1,11697,2020-11-02 15:33:39,2020-11-02 15:34:08,3,D7:F2:3B:06:4D:C8,64,64,-4122.2021213716425,31976.81309352763,27296.552860245167
74708,-2803,-21284,9739,-20712,-25363,-4871,232,32246,19956,64,1,11722,2020-11-02 15:33:39,2020-11-02 15:34:08,3,D7:F2:3B:06:4D:C8,64,64,13036.25014221002,19640.88045276214,74.72128234558295
74709,24587,12512,-11259,21786,-17419,-17166,25835,5108,21749,64,1,11774,2020-11-02 15:33:39,2020-11-02 15:34:08,3,D7:F2:3B:06:4D:C8,64,64,-21984.350284600754,20001.828333314224,-2109.7392939893907
74710,-22004,-3360,-29698,-24806,-20995,9198,4336,-16399,5364,64,1,11776,2020-11-02 15:33:39,2020-11-02 15:34:08,3,D7:F2:3B:06:4D:C8,64,64,36161.209973252415,-3360.0,-7649.451828095265
74711,-24561,22243,6131,26390,7167,-28950,-27659,-2833,4337,64,1,11799,2020-11-02 15:33:39,2020-11-02 15:34:08,3,D7:F2:3B:06:4D:C8,64,64,-24561.0,-19178.951157602227,12826.06886361944
74712,10503,14309,-6677,-9460,-24067,-4634,3835,26606,-22036,64,1,11825,2020-11-02 15:33:39,2020-11-02 15:34:08,3,D7:F2:3B:06:4D:C8,64,64,3813.2008006751994,-13910.086308293165,12313.075064725508
74713,-28162,-17175,2033,7428,-18692,29159,-12801,27629,28647,64,-1,11851,2020-11-02 15:33:39,2020-11-02 15:34:08,3,D7:F2:3B:06:4D:C8,64,64,2082.9062835795185,-11351.101237284764,-30968.144279480766
74714,2040,27882,-27658,-32766,-12799,10211,-30972,-23315,32481,64,-1,11876,2020-11-02 15:33:39,2020-11-02 15:34:08,3,D7:F2:3B:06:4D:C8,64,64,36693.96548658408,-2664.216923323729,-13891.988088637692
74715,18685,-28433,-22541,-32512,25343,-18968,18440,-7442,27100,64,-1,11901,2020-11-02 15:33:39,2020-11-02 15:34:08,3,D7:F2:3B:06:4D:C8,64,64,27178.340398242646,-16462.80416778511,25612.01450746131
74716,-18438,27377,240,-2054,-32001,17642,-22006,17136,12504,64,-1,11927,2020-11-02 15:33:39,2020-11-02 15:34:08,3,D7:F2:3B:06:4D:C8,64,64,22972.69313792506,14850.87588602796,18472.261052955164
74717,22003,-2828,-28176,-18445,-14596,-25615,18699,9457,-3884,64,-1,11953,2020-11-02 15:33:39,2020-11-02 15:34:08,3,D7:F2:3B:06:4D:C8,64,64,35024.46688601149,6775.896127480879,-3659.3059478915457
74718,-16130,-21000,-2058,-3604,1018,-20998,-7927,9201,4563,64,-1,11978,2020-11-02 15:33:39,2020-11-02 15:34:08,3,D7:F2:3B:06:4D:C8,64,64,5218.798537888274,-13078.095709965586,22519.76506142804
74719,-23813,8956,-4864,-24597,19708,26364,32519,-14864,-12591,64,-1,12004,2020-11-02 15:33:39,2020-11-02 15:34:08,3,D7:F2:3B:06:4D:C8,64,64,-9826.843828182937,-16368.728702471015,-17505.00677067577
74720,20729,-2566,-3585,18665,6910,27643,-13564,-30224,-11568,64,-1,12029,2020-11-02 15:33:39,2020-11-02 15:34:08,3,D7:F2:3B:06:4D:C8,64,64,-5966.572096807195,-7769.829968755042,-18792.492694430875
74721,-26634,-32263,-25083,-20506,4602,-21249,25089,240,21968,64,-1,12055,2020-11-02 15:33:39,2020-11-02 15:34:08,3,D7:F2:3B:06:4D:C8,64,64,26070.31403406111,-5843.145373917494,40812.06184824166
74722,-12561,18936,-1771,-22297,-19977,-21495,-15364,7151,28881,64,-1,12081,2020-11-02 15:33:39,2020-11-02 15:34:08,3,D7:F2:3B:06:4D:C8,64,64,-14959.85023450878,17114.8695322307,1664.7461835934578
74723,-13814,6902,-7673,10215,6898,-29169,29942,494,13013,64,-1,12106,2020-11-02 15:33:39,2020-11-02 15:34:08,3,D7:F2:3B:06:4D:C8,64,64,10658.849007693983,-10313.846083293045,-8795.035292784316
74724,27918,24549,-26105,-4385,-32522,-18166,19439,-17683,-3624,64,1,12132,2020-11-02 15:33:39,2020-11-02 15:34:08,3,D7:F2:3B:06:4D:C8,64,64,-31774.5711268428,-20619.3879886415,-25075.019814131243
74725,-31734,2013,-3814,-4385,11505,9229,18407,4334,-5412,64,1,12157,2020-11-02 15:33:39,2020-11-02 15:34:08,3,D7:F2:3B:06:4D:C8,64,64,-31734.0,-1454.6231849163632,4059.9059582586115
74726,-25071,26591,-4065,14060,-21508,4109,-20255,-20241,-30241,64,1,12183,2020-11-02 15:33:39,2020-11-02 15:34:08,3,D7:F2:3B:06:4D:C8,64,64,32823.310316347866,16133.71806963844,-3807.097073381981
74727,5144,11236,-22244,13814,-13312,24073,-15393,25329,-27169,64,1,12209,2020-11-02 15:33:39,2020-11-02 15:34:08,3,D7:F2:3B:06:4D:C8,64,64,20568.91035503543,14282.454287496545,4520.5524366041745
74728,-15081,-797,-27107,-2309,-8458,-3321,26078,-28686,-32544,64,1,12234,2020-11-02 15:33:39,2020-11-02 15:34:08,3,D7:F2:3B:06:4D:C8,64,64,22942.59322739682,7073.619247882936,19658.650659142033
74729,5404,-11039,-21226,-29435,-2318,12293,-30243,31987,-13086,64,1,12260,2020-11-02 15:33:39,2020-11-02 15:34:08,3,D7:F2:3B:06:4D:C8,64,64,8395.803455077013,-23041.1394939183,471.36839681411425
74730,13068,-30494,3599,-19701,1527,25087,13022,-27917,-28956,64,1,12285,2020-11-02 15:33:39,2020-11-02 15:34:08,3,D7:F2:3B:06:4D:C8,64,64,-17727.6738882702,-26729.247036821438,9213.381157626938
74731,-18941,5345,5129,26893,-6159,8195,8927,-21005,-22810,64,1,12311,2020-11-02 15:33:39,2020-11-02 15:34:08,3,D7:F2:3B:06:4D:C8,64,64,-17749.792621600034,-1087.7476600121026,-9869.083742593897
74732,1548,24032,29703,12558,-9745,-17659,-15649,16884,-31255,64,1,12336,2020-11-02 15:33:39,2020-11-02 15:34:08,3,D7:F2:3B:06:4D:C8,64,64,-25316.821258022544,-25625.17720383858,12830.05813163798
74733,-10486,24802,-5881,-13295,25326,-25852,-13344,-21260,-28948,64,1,12362,2020-11-02 15:33:39,2020-11-02 15:34:08,3,D7:F2:3B:06:4D:C8,64,64,18774.76988855117,8230.67264439756,18424.049621424652
74734,-27127,-20250,-26098,-19692,-12814,-27645,32226,-12812,16111,64,1,12388,2020-11-02 15:33:39,2020-11-02 15:34:08,3,D7:F2:3B:06:4D:C8,64,64,27827.994077899533,13135.367343866214,-29666.59911992073
74735,-25588,2274,-28144,-20968,-2321,3074,-11804,-27148,-10255,64,1,12413,2020-11-02 15:33:39,2020-11-02 15:34:08,3,D7:F2:3B:06:4D:C8,64,64,-9350.24503979904,-34554.034995385795,13061.130855839681
74736,-29939,-22054,-3066,-32229,14837,14334,-11033,-13581,-4877,64,-1,12439,2020-11-02 15:33:39,2020-11-02 15:34:08,3,D7:F2:3B:06:4D:C8,64,64,-2909.2286553699114,-14495.777093036966,-34256.85081994198
74737,-24305,3298,25076,-3305,22776,3835,8683,-23822,-1804,64,-1,12464,2020-11-02 15:33:39,2020-11-02 15:34:08,3,D7:F2:3B:06:4D:C8,64,64,28240.694670484896,-19318.809410289687,7724.142185210503
74738,-2800,-24848,-22295,26894,18680,-7179,-21779,-3088,14325,64,-1,12490,2020-11-02 15:33:39,2020-11-02 15:34:08,3,D7:F2:3B:06:4D:C8,64,64,-18342.00381912237,-11473.65708675149,25578.43267197851
74739,-12785,18677,11761,4870,25082,32237,-21777,-28946,7668,64,-1,12515,2020-11-02 15:33:39,2020-11-02 15:34:08,3,D7:F2:3B:06:4D:C8,64,64,4804.724132871187,-23667.01262888516,8209.43446476038
74740,9474,-32011,22778,-6911,-13318,-9242,-24078,-17685,-16912,64,-1,12541,2020-11-02 15:33:39,2020-11-02 15:34:08,3,D7:F2:3B:06:4D:C8,64,64,4957.113756891216,1975.6297587261415,40060.229545743685
74741,-28426,20469,-30205,-13057,5116,-18199,-21258,19177,-8725,64,-1,12567,2020-11-02 15:33:39,2020-11-02 15:34:08,3,D7:F2:3B:06:4D:C8,64,64,-3373.8035113695964,-40139.988775830185,-22732.316488710458
74742,-30215,20978,-751,-12533,-9981,26087,23293,25064,12005,64,-1,12592,2020-11-02 15:33:39,2020-11-02 15:34:08,3,D7:F2:3B:06:4D:C8,64,64,-79.08370137371901,34488.80034196821,-12810.273484201265
74743,-25605,-22804,-12800,28182,-24315,-28952,1030,-23063,25566,64,-1,12618,2020-11-02 15:33:39,2020-11-02 15:34:08,3,D7:F2:3B:06:4D:C8,64,64,-21865.96714177758,9570.630394153088,27744.566239413733
74744,5878,-14354,-16918,-2028,-19201,-2068,22541,16363,-25383,64,-1,12643,2020-11-02 15:33:39,2020-11-02 15:34:08,3,D7:F2:3B:06:4D:C8,64,64,-19713.130877270458,-2568.4851817132403,-11471.80364576231
74745,-11790,29427,16603,14597,-22019,20470,-24303,17900,-22314,64,-1,12669,2020-11-02 15:33:39,2020-11-02 15:34:08,3,D7:F2:3B:06:4D:C8,64,64,-17637.995390184926,29607.182589544333,-9639.911603598744
74746,-20238,27893,-22295,9459,-28420,-19969,-19695,17132,25557,64,-1,12695,2020-11-02 15:33:39,2020-11-02 15:34:08,3,D7:F2:3B:06:4D:C8,64,64,-39563.34173754765,1252.2045829701165,10855.279463947876
74747,-28415,29424,-15124,11239,18431,-3580,29966,32491,-17963,64,1,12720,2020-11-02 15:33:39,2020-11-02 15:34:08,3,D7:F2:3B:06:4D:C8,64,64,-23747.549444145603,2833.395430377197,-36468.412945081356
74748,16134,8684,-6156,-10786,-6658,31748,-7160,-790,-7978,64,1,12746,2020-11-02 15:33:39,2020-11-02 15:34:08,3,D7:F2:3B:06:4D:C8,64,64,8306.506867261574,-13840.01991294774,-10633.435026996041
74749,-31258,745,-13058,8666,25599,4617,7938,-28950,19928,64,1,12771,2020-11-02 15:33:39,2020-11-02 15:34:08,3,D7:F2:3B:06:4D:C8,64,64,13273.190199696297,-13397.64300335668,28150.569032921765
74750,5634,-31522,23034,-13103,2044,19978,-12040,29930,-20005,64,1,12799,2020-11-02 15:33:39,2020-11-02 15:34:08,3,D7:F2:3B:06:4D:C8,64,64,21335.403134704924,-31365.57636087211,10814.101378751899
74751,-24056,10193,-6378,-16693,8696,-9717,-5395,-16406,27359,64,1,12822,2020-11-02 15:33:39,2020-11-02 15:34:08,3,D7:F2:3B:06:4D:C8,64,64,-2620.2317410713367,-18627.88457086227,-19219.874376220923
74752,7167,-8752,-29631,28891,29426,16148,-24093,19948,-25373,64,1,12848,2020-11-02 15:33:39,2020-11-02 15:34:08,3,D7:F2:3B:06:4D:C8,64,64,-17838.39328447289,-22405.731029615836,-13628.444374064948
74753,9760,7384,26919,28920,21508,29208,-12065,3824,25061,64,1,12874,2020-11-02 15:33:39,2020-11-02 15:34:08,3,D7:F2:3B:06:4D:C8,64,64,9819.454499558029,-21377.339390792982,-17916.50889269336
74754,31521,-22049,-31993,13053,21769,-9716,20960,-6926,1764,64,1,12899,2020-11-02 15:33:39,2020-11-02 15:34:08,3,D7:F2:3B:06:4D:C8,64,64,-7002.615122443738,26343.196975402552,41955.72959158337
74755,-496,-7970,-759,-2318,-17149,-26103,-29985,32244,-1054,64,1,12925,2020-11-02 15:33:39,2020-11-02 15:34:08,3,D7:F2:3B:06:4D:C8,64,64,7394.459610962418,-1532.9640936725912,-2704.6229218425415
74756,-31985,-18722,-17123,-16909,-24845,-21233,-6948,30966,17636,64,1,12950,2020-11-02 15:33:39,2020-11-02 15:34:08,3,D7:F2:3B:06:4D:C8,64,64,18615.902881304064,22118.320243708942,-28826.70129429641
74757,-15603,-24610,-6374,19201,-8203,25360,-14629,249,-795,64,1,12976,2020-11-02 15:33:39,2020-11-02 15:34:08,3,D7:F2:3B:06:4D:C8,64,64,-15603.0,4445.51184883828,25030.32961033151
74758,-31198,2009,7693,-23797,-26120,29446,-9252,-14086,11751,64,-1,13001,2020-11-02 15:33:39,2020-11-02 15:34:08,3,D7:F2:3B:06:4D:C8,64,64,-11342.955776501338,6620.780550477183,-29394.49188461604
74759,22801,-29478,31240,31503,15864,2816,-8482,-9734,16872,64,-1,13027,2020-11-02 15:33:39,2020-11-02 15:34:08,3,D7:F2:3B:06:4D:C8,64,64,49.19985814388201,-25003.817363512127,41708.30111172221
74760,-10988,32482,-19963,-7413,-1552,-4098,-30496,-31750,2026,64,-1,13053,2020-11-02 15:33:39,2020-11-02 15:34:08,3,D7:F2:3B:06:4D:C8,64,64,21321.333891518487,28356.920403316748,17765.79925942943
74761,-2549,27878,20245,6159,1772,-31494,-10527,22009,-8980,64,-1,13078,2020-11-02 15:33:39,2020-11-02 15:34:08,3,D7:F2:3B:06:4D:C8,64,64,27418.46462258575,16705.990784246293,12754.527810024627
74762,27393,7909,12051,8727,-4626,19192,11236,-26633,13551,64,-1,13104,2020-11-02 15:33:39,2020-11-02 15:34:08,3,D7:F2:3B:06:4D:C8,64,64,8639.7209327688,-4778.986495129853,-29337.20915975552
74763,-9214,-29472,23822,22299,9973,-13065,32487,-16907,-8720,64,-1,13130,2020-11-02 15:33:39,2020-11-02 15:34:08,3,D7:F2:3B:06:4D:C8,64,64,-2945.5016150238753,31393.455296376284,-22951.236323786914
74764,-18425,-11047,-3838,-16353,13817,-11531,-5397,-5901,16625,64,-1,13155,2020-11-02 15:33:39,2020-11-02 15:34:08,3,D7:F2:3B:06:4D:C8,64,64,12843.806031885206,-1518.3096925207778,-17577.78314500741
74765,10769,-18461,13549,6426,24826,-14861,-30992,11762,-23056,64,-1,13181,2020-11-02 15:33:39,2020-11-02 15:34:08,3,D7:F2:3B:06:4D:C8,64,64,24962.563865321485,-1013.6686080343352,-4024.6943017863796
74766,-15854,29678,-12056,29967,-23557,-8983,-18444,-14097,-27666,64,-1,13206,2020-11-02 15:33:39,2020-11-02 15:34:08,3,D7:F2:3B:06:4D:C8,64,64,23815.311089431416,19978.552311132156,-17639.969990477897
74767,-17918,-3868,18669,2055,5119,26848,-16647,-3603,25833,64,-1,13232,2020-11-02 15:33:39,2020-11-02 15:34:08,3,D7:F2:3B:06:4D:C8,64,64,25777.41023508549,1412.2049597856221,-4251.882844536865
74768,21755,-18717,-1807,-22012,24068,16859,-6401,28397,-10527,64,-1,13257,2020-11-02 15:33:39,2020-11-02 15:34:08,3,D7:F2:3B:06:4D:C8,64,64,-23513.166600631957,15088.351536470438,6807.643301673206
74769,10229,2277,28911,-9725,27911,2267,-3067,9455,9434,64,-1,13283,2020-11-02 15:33:39,2020-11-02 15:34:08,3,D7:F2:3B:06:4D:C8,64,64,14214.436525550704,26351.980635668922,7013.273261353814
74770,2295,-21528,9714,14336,28928,3039,5898,-28943,4308,64,-1,13308,2020-11-02 15:33:39,2020-11-02 15:34:08,3,D7:F2:3B:06:4D:C8,64,64,-11687.177390379562,-19805.67718715322,-5850.524831506938
74771,2037,10223,16115,-16138,13817,-18459,14348,1011,-12594,64,-1,13334,2020-11-02 15:33:39,2020-11-02 15:34:08,3,D7:F2:3B:06:4D:C8,64,64,-18040.320535921557,6016.097879455367,2589.5413234817443
74772,-23049,-11279,4087,-17679,-773,-11284,15628,7156,5067,64,-1,13360,2020-11-02 15:33:39,2020-11-02 15:34:08,3,D7:F2:3B:06:4D:C8,64,64,-22514.692607460936,977.4215859786577,12934.800919797985
74773,-29476,19957,-27651,-29717,20473,21238,-16630,-25612,29640,64,-1,13385,2020-11-02 15:33:39,2020-11-02 15:34:08,3,D7:F2:3B:06:4D:C8,64,64,-28034.30564908798,-23144.60542271661,26647.686064652422
74774,-28168,11258,9728,-25368,-5646,29440,-15097,27379,30151,64,-1,13411,2020-11-02 15:33:39,2020-11-02 15:34:08,3,D7:F2:3B:06:4D:C8,64,64,12279.184666460216,-26842.294664667894,-11980.217571568122
74775,-5634,30970,-27394,-27164,-17929,10496,6148,-20751,1735,64,-1,13436,2020-11-02 15:33:39,2020-11-02 15:34:08,3,D7:F2:3B:06:4D:C8,64,64,3988.7030977050485,39784.41857056381,-11941.707524493138
74776,-11275,-12046,27148,27103,-2061,-2303,25855,25840,455,64,-1,13462,2020-11-02 15:33:39,2020-11-02 15:34:08,3,D7:F2:3B:06:4D:C8,64,64,13900.03396127373,28419.465199542705,-2892.870312927638
74777,-23301,24811,13592,-4896,10473,-18162,31992,-1299,-17463,64,-1,13488,2020-11-02 15:33:39,2020-11-02 15:34:08,3,D7:F2:3B:06:4D:C8,64,64,25900.325334698387,-16582.5368991552,-19936.33375385096
74778,24079,10727,15638,22504,2283,18965,-30481,-17684,14032,64,-1,13513,2020-11-02 15:33:39,2020-11-02 15:34:08,3,D7:F2:3B:06:4D:C8,64,64,21653.373786463548,-18590.89831512253,-11176.927909782164
74779,16151,12003,-22770,-9749,24304,-26605,-12569,-22803,16086,64,-1,13539,2020-11-02 15:33:39,2020-11-02 15:34:08,3,D7:F2:3B:06:4D:C8,64,64,29938.121927431694,-3659.6321561572404,3703.4656660827277
74780,-28395,-14366,-23272,-8211,-273,-2543,-16927,-30481,-20774,64,-1,13564,2020-11-02 15:33:39,2020-11-02 15:34:08,3,D7:F2:3B:06:4D:C8,64,64,-15763.485173017289,13089.251840878434,33681.27055866694
74781,-12267,24546,-10984,18170,23792,-23791,-8995,-3599,19678,64,1,13590,2020-11-02 15:33:39,2020-11-02 15:34:08,3,D7:F2:3B:06:4D:C8,64,64,11577.000000746326,-5710.436650314794,-26589.427320750274
74782,-26343,-31268,1555,5,20214,-20977,3549,27636,22496,64,1,13615,2020-11-02 15:33:39,2020-11-02 15:34:08,3,D7:F2:3B:06:4D:C8,64,64,-11469.02418161711,33218.947515135966,-20952.863964339667
74783,-4301,-14632,-22550,30212,-22282,-12281,20445,12534,1506,64,1,13641,2020-11-02 15:33:39,2020-11-02 15:34:08,3,D7:F2:3B:06:4D:C8,64,64,20211.72497364283,17667.826392007722,-4520.023138402944
74784,-18922,5344,-18164,-3323,-25100,21764,16093,-8714,-13341,64,1,13667,2020-11-02 15:33:39,2020-11-02 15:34:08,3,D7:F2:3B:06:4D:C8,64,64,21599.275043156096,12850.212910563507,-9212.744529361551
74785,-17390,25312,26636,21771,8436,20736,990,3831,-28187,64,1,13692,2020-11-02 15:33:39,2020-11-02 15:34:08,3,D7:F2:3B:06:4D:C8,64,64,-7789.322194416067,-29705.822724704616,26636.0
74786,-16886,-27419,-22003,18183,-26890,-28930,-7714,-16394,16615,64,1,13743,2020-11-02 15:33:39,2020-11-02 15:34:08,3,D7:F2:3B:06:4D:C8,64,64,31614.130189388234,11012.429672199849,-20008.591431764104
74787,235,31200,20750,4110,24303,16388,-19489,-18186,-24855,64,1,13745,2020-11-02 15:33:39,2020-11-02 15:34:08,3,D7:F2:3B:06:4D:C8,64,64,19010.899750883375,20763.65304268173,24728.81169779486
74788,-23802,11488,-12032,-11752,-32279,-25336,-31519,-11017,15597,64,1,13769,2020-11-02 15:33:39,2020-11-02 15:34:08,3,D7:F2:3B:06:4D:C8,64,64,-5440.226774954583,-23668.818278805396,-15920.720647067294
74789,20525,-13583,-18711,-24570,-21777,29962,30178,15353,18672,64,1,13795,2020-11-02 15:33:39,2020-11-02 15:34:08,3,D7:F2:3B:06:4D:C8,64,64,4584.460868851961,21362.239093961365,-21874.92844409768
74790,-19183,-19474,30461,-2816,-11259,14833,-14366,-15881,-26128,64,1,13820,2020-11-02 15:33:39,2020-11-02 15:34:08,3,D7:F2:3B:06:4D:C8,64,64,-29322.7085714104,-20822.74340785703,-19536.85760317359
74791,-1005,-12563,27924,-17399,4615,-32027,26340,-11788,-25618,64,1,13846,2020-11-02 15:33:39,2020-11-02 15:34:08,3,D7:F2:3B:06:4D:C8,64,64,-27678.92724028168,-12846.75045692602,2725.208161712433
74792,5893,31455,27918,20505,12818,9439,-3863,26609,-5399,64,1,13871,2020-11-02 15:33:39,2020-11-02 15:34:08,3,D7:F2:3B:06:4D:C8,64,64,-24980.333921756006,31455.0,-13788.585502420696
74793,3598,-7710,6392,12319,16658,-16923,-21262,-32528,15075,64,1,13897,2020-11-02 15:33:39,2020-11-02 15:34:08,3,D7:F2:3B:06:4D:C8,64,64,-6094.433872632043,-7192.721268290676,-4936.598477574835
74794,17941,17385,7662,-26856,6407,27621,18170,21744,-14371,64,1,13922,2020-11-02 15:33:39,2020-11-02 15:34:08,3,D7:F2:3B:06:4D:C8,64,64,-8940.3683506573,24421.25285235882,2548.759085461311
74795,31245,7916,-529,-2545,-29436,26848,-9216,31216,-5417,64,1,13948,2020-11-02 15:33:39,2020-11-02 15:34:08,3,D7:F2:3B:06:4D:C8,64,64,15524.58009002139,3831.8949022888173,27991.014924191735
74796,1543,26092,-4110,-15093,25860,32479,30726,-7439,-2607,64,1,13974,2020-11-02 15:33:39,2020-11-02 15:34:08,3,D7:F2:3B:06:4D:C8,64,64,22868.532974440895,3460.134974241,-12850.022511923615
74797,15619,-6165,5617,-31481,-27136,11744,-17398,-5133,-18740,64,1,13999,2020-11-02 15:33:39,2020-11-02 15:34:08,3,D7:F2:3B:06:4D:C8,64,64,-14489.532781261722,-9031.116741178503,-4690.783003715621
74798,-2304,-26133,-8209,-24317,29955,-12320,-32499,-23562,21960,64,1,14025,2020-11-02 15:33:39,2020-11-02 15:34:08,3,D7:F2:3B:06:4D:C8,64,64,18964.312491762696,-3166.801183294134,19645.763105063135
74799,-27395,30190,9713,11262,16899,16356,-19698,-9991,-1852,64,1,14050,2020-11-02 15:33:39,2020-11-02 15:34:08,3,D7:F2:3B:06:4D:C8,64,64,-3125.1534381587053,-28517.174834081954,-30549.44597648814
74800,-29703,-5136,9466,-22792,5630,23784,31502,12540,-9279,64,1,14076,2020-11-02 15:33:39,2020-11-02 15:34:08,3,D7:F2:3B:06:4D:C8,64,64,16829.67309402251,-12106.913707298449,23841.90858619259
74801,23292,18678,18949,-14345,-18431,3051,-30451,12542,12479,64,-1,14102,2020-11-02 15:33:39,2020-11-02 15:34:08,3,D7:F2:3B:06:4D:C8,64,64,6927.104615383792,15796.384355415394,-30869.710266594928
74802,15356,30458,11538,-16901,-763,-31765,-30196,28416,-8516,64,-1,14127,2020-11-02 15:33:39,2020-11-02 15:34:08,3,D7:F2:3B:06:4D:C8,64,64,-20744.233520740752,27820.32393773782,-9608.761399697025
74803,13052,-16132,4884,17155,6151,28908,22028,-1278,-10566,64,-1,14153,2020-11-02 15:33:39,2020-11-02 15:34:08,3,D7:F2:3B:06:4D:C8,64,64,19910.820520819838,-2726.3420870038753,-7111.6713234183535
74804,27388,22011,-32758,775,-7164,6126,-10740,16901,-32443,64,-1,14178,2020-11-02 15:33:39,2020-11-02 15:34:08,3,D7:F2:3B:06:4D:C8,64,64,2452.980263596837,-46957.581336013725,-9830.649617296898
74805,-22276,28412,2566,5635,13315,1518,269,17927,31043,64,-1,14204,2020-11-02 15:33:39,2020-11-02 15:34:08,3,D7:F2:3B:06:4D:C8,64,64,33603.297365551945,-13435.056725408014,603.2685532648593
74806,-28679,-13574,15369,30716,21756,-15378,-3573,-19704,-704,64,-1,14229,2020-11-02 15:33:39,2020-11-02 15:34:08,3,D7:F2:3B:06:4D:C8,64,64,26223.121406132075,-13574.0,-19262.375391401176
74807,-22799,29171,-3573,-6157,4588,26354,24585,3080,-17603,64,-1,14255,2020-11-02 15:33:39,2020-11-02 15:34:08,3,D7:F2:3B:06:4D:C8,64,64,19498.445608739996,24771.010149691356,-19741.21693328189
74808,11249,-23827,-19441,17385,-6939,-16392,-25339,1029,-7366,64,-1,14281,2020-11-02 15:33:39,2020-11-02 15:34:08,3,D7:F2:3B:06:4D:C8,64,64,31563.79853793115,6898.625427146331,-5324.847422492525
74809,28144,18665,-10980,10466,24799,-5632,769,-9984,-12999,64,-1,14306,2020-11-02 15:33:39,2020-11-02 15:34:08,3,D7:F2:3B:06:4D:C8,64,64,6799.069245369662,-29995.71962134012,17749.840078001267
74810,-7179,-29208,7975,15076,17366,31500,17404,8443,25403,64,-1,14332,2020-11-02 15:33:39,2020-11-02 15:34:08,3,D7:F2:3B:06:4D:C8,64,64,30176.746326054985,-7576.654462032855,-451.90522887476527
74811,25597,-1572,16165,23531,-12848,-21481,-15626,32245,30528,64,-1,14357,2020-11-02 15:33:39,2020-11-02 15:34:08,3,D7:F2:3B:06:4D:C8,64,64,18222.986742774734,-7478.926418611507,23042.856415766924
74812,-16365,-22318,12069,13294,7903,-9438,-31761,10483,19132,64,-1,14383,2020-11-02 15:33:39,2020-11-02 15:34:08,3,D7:F2:3B:06:4D:C8,64,64,26256.543711697614,14342.236041804248,4057.2512415284073
74813,-15867,220,-26594,-29188,-13093,-15580,-23319,-23820,-22076,64,-1,14409,2020-11-02 15:33:39,2020-11-02 15:34:08,3,D7:F2:3B:06:4D:C8,64,64,-20596.21358259912,-23120.520477688115,537.0697354754557
74814,-16619,-3112,-999,7948,9681,1318,20710,-12554,19150,64,-1,14434,2020-11-02 15:33:39,2020-11-02 15:34:08,3,D7:F2:3B:06:4D:C8,64,64,-6806.436398465672,-2284.1700172749843,-15340.426880821266
74815,-4559,6099,29979,-12263,29422,10003,-1562,-29192,13781,64,-1,14460,2020-11-02 15:33:39,2020-11-02 15:34:08,3,D7:F2:3B:06:4D:C8,64,64,-16970.85628129335,22426.11291976331,12875.644426191308
74816,-1245,-27690,-16619,-5342,-9470,20482,-15381,17913,-22827,64,1,14485,2020-11-02 15:33:39,2020-11-02 15:34:08,3,D7:F2:3B:06:4D:C8,64,64,-6210.451275064763,2739.504701041851,-31597.51089805993
74817,8731,24798,13576,4131,14592,21495,13809,-21512,17621,64,1,14511,2020-11-02 15:33:39,2020-11-02 15:34:08,3,D7:F2:3B:06:4D:C8,64,64,14116.441812578681,20881.08627883558,-15497.911064653348
74818,20247,13031,-4862,-8672,-510,5618,-14346,-2057,31699,64,1,14536,2020-11-02 15:33:39,2020-11-02 15:34:08,3,D7:F2:3B:06:4D:C8,64,64,-3696.1634669366495,-22207.657444422803,-9825.748849673251
74819,-23789,-18203,12538,-4063,10504,-20246,-9988,-4105,27600,64,1,14562,2020-11-02 15:33:39,2020-11-02 15:34:08,3,D7:F2:3B:06:4D:C8,64,64,16090.82376609195,17536.06227930518,22091.606647432876
74820,11269,23781,-19479,-5601,29963,-15639,-5118,30201,-11060,64,1,14588,2020-11-02 15:33:39,2020-11-02 15:34:08,3,D7:F2:3B:06:4D:C8,64,64,31830.39113585206,-5558.64845159283,5280.661940540723
74821,-19712,-6680,-798,-21482,-29436,-1044,-32249,8443,5578,64,1,14613,2020-11-02 15:33:39,2020-11-02 15:34:08,3,D7:F2:3B:06:4D:C8,64,64,-16231.054916215948,-1129.641827713167,13003.803814571447
74822,-13818,13038,-6940,-24307,23555,4083,28938,-24836,11720,64,1,14639,2020-11-02 15:33:39,2020-11-02 15:34:08,3,D7:F2:3B:06:4D:C8,64,64,3487.2552868915914,-515.2156597923658,19916.419642796027
74823,-30457,23790,-9754,24577,-5891,-29709,-26101,29949,30150,64,1,14664,2020-11-02 15:33:39,2020-11-02 15:34:08,3,D7:F2:3B:06:4D:C8,64,64,-16915.1188518352,28385.834585515833,-22290.280709583323
74824,-27903,7408,7407,-520,-1289,20469,12811,-22787,-30780,64,1,14690,2020-11-02 15:33:39,2020-11-02 15:34:08,3,D7:F2:3B:06:4D:C8,64,64,17104.259256702786,23209.676626419572,-7554.783132329476
74825,3075,-14607,-11789,13554,-21009,4600,-18679,25596,26306,64,1,14716,2020-11-02 15:33:39,2020-11-02 15:34:08,3,D7:F2:3B:06:4D:C8,64,64,17791.826310914512,1021.5687938301671,-6648.9028208962745
74826,4867,-22541,-16136,-31763,26864,-12041,-30201,-32518,19392,64,1,14741,2020-11-02 15:33:39,2020-11-02 15:34:08,3,D7:F2:3B:06:4D:C8,64,64,22217.044758705702,-12337.914025405456,-12096.845278475319
74827,3329,-11017,32518,27627,-3602,-22793,-5116,-31240,22206,64,1,14767,2020-11-02 15:33:39,2020-11-02 15:34:08,3,D7:F2:3B:06:4D:C8,64,64,-30250.384681519918,15440.454935326119,6031.868036539603
74828,16641,-20486,-16121,-7956,-12313,-9991,-27134,26613,-25412,64,1,14792,2020-11-02 15:33:39,2020-11-02 15:34:08,3,D7:F2:3B:06:4D:C8,64,64,-14714.240168397611,-22114.776472183752,15840.249867096862
74829,4357,15352,15625,-18709,10733,7676,5632,7922,-30021,64,1,14819,2020-11-02 15:33:39,2020-11-02 15:34:08,3,D7:F2:3B:06:4D:C8,64,64,-10324.051208297977,19220.103922539085,4775.9344483816785
74830,3601,-10253,-4080,-4630,16379,5114,23549,23024,-12870,64,1,14844,2020-11-02 15:33:39,2020-11-02 15:34:08,3,D7:F2:3B:06:4D:C8,64,64,7549.45258990691,7811.290786343203,-4089.879196741346
74831,-10224,14837,31782,-13587,6397,-12555,18427,-7441,-12731,64,1,14869,2020-11-02 15:33:39,2020-11-02 15:34:08,3,D7:F2:3B:06:4D:C8,64,64,-25420.388638106102,-9470.45336693964,-24471.95585792578
74832,17931,22260,32537,1782,4090,-13835,-29190,-13586,-1725,64,1,14895,2020-11-02 15:33:39,2020-11-02 15:34:08,3,D7:F2:3B:06:4D:C8,64,64,-35263.85313426542,-24886.198876303122,3580.8515208045587
74833,18687,23027,32516,-4620,8449,-13576,14330,17134,18498,64,1,14920,2020-11-02 15:33:39,2020-11-02 15:34:08,3,D7:F2:3B:06:4D:C8,64,64,6555.736739927994,38610.57820692245,-20074.42453281995
74834,-22020,-22806,-22015,-1813,28420,-24830,1016,-6418,-11711,64,-1,14946,2020-11-02 15:33:39,2020-11-02 15:34:08,3,D7:F2:3B:06:4D:C8,64,64,-23495.461492777744,3464.251547595257,-30423.946349156977
74835,11783,-15137,11285,1763,-4349,-5882,25075,-5137,-21694,64,-1,14972,2020-11-02 15:33:39,2020-11-02 15:34:08,3,D7:F2:3B:06:4D:C8,64,64,-9063.57380205652,-19913.051183979056,4079.3511100302485
74836,-3577,-280,-6343,15338,27405,-11515,24815,-15119,-28350,64,-1,14997,2020-11-02 15:33:39,2020-11-02 15:34:08,3,D7:F2:3B:06:4D:C8,64,64,5111.6426281417835,1145.6917713154853,-5066.110737765583
74837,29438,-31255,31811,-18689,20493,7945,-11282,28916,19009,64,-1,15023,2020-11-02 15:33:39,2020-11-02 15:34:08,3,D7:F2:3B:06:4D:C8,64,64,31622.843966043358,-14488.494581962668,40564.63797752562
74838,28926,18138,18735,-18161,16634,10517,-18193,26870,10307,64,-1,15048,2020-11-02 15:33:39,2020-11-02 15:34:08,3,D7:F2:3B:06:4D:C8,64,64,11300.210039429356,-10741.767375205289,35687.81909449995
74839,20749,-21548,12069,28438,-13577,-1253,9457,3832,-13638,64,-1,15074,2020-11-02 15:33:39,2020-11-02 15:34:08,3,D7:F2:3B:06:4D:C8,64,64,-28455.630054170622,-9795.782225070225,-11611.108251117977
74840,-13292,-14372,14376,795,4605,-3048,-21517,-12295,-16706,64,-1,15099,2020-11-02 15:33:39,2020-11-02 15:34:08,3,D7:F2:3B:06:4D:C8,64,64,7862.4930839653,-21885.468943830732,-7007.743974576873
74841,-22764,-8995,31002,7713,22013,-10733,30455,-8198,3522,64,-1,15125,2020-11-02 15:33:39,2020-11-02 15:34:08,3,D7:F2:3B:06:4D:C8,64,64,-26957.545582013096,27177.029004864897,-9743.385226009403
74842,-30182,-21018,1542,27934,-16888,-9714,-11269,17404,25284,64,-1,15150,2020-11-02 15:33:39,2020-11-02 15:34:08,3,D7:F2:3B:06:4D:C8,64,64,-28851.408378322518,-18016.3805961123,-14074.568441102889
74843,8736,-14354,-9224,-14570,-27129,-24823,26879,-25603,4038,64,-1,15176,2020-11-02 15:33:39,2020-11-02 15:34:08,3,D7:F2:3B:06:4D:C8,64,64,7073.94330420694,2401.654317155956,-17653.004579100747
74844,5155,1011,18658,-31730,18693,-23553,1538,15870,-17722,64,-1,15202,2020-11-02 15:33:39,2020-11-02 15:34:08,3,D7:F2:3B:06:4D:C8,64,64,-14529.446571050164,-3092.342242718602,-12451.895911582971
74845,-23270,14834,-18722,23549,-28408,7412,-19198,13567,-17467,64,-1,15227,2020-11-02 15:33:39,2020-11-02 15:34:08,3,D7:F2:3B:06:4D:C8,64,64,-26832.48562597904,13677.878311363067,14317.370569737026
74846,-23800,-4112,2552,4083,-31741,30701,9217,16384,20675,64,-1,15253,2020-11-02 15:33:39,2020-11-02 15:34:08,3,D7:F2:3B:06:4D:C8,64,64,-7315.041164132264,5456.057214118604,22507.39568327075
74847,-27138,-21769,27905,19699,17397,-27154,4351,-25857,-32064,64,-1,15278,2020-11-02 15:33:39,2020-11-02 15:34:08,3,D7:F2:3B:06:4D:C8,64,64,31897.127820526825,31086.026305325944,2298.1808774674646
74848,-4365,-3335,1280,7923,-3089,-2320,13821,4861,18110,64,-1,15304,2020-11-02 15:33:39,2020-11-02 15:34:08,3,D7:F2:3B:06:4D:C8,64,64,4289.713563886473,-837.6966584149109,-3565.174869243991
74849,14837,-9734,-9,10740,-25107,23290,-31237,29690,13245,64,-1,15330,2020-11-02 15:33:39,2020-11-02 15:34:08,3,D7:F2:3B:06:4D:C8,64,64,-2974.4099885934756,13113.54614409408,11579.084538359268
74850,-19204,-32518,-9989,-30735,16104,-13568,10489,11767,-7747,64,-1,15355,2020-11-02 15:33:39,2020-11-02 15:34:08,3,D7:F2:3B:06:4D:C8,64,64,-19488.25305889634,13390.101615532496,31095.1319733191
74851,-20478,1021,-27134,8690,13291,9730,8694,756,-22337,64,-1,15381,2020-11-02 15:33:39,2020-11-02 15:34:08,3,D7:F2:3B:06:4D:C8,64,64,23573.03388074528,-20260.250147044913,-13801.420891937243
74852,3334,12285,-22527,-5131,26352,3070,-32269,-24079,14017,64,-1,15406,2020-11-02 15:33:39,2020-11-02 15:34:08,3,D7:F2:3B:06:4D:C8,64,64,-23601.816646046223,-8711.843082051608,-6046.532156544359
74853,28418,21239,16896,31475,-28941,20220,11249,-20241,8642,64,-1,15432,2020-11-02 15:33:39,2020-11-02 15:34:08,3,D7:F2:3B:06:4D:C8,64,64,-14952.082169435682,-28361.449186123184,-22720.38951825862
74854,-3577,4341,4355,-7183,20981,20220,12526,-5395,26051,64,-1,15457,2020-11-02 15:33:39,2020-11-02 15:34:08,3,D7:F2:3B:06:4D:C8,64,64,-2026.006030017808,6476.307818406589,2134.9406566874786
74855,2829,-3599,-14843,-17167,-2311,24570,-28181,-23316,-2109,64,-1,15483,2020-11-02 15:33:39,2020-11-02 15:34:08,3,D7:F2:3B:06:4D:C8,64,64,3432.0371130536696,13585.682829343717,-6702.315593516729
74856,20498,-29200,21768,-3855,-24583,7927,22249,16875,3268,64,-1,15509,2020-11-02 15:33:39,2020-11-02 15:34:08,3,D7:F2:3B:06:4D:C8,64,64,-31872.625617537808,25835.880565285817,-7955.931099535703
74857,-14064,11249,-22515,-6158,-5129,-10253,-8474,15337,-31548,64,-1,15534,2020-11-02 15:33:39,2020-11-02 15:34:08,3,D7:F2:3B:06:4D:C8,64,64,8420.233116481144,-16898.595922100063,21789.87040176461
74858,-25588,-9998,19216,32759,25855,-1549,-15643,20711,-3389,64,-1,15560,2020-11-02 15:33:39,2020-11-02 15:34:08,3,D7:F2:3B:06:4D:C8,64,64,25486.380755987197,21633.69542568063,2527.4536968519433
74859,15632,30452,-22769,-22275,15615,31224,-21018,5094,10946,64,-1,15585,2020-11-02 15:33:39,2020-11-02 15:34:08,3,D7:F2:3B:06:4D:C8,64,64,36517.82520078796,-4870.833617882972,18243.752669656464
74860,-23530,29428,2062,-14334,23036,-20484,-29978,17893,29378,64,-1,15611,2020-11-02 15:33:39,2020-11-02 15:34:08,3,D7:F2:3B:06:4D:C8,64,64,13869.460638963554,-24428.541761443117,-25195.323712817626
74861,-29927,5362,-10743,-25338,-16637,-7939,25832,3557,24513,64,-1,15637,2020-11-02 15:33:39,2020-11-02 15:34:08,3,D7:F2:3B:06:4D:C8,64,64,10756.06975078506,30254.08050817697,2964.118439096672
74862,23071,-30992,-17399,27909,25349,6657,1771,31461,-29761,64,-1,15662,2020-11-02 15:33:39,2020-11-02 15:34:08,3,D7:F2:3B:06:4D:C8,64,64,36308.083150880644,13483.299839988615,17187.903575878594
74863,-8146,-25874,-26360,-9467,12300,22782,7662,27878,6077,64,-1,15688,2020-11-02 15:33:39,2020-11-02 15:34:08,3,D7:F2:3B:06:4D:C8,64,64,10702.09115232566,31846.787052496085,17375.793259597693
74864,-30680,-1298,12548,27396,-26351,-20744,15859,-15129,-7100,64,1,15713,2020-11-02 15:33:39,2020-11-02 15:34:08,3,D7:F2:3B:06:4D:C8,64,64,897.0180858620524,-21514.84471529953,-25233.040312855366
74865,-24812,32751,-520,22270,-32761,-30725,18934,-13848,-27327,64,1,15739,2020-11-02 15:33:39,2020-11-02 15:34:08,3,D7:F2:3B:06:4D:C8,64,64,20786.28304645691,25424.788743868456,-24699.074870169483
74866,-6611,-17413,7987,16377,-25336,31491,29429,-6935,13121,64,1,15764,2020-11-02 15:33:39,2020-11-02 15:34:08,3,D7:F2:3B:06:4D:C8,64,64,5654.102952553739,-18889.437865851563,4682.981519721826
74867,-17123,22773,-13775,-13556,9484,-32268,-8968,-29973,4414,64,1,15790,2020-11-02 15:33:39,2020-11-02 15:34:08,3,D7:F2:3B:06:4D:C8,64,64,-30369.79108987319,713.0415958063732,8872.690901868997
74868,-27638,-32532,27151,4628,29937,-8974,9214,-27414,1339,64,1,15816,2020-11-02 15:33:39,2020-11-02 15:34:08,3,D7:F2:3B:06:4D:C8,64,64,8450.237156253532,-40423.89332302152,29221.040529249607
74869,13059,26356,14871,-25325,-23565,-7186,-22012,23272,-25034,64,1,15841,2020-11-02 15:33:39,2020-11-02 15:34:08,3,D7:F2:3B:06:4D:C8,64,64,14615.265619567539,19785.670198967175,21937.277033560684
74870,-16661,4601,-18158,-19684,-5125,4341,-22260,26088,-13007,64,1,15868,2020-11-02 15:33:39,2020-11-02 15:34:08,3,D7:F2:3B:06:4D:C8,64,64,-5546.853171642129,4983.032634493544,-23934.763246287104
74871,-29462,-28946,-24312,11810,17660,-14074,11538,1256,3377,64,1,15892,2020-11-02 15:33:39,2020-11-02 15:34:08,3,D7:F2:3B:06:4D:C8,64,64,-29462.0,34152.62537167956,-16203.161426762055
74872,-16390,-19227,5118,3621,11518,24334,-14059,12774,7219,64,1,15944,2020-11-02 15:33:39,2020-11-02 15:34:08,3,D7:F2:3B:06:4D:C8,64,64,579.331479970263,24324.401256532783,8514.19001124017
74873,-1794,-28699,20727,2596,-7931,29710,21783,23012,29751,64,1,15946,2020-11-02 15:33:39,2020-11-02 15:34:08,3,D7:F2:3B:06:4D:C8,64,64,30047.048897944045,-11725.370838266761,14702.043981354527
74874,-5633,13287,30696,18461,-24821,24332,-2796,15075,9023,64,1,15969,2020-11-02 15:33:39,2020-11-02 15:34:08,3,D7:F2:3B:06:4D:C8,64,64,5166.734005589458,32638.499892368643,-7651.9708893420175
74875,30208,-19221,6123,18964,5398,18699,6926,-24605,26045,64,1,15995,2020-11-02 15:33:39,2020-11-02 15:34:08,3,D7:F2:3B:06:4D:C8,64,64,7511.930667357938,32468.03710356282,-14451.944446699044
74876,-30457,31725,-24078,-32499,803,-6646,3591,-4378,-27449,64,-1,16020,2020-11-02 15:33:39,2020-11-02 15:34:08,3,D7:F2:3B:06:4D:C8,64,64,-4101.535403000995,-43786.77747149166,-24078.0
74877,-10743,-31250,3063,-17658,32024,19214,25091,-5142,31181,64,-1,16046,2020-11-02 15:33:39,2020-11-02 15:34:08,3,D7:F2:3B:06:4D:C8,64,64,18762.821588607825,16753.463648550034,21647.96756766751
74878,19985,5361,-12299,-24575,30726,-28398,13312,-25364,8914,64,-1,16072,2020-11-02 15:33:39,2020-11-02 15:34:08,3,D7:F2:3B:06:4D:C8,64,64,-10505.130923856192,208.62949601066975,-21656.515070667177
74879,20509,11765,-26128,-25093,-28410,-16370,-7428,21485,8150,64,-1,16097,2020-11-02 15:33:39,2020-11-02 15:34:08,3,D7:F2:3B:06:4D:C8,64,64,350.2042637305967,-28381.538204242166,20882.34508226524
74880,2854,-14601,13303,18163,-16369,-22016,-22790,14063,9431,64,-1,16123,2020-11-02 15:33:39,2020-11-02 15:34:08,3,D7:F2:3B:06:4D:C8,64,64,-19842.76710565765,-675.3864709898498,2027.9972153418912
74881,5661,-21769,-9973,-29457,8457,25077,-29703,-18192,9173,64,-1,16148,2020-11-02 15:33:39,2020-11-02 15:34:08,3,D7:F2:3B:06:4D:C8,64,64,-4071.852595398718,-70.3978812659825,24265.450162312212
74882,-4588,14332,17182,21747,-22275,6644,-18184,19184,-9774,64,-1,16174,2020-11-02 15:33:39,2020-11-02 15:34:08,3,D7:F2:3B:06:4D:C8,64,64,-8896.02408168963,-7917.979048830631,19489.57298968547
