id,accelerationx,accelerationy,accelerationz,angularvelocityx,angularvelocityy,angularvelocityz,pitch,roll,yaw,mdlcircle_id,hallsensor,timestamp,starttime,endtime,train_mode,blemac,training_id,training_handle_id,accelerationWorldx,accelerationWorldy,accelerationWorldz
96712,-27918,11009,-23817,-15873,22272,4095,-21827,-6892,-7923,83,1,8602,2020-11-02 15:59:23,2020-11-02 15:59:52,1,D7:F2:3B:06:4D:C8,83,83,-30162.949488376566,20583.59563316959,-11591.99564233036
96713,-8464,12540,-32521,-18433,-30720,10495,-14659,-12524,4622,83,1,8627,2020-11-02 15:59:23,2020-11-02 15:59:52,1,D7:F2:3B:06:4D:C8,83,83,1584.625352395291,-34789.74294809916,-8583.0696780191
96714,-4110,19708,30966,-14849,-13824,14335,-8771,-20204,15118,83,1,8653,2020-11-02 15:59:23,2020-11-02 15:59:52,1,D7:F2:3B:06:4D:C8,83,83,-35060.60319171731,-11593.869448720965,-725.8202525121724
96715,-16655,-11013,-25866,-18945,-15104,-1026,-2371,-29932,26638,83,1,8679,2020-11-02 15:59:23,2020-11-02 15:59:52,1,D7:F2:3B:06:4D:C8,83,83,10966.076539053664,29545.387535455164,8633.677705322762
96716,24565,29696,-15371,32511,-6656,23038,8126,23572,-20466,83,1,8704,2020-11-02 15:59:23,2020-11-02 15:59:52,1,D7:F2:3B:06:4D:C8,83,83,32485.229180007875,-24641.350376495506,7685.897393613168
96717,-25346,-11009,-29714,27391,-17405,21501,25022,-3821,7951,83,1,8730,2020-11-02 15:59:23,2020-11-02 15:59:52,1,D7:F2:3B:06:4D:C8,83,83,-827.0083873626863,-29590.04637221092,27754.005221186344
96718,-5376,-27391,-12053,3070,25611,-26373,30398,-27630,-30705,83,1,8755,2020-11-02 15:59:23,2020-11-02 15:59:52,1,D7:F2:3B:06:4D:C8,83,83,24435.281160886658,14467.487275941749,-10865.16969535594
96719,16393,-1537,-4897,-3078,-28657,-31499,29630,-753,23312,83,1,8781,2020-11-02 15:59:23,2020-11-02 15:59:52,1,D7:F2:3B:06:4D:C8,83,83,-14598.969914876541,-9051.86820396758,84.7728879438248
96720,-13309,30465,-23843,3062,-11512,-5143,-11586,28173,3603,83,1,8806,2020-11-02 15:59:23,2020-11-02 15:59:52,1,D7:F2:3B:06:4D:C8,83,83,22154.95611705599,-34358.29192321342,1549.2096599785355
96721,8945,-18698,-7462,-21009,20992,12772,4543,-10485,32279,83,1,8832,2020-11-02 15:59:23,2020-11-02 15:59:52,1,D7:F2:3B:06:4D:C8,83,83,-14777.894688706418,-15959.54020868546,3495.222152718575
96722,12260,-2826,-13347,28903,-14086,4072,6078,28939,4636,83,1,8858,2020-11-02 15:59:23,2020-11-02 15:59:52,1,D7:F2:3B:06:4D:C8,83,83,12673.218224764396,9704.218917847631,9036.258076327153
96723,11992,9463,29165,5348,-26890,10224,-15429,18188,-24289,83,1,8883,2020-11-02 15:59:23,2020-11-02 15:59:52,1,D7:F2:3B:06:4D:C8,83,83,-7416.556516980179,-25960.31372273301,18841.721228372917
96724,12747,-5646,-25346,14568,30454,29692,26693,-755,23073,83,1,8909,2020-11-02 15:59:23,2020-11-02 15:59:52,1,D7:F2:3B:06:4D:C8,83,83,-20055.958833387213,478.9222472096699,20840.15810291767
96725,13009,21231,26119,30194,-27141,-18678,7746,8463,19488,83,1,8934,2020-11-02 15:59:23,2020-11-02 15:59:52,1,D7:F2:3B:06:4D:C8,83,83,-32114.466543031107,15191.242585519905,6330.781181214696
96726,31449,1266,1268,-9736,4347,20242,-7618,22799,11293,83,1,8960,2020-11-02 15:59:23,2020-11-02 15:59:52,1,D7:F2:3B:06:4D:C8,83,83,-18324.331618989265,-25297.662617689533,-4061.689032762607
96727,-3876,7662,25583,-4617,-4620,-17645,17211,32271,4889,83,1,8986,2020-11-02 15:59:23,2020-11-02 15:59:52,1,D7:F2:3B:06:4D:C8,83,83,22150.331514776924,-11195.595675148197,-10594.383430104988
96728,20960,-28690,-6161,18679,29682,-18668,7735,-29169,30484,83,-1,9011,2020-11-02 15:59:23,2020-11-02 15:59:52,1,D7:F2:3B:06:4D:C8,83,83,-15678.957540413481,16632.32820848198,-27891.424664424114
96729,9703,17138,-31759,-7432,-17166,19222,2099,-14066,-18673,83,-1,9037,2020-11-02 15:59:23,2020-11-02 15:59:52,1,D7:F2:3B:06:4D:C8,83,83,-22173.39809494617,-20471.98356297555,22039.320314390287
96730,24046,-30991,25586,-11526,-15627,28184,-16593,2573,30475,83,-1,9062,2020-11-02 15:59:23,2020-11-02 15:59:52,1,D7:F2:3B:06:4D:C8,83,83,41497.64738581081,-12800.475465354715,17532.503594859518
96731,6646,21493,23800,-16388,6394,1048,-24531,26890,19208,83,-1,9113,2020-11-02 15:59:23,2020-11-02 15:59:52,1,D7:F2:3B:06:4D:C8,83,83,9356.424016792585,31051.02635065281,4566.1205841558185
96732,6900,-16652,-27654,26623,26112,-20198,-27348,13063,7174,83,-1,9115,2020-11-02 15:59:23,2020-11-02 15:59:52,1,D7:F2:3B:06:4D:C8,83,83,-25632.075219973223,18960.574646049194,-8551.967551928108
96733,1276,14582,5370,-26624,16641,10011,20012,19971,-25084,83,-1,9139,2020-11-02 15:59:23,2020-11-02 15:59:52,1,D7:F2:3B:06:4D:C8,83,83,12625.0389788725,8627.367951190154,3045.7696920034737
96734,-31490,30453,24057,-8191,-32256,-9448,32044,-20737,9987,83,-1,9165,2020-11-02 15:59:23,2020-11-02 15:59:52,1,D7:F2:3B:06:4D:C8,83,83,-8130.5726022561685,46021.57829931336,17710.24217789274
96735,-20991,-7693,31742,-19453,19200,8470,6957,28156,-16895,83,-1,9190,2020-11-02 15:59:23,2020-11-02 15:59:52,1,D7:F2:3B:06:4D:C8,83,83,-30414.069054531494,7716.2256834025175,-22864.889213573486
96736,6409,-19214,-16130,-32249,-23296,27411,24366,-29447,22016,83,-1,9216,2020-11-02 15:59:23,2020-11-02 15:59:52,1,D7:F2:3B:06:4D:C8,83,83,-25662.84545795769,3302.7085428801693,969.7712522892243
96737,19470,16628,-773,521,13311,6926,14896,20215,-3074,83,-1,9241,2020-11-02 15:59:23,2020-11-02 15:59:52,1,D7:F2:3B:06:4D:C8,83,83,-17096.05225123517,-6216.802687169632,-18034.55502006737
96738,9486,2038,-10759,-2551,27899,8454,19250,18422,-23299,83,-1,9267,2020-11-02 15:59:23,2020-11-02 15:59:52,1,D7:F2:3B:06:4D:C8,83,83,5507.248520709929,-5612.545987294288,-12168.12484615625
96739,22795,20469,-27654,-32502,-1547,-31233,29236,-12298,24572,83,-1,9293,2020-11-02 15:59:23,2020-11-02 15:59:52,1,D7:F2:3B:06:4D:C8,83,83,-25802.768984937684,1811.706908526361,32160.07669125706
96740,15114,19445,19962,7436,4341,7933,-24778,9976,27131,83,-1,9318,2020-11-02 15:59:23,2020-11-02 15:59:52,1,D7:F2:3B:06:4D:C8,83,83,-27307.441291956355,10940.291743923555,-11816.77331779683
96741,-29428,-11530,3832,2062,-32266,-3078,-8136,-19207,-6406,83,-1,9344,2020-11-02 15:59:23,2020-11-02 15:59:52,1,D7:F2:3B:06:4D:C8,83,83,12314.503632687563,-24740.71668196088,-15807.664164685038
96742,18694,-11273,-22540,5904,20471,-14855,17979,19707,-2822,83,-1,9369,2020-11-02 15:59:23,2020-11-02 15:59:52,1,D7:F2:3B:06:4D:C8,83,83,-15582.407246042047,14341.030395846228,-23154.29110562254
96743,22016,13557,22516,-28652,12798,-16385,11582,11772,4091,83,-1,9395,2020-11-02 15:59:23,2020-11-02 15:59:52,1,D7:F2:3B:06:4D:C8,83,83,-6472.747961574549,-26115.443525476658,-21249.79774712154
96744,6407,30962,-23572,18456,-3835,14599,-6847,-32517,31994,83,-1,9420,2020-11-02 15:59:23,2020-11-02 15:59:52,1,D7:F2:3B:06:4D:C8,83,83,-13014.37456094502,33044.53715301924,-17146.979212973878
96745,-31219,17135,5859,5658,-17147,32264,14406,24570,15609,83,1,9446,2020-11-02 15:59:23,2020-11-02 15:59:52,1,D7:F2:3B:06:4D:C8,83,83,6975.465673049027,14695.477998424774,-32217.198389089146
96746,-27374,-21781,30437,28956,-17916,18440,14014,-17927,-12553,83,1,9472,2020-11-02 15:59:23,2020-11-02 15:59:52,1,D7:F2:3B:06:4D:C8,83,83,-30108.572009059233,-21063.37174758353,28283.68908396489
96747,6680,9449,11742,6686,-9728,-22269,6851,31225,-17418,83,1,9497,2020-11-02 15:59:23,2020-11-02 15:59:52,1,D7:F2:3B:06:4D:C8,83,83,11021.133928365878,6394.531621203894,10460.647077425281
96748,16412,-8983,28631,-25061,-30218,14328,21447,-11271,-32521,83,1,9523,2020-11-02 15:59:23,2020-11-02 15:59:52,1,D7:F2:3B:06:4D:C8,83,83,4930.219330486645,33773.985862697344,-2189.294475308445
96749,-5862,-15124,-2864,9235,743,-5659,-19511,7674,-28165,83,1,9574,2020-11-02 15:59:23,2020-11-02 15:59:52,1,D7:F2:3B:06:4D:C8,83,83,-11688.617644698474,-8754.776506091901,7617.809520093342
96750,-7919,19177,25306,8711,-31785,26068,25033,23290,-23549,83,1,9576,2020-11-02 15:59:23,2020-11-02 15:59:52,1,D7:F2:3B:06:4D:C8,83,83,-23752.860319440864,17378.74182338701,14305.330659624427
96751,-7684,-19228,7140,9725,-21034,-12850,8135,2043,-18675,83,1,9599,2020-11-02 15:59:23,2020-11-02 15:59:52,1,D7:F2:3B:06:4D:C8,83,83,5293.152552256345,17317.308321496,-12322.045631987716
96752,6638,29415,19170,1782,24288,24534,21700,10748,-30442,83,1,9625,2020-11-02 15:59:23,2020-11-02 15:59:52,1,D7:F2:3B:06:4D:C8,83,83,27996.85489790169,-17552.695852143188,-13596.806726139539
96753,-6428,2028,-15641,23025,15587,-30752,32705,20478,24093,83,1,9651,2020-11-02 15:59:23,2020-11-02 15:59:52,1,D7:F2:3B:06:4D:C8,83,83,-14486.498675356052,5293.173851419251,7224.715614303365
96754,30414,-4883,1780,-3602,-2070,30702,-1602,3841,-6623,83,1,9676,2020-11-02 15:59:23,2020-11-02 15:59:52,1,D7:F2:3B:06:4D:C8,83,83,12323.851511856647,-28230.79469150149,1780.0
96755,-22310,-22797,-15904,14831,3832,-27132,-5444,-1790,32290,83,1,9702,2020-11-02 15:59:23,2020-11-02 15:59:52,1,D7:F2:3B:06:4D:C8,83,83,-28189.100047180145,14926.95372572945,-15904.0
96756,15070,12014,-12052,24306,23540,21001,25786,-6652,-30687,83,1,9727,2020-11-02 15:59:23,2020-11-02 15:59:52,1,D7:F2:3B:06:4D:C8,83,83,18876.21920694218,3973.059274899193,12024.763966482034
96757,-22548,27631,-29202,31727,24039,4613,25412,-3833,17696,83,1,9753,2020-11-02 15:59:23,2020-11-02 15:59:52,1,D7:F2:3B:06:4D:C8,83,83,27989.86769704679,36577.088336940455,-1823.5087313941694
96758,-5398,-28437,7666,14835,-4643,16384,-4543,32268,21279,83,1,9779,2020-11-02 15:59:23,2020-11-02 15:59:52,1,D7:F2:3B:06:4D:C8,83,83,12806.46176861889,26898.943278296094,-3001.718920870529
96759,-793,28392,15350,31477,18655,-15357,4159,-25071,25629,83,1,9804,2020-11-02 15:59:23,2020-11-02 15:59:52,1,D7:F2:3B:06:4D:C8,83,83,13555.002667353358,-27742.242987826947,-9433.285201477256
96760,-24852,-7962,6638,6397,-16155,-9465,4923,15637,25881,83,1,9830,2020-11-02 15:59:23,2020-11-02 15:59:52,1,D7:F2:3B:06:4D:C8,83,83,-16731.035056781053,-7190.59886769252,19835.476950471908
96761,-3095,10219,2033,-18183,3057,786,8757,-15850,11795,83,1,9855,2020-11-02 15:59:23,2020-11-02 15:59:52,1,D7:F2:3B:06:4D:C8,83,83,-331.4721905588053,-8432.677202906329,-6849.82893059893
96762,19447,23021,-20237,-32262,-25865,19226,19247,-4844,12557,83,1,9881,2020-11-02 15:59:23,2020-11-02 15:59:52,1,D7:F2:3B:06:4D:C8,83,83,10033.829045491952,25978.89922354846,23283.201859249417
96763,21767,-11788,-26381,-2564,-8459,-31211,24875,13586,-12536,83,-1,9907,2020-11-02 15:59:23,2020-11-02 15:59:52,1,D7:F2:3B:06:4D:C8,83,83,-17279.320956787662,-8295.116420842589,-30681.142495627282
96764,-8170,-23303,21752,32258,-1550,18193,-21464,8208,-7932,83,-1,9932,2020-11-02 15:59:23,2020-11-02 15:59:52,1,D7:F2:3B:06:4D:C8,83,83,11315.109856706193,30757.042397894096,-2983.4283743397464
96765,-3581,-27393,-9995,-31230,12019,11016,25639,-4594,9986,83,-1,9958,2020-11-02 15:59:23,2020-11-02 15:59:52,1,D7:F2:3B:06:4D:C8,83,83,-10636.489802016256,2573.968687544,27264.25874450188
96766,-5626,-31742,22265,8967,-14085,28169,20519,-24051,-30464,83,-1,9983,2020-11-02 15:59:23,2020-11-02 15:59:52,1,D7:F2:3B:06:4D:C8,83,83,-31771.01030320646,-7698.199741050968,21593.454796776532
96767,-23556,-12032,27130,-6389,3840,-19699,25384,-1013,-19969,83,-1,10009,2020-11-02 15:59:23,2020-11-02 15:59:52,1,D7:F2:3B:06:4D:C8,83,83,27327.604617697772,-24788.288844913302,-8627.503810484799
96768,-2038,-26363,10472,2571,-28927,2063,12586,-26615,20223,83,-1,10034,2020-11-02 15:59:23,2020-11-02 15:59:52,1,D7:F2:3B:06:4D:C8,83,83,19702.18788891733,-4271.839762803416,20059.8896913899
96769,14,18182,-4355,-26104,2816,-29943,26923,-19961,-13314,83,-1,10060,2020-11-02 15:59:23,2020-11-02 15:59:52,1,D7:F2:3B:06:4D:C8,83,83,-14438.669042420084,4929.458533359828,10806.323142093515
96770,-28151,-9728,19958,12048,12036,15625,29741,14086,-26882,83,-1,10086,2020-11-02 15:59:23,2020-11-02 15:59:52,1,D7:F2:3B:06:4D:C8,83,83,-28962.12906328158,8475.362466877124,19359.696799714373
96771,-27887,24322,7404,8719,12037,18694,-1233,-22524,-19202,83,-1,10111,2020-11-02 15:59:23,2020-11-02 15:59:52,1,D7:F2:3B:06:4D:C8,83,83,-22864.917381544867,-27827.17790263241,-11265.318109595215
96772,-7661,26630,-6167,-13556,-12798,27133,13362,3332,7167,83,-1,10137,2020-11-02 15:59:23,2020-11-02 15:59:52,1,D7:F2:3B:06:4D:C8,83,83,467.2532667323094,-9404.314777706197,26780.96801735413
96773,1299,-30968,-20762,-14838,27648,-6413,16692,-18684,8192,83,-1,10162,2020-11-02 15:59:23,2020-11-02 15:59:52,1,D7:F2:3B:06:4D:C8,83,83,-25936.7732269088,18399.00772584667,19507.05970360836
96774,19970,-10233,22504,-32504,-2815,1006,13110,14854,7426,83,-1,10188,2020-11-02 15:59:23,2020-11-02 15:59:52,1,D7:F2:3B:06:4D:C8,83,83,-27.018279967978742,-30033.434315031256,-10389.287668423207
96775,30966,7942,7412,-28918,18951,12531,25400,4871,-28924,83,-1,10214,2020-11-02 15:59:23,2020-11-02 15:59:52,1,D7:F2:3B:06:4D:C8,83,83,8382.877924529497,29812.67163926919,-10855.331935576658
96776,-26121,16902,25844,24334,-9462,-27911,-1734,-28154,-26618,83,-1,10239,2020-11-02 15:59:23,2020-11-02 15:59:52,1,D7:F2:3B:06:4D:C8,83,83,-36736.15984700454,16675.780337062813,2875.6722423392057
96777,-13316,-12541,-7958,-9199,-13814,5884,-7363,27141,-1529,83,-1,10265,2020-11-02 15:59:23,2020-11-02 15:59:52,1,D7:F2:3B:06:4D:C8,83,83,3971.50994835402,-13472.35731499358,-14164.921394319983
96778,27649,1284,-6692,-21744,-11767,-28167,-8640,5124,13577,83,-1,10290,2020-11-02 15:59:23,2020-11-02 15:59:52,1,D7:F2:3B:06:4D:C8,83,83,-7016.500892053159,27195.83782005204,-4696.1517753629305
96779,16890,29188,27607,-8182,24837,15090,16195,13315,4107,83,-1,10316,2020-11-02 15:59:23,2020-11-02 15:59:52,1,D7:F2:3B:06:4D:C8,83,83,6658.031689619329,-37249.46792751459,-21621.878876200535
96780,-29203,13827,11491,-14331,19200,-14099,-15804,11779,-19443,83,-1,10367,2020-11-02 15:59:23,2020-11-02 15:59:52,1,D7:F2:3B:06:4D:C8,83,83,4254.143734031651,-4135.717834975304,33776.357383229864
96781,-17428,26114,9962,-28925,30459,10221,-9147,-15357,-29168,83,-1,10369,2020-11-02 15:59:23,2020-11-02 15:59:52,1,D7:F2:3B:06:4D:C8,83,83,-15231.46790081716,27801.957615084637,-8942.659691356577
96782,3047,14080,-32531,23553,-18184,18925,7866,-10748,32275,83,-1,10392,2020-11-02 15:59:23,2020-11-02 15:59:52,1,D7:F2:3B:06:4D:C8,83,83,35378.852739058086,3721.709929259113,-531.2476545799982
96783,-25377,2047,23021,-8450,14583,4080,-14406,6150,16150,83,-1,10418,2020-11-02 15:59:23,2020-11-02 15:59:52,1,D7:F2:3B:06:4D:C8,83,83,-8547.268862860281,-29578.679504779764,15172.168359845627
96784,31962,25084,28660,10237,-17163,-22795,7099,-23289,24344,83,1,10444,2020-11-02 15:59:23,2020-11-02 15:59:52,1,D7:F2:3B:06:4D:C8,83,83,-12440.363358372622,1757.4062002264518,-48107.39010754029
96785,25061,-2306,-28444,-28675,-4105,-2051,5563,19721,24345,83,1,10470,2020-11-02 15:59:23,2020-11-02 15:59:52,1,D7:F2:3B:06:4D:C8,83,83,17095.580626508705,23321.543407306413,24622.738051314736
96786,-15387,4353,-13853,-13321,-8970,24323,10170,-9462,15129,83,1,10495,2020-11-02 15:59:23,2020-11-02 15:59:52,1,D7:F2:3B:06:4D:C8,83,83,-10616.835085411501,-10464.990439251274,-15012.687130409227
96787,-13588,-17147,-21781,-15629,20214,12551,-25532,16140,12568,83,1,10520,2020-11-02 15:59:23,2020-11-02 15:59:52,1,D7:F2:3B:06:4D:C8,83,83,-28010.187855230455,-5340.303903364102,11831.138767439694
96788,4329,-5629,-12829,3570,-780,-1528,-23487,-31731,26646,83,1,10546,2020-11-02 15:59:23,2020-11-02 15:59:52,1,D7:F2:3B:06:4D:C8,83,83,6743.826888411362,-12674.542935378724,-2980.9198711775484
96789,-5395,19459,-30498,-16914,23797,-31986,-24515,-28658,-26093,83,1,10572,2020-11-02 15:59:23,2020-11-02 15:59:52,1,D7:F2:3B:06:4D:C8,83,83,-28567.07046507354,17223.32868974477,15005.537107632568
96790,15339,18432,-21009,25324,17140,-18158,21816,-6898,-17905,83,1,10597,2020-11-02 15:59:23,2020-11-02 15:59:52,1,D7:F2:3B:06:4D:C8,83,83,9131.806161402326,16738.94707688479,25550.33058470721
96791,-10000,-7941,30198,3569,-12299,18967,8499,-1267,20747,83,1,10623,2020-11-02 15:59:23,2020-11-02 15:59:52,1,D7:F2:3B:06:4D:C8,83,83,14091.370037990067,27992.845654846104,9633.927942246577
96792,-11518,18683,-7173,-1035,-4619,12821,12847,5388,28935,83,1,10648,2020-11-02 15:59:23,2020-11-02 15:59:52,1,D7:F2:3B:06:4D:C8,83,83,-4468.255395128498,10689.60832492317,19973.425083936865
96793,28928,3832,9477,-6404,-13321,8462,-3796,31498,-18684,83,1,10674,2020-11-02 15:59:23,2020-11-02 15:59:52,1,D7:F2:3B:06:4D:C8,83,83,1413.891446698145,-3669.1910697503217,30428.027949090265
96794,17157,-28940,-29182,5637,-31748,18702,30764,-8440,-6398,83,1,10700,2020-11-02 15:59:23,2020-11-02 15:59:52,1,D7:F2:3B:06:4D:C8,83,83,-34299.938020949245,-13566.68132927867,24958.661471898733
96795,-24824,-11278,11778,-13045,5377,-2035,-32467,-1786,-13567,83,1,10725,2020-11-02 15:59:23,2020-11-02 15:59:52,1,D7:F2:3B:06:4D:C8,83,83,-2848.3388225871404,28603.76200692825,-7473.774749264998
96796,22793,31218,25342,20496,2052,28428,-25041,5,13825,83,1,10751,2020-11-02 15:59:23,2020-11-02 15:59:52,1,D7:F2:3B:06:4D:C8,83,83,26508.699469325715,37198.512199928606,7061.223658597246
96797,23562,19699,9726,31507,18435,-24824,25394,18435,-13056,83,1,10776,2020-11-02 15:59:23,2020-11-02 15:59:52,1,D7:F2:3B:06:4D:C8,83,83,5940.784652986795,26234.5015209001,17727.705115347748
96798,19208,13811,12538,11800,-16381,22533,-12235,13570,30976,83,1,10802,2020-11-02 15:59:23,2020-11-02 15:59:52,1,D7:F2:3B:06:4D:C8,83,83,-1431.2705228236955,24768.360345457753,-10068.377202312779
96799,-3568,-31239,-1052,7190,15108,18689,-30151,20481,32000,83,1,10827,2020-11-02 15:59:23,2020-11-02 15:59:52,1,D7:F2:3B:06:4D:C8,83,83,-7739.098050562529,-1520.5611186882593,30454.99473400238
96800,6155,14592,-15642,-20721,13569,-8967,25660,7169,7425,83,1,10853,2020-11-02 15:59:23,2020-11-02 15:59:52,1,D7:F2:3B:06:4D:C8,83,83,19411.641493577412,-9330.960109099386,-5621.744477225879
96801,16122,1795,21739,3343,-16893,-6150,-10946,7425,10498,83,1,10878,2020-11-02 15:59:23,2020-11-02 15:59:52,1,D7:F2:3B:06:4D:C8,83,83,-6849.045523951424,24984.73012075789,-8036.0976974981195
96802,17660,-23554,-26638,-8426,26630,-27133,-8639,20480,23810,83,1,10904,2020-11-02 15:59:23,2020-11-02 15:59:52,1,D7:F2:3B:06:4D:C8,83,83,-15667.899775697899,35621.672446653596,-7865.299023050939
96803,3598,-22533,21733,22039,25349,-32764,-29627,19199,-20223,83,1,10930,2020-11-02 15:59:23,2020-11-02 15:59:52,1,D7:F2:3B:06:4D:C8,83,83,1840.8099772814012,27769.742194544153,14780.31863919365
96804,-20203,-28935,21208,-1516,24574,25080,22716,-11010,-2047,83,1,10955,2020-11-02 15:59:23,2020-11-02 15:59:52,1,D7:F2:3B:06:4D:C8,83,83,10187.580815949294,25652.559758200223,-30550.516738190672
96805,32265,8952,26331,18957,-13838,-29976,-17730,-26881,-8700,83,1,10981,2020-11-02 15:59:23,2020-11-02 15:59:52,1,D7:F2:3B:06:4D:C8,83,83,-26901.19499165294,32370.75421451383,-6553.630261511687
96806,-12558,6646,-30234,21769,29170,-10011,24512,-22528,20745,83,1,11006,2020-11-02 15:59:23,2020-11-02 15:59:52,1,D7:F2:3B:06:4D:C8,83,83,-6407.62553643731,28413.878298411997,-16357.30084787304
96807,-27148,-10,2277,20487,-31243,21481,-11071,8705,21005,83,1,11032,2020-11-02 15:59:23,2020-11-02 15:59:52,1,D7:F2:3B:06:4D:C8,83,83,13219.823179441652,-3814.380387678612,23513.51760928998
96808,-27407,-24327,4835,-8190,-11531,17900,-17726,32513,-9968,83,1,11058,2020-11-02 15:59:23,2020-11-02 15:59:52,1,D7:F2:3B:06:4D:C8,83,83,17340.572464593202,18830.706447767006,-26665.199123168353
96809,-11545,-16390,-26395,5375,-15626,-31505,1475,-9215,-1261,83,1,11083,2020-11-02 15:59:23,2020-11-02 15:59:52,1,D7:F2:3B:06:4D:C8,83,83,15972.836522756754,-16390.0,-23976.061882996713
96810,-3612,13051,-3352,16124,12022,-1805,-13630,26882,29206,83,1,11109,2020-11-02 15:59:23,2020-11-02 15:59:52,1,D7:F2:3B:06:4D:C8,83,83,-5212.939339195414,-12269.112494187984,4111.592276822837
96811,16356,9467,-15377,-25861,4593,-29706,25794,-13821,-19432,83,1,11134,2020-11-02 15:59:23,2020-11-02 15:59:52,1,D7:F2:3B:06:4D:C8,83,83,6821.217870296935,18977.92813017951,13671.290526196964
96812,-17155,-30721,7121,-11015,-11030,18420,13762,-6139,11035,83,-1,11160,2020-11-02 15:59:23,2020-11-02 15:59:52,1,D7:F2:3B:06:4D:C8,83,83,3730.5670177441034,17487.43951086888,-31129.645614427125
96813,-3333,-11784,29160,15090,-22568,6632,-2623,20745,-2785,83,-1,11186,2020-11-02 15:59:23,2020-11-02 15:59:52,1,D7:F2:3B:06:4D:C8,83,83,7414.704426195012,-11784.0,-28397.82821400545
96814,25325,25073,-31998,-30735,-23088,-18717,-24381,10254,-20697,83,-1,11211,2020-11-02 15:59:23,2020-11-02 15:59:52,1,D7:F2:3B:06:4D:C8,83,83,-45672.485329517316,-14416.93880082583,242.72914589630454
96815,-37,21997,-13829,-1804,-27939,-13582,2247,786,-32721,83,-1,11237,2020-11-02 15:59:23,2020-11-02 15:59:52,1,D7:F2:3B:06:4D:C8,83,83,-21103.9527706272,6204.236895472051,-13829.0
96816,11976,27878,-10257,-29191,27119,-27635,18632,12053,-20430,83,-1,11264,2020-11-02 15:59:23,2020-11-02 15:59:52,1,D7:F2:3B:06:4D:C8,83,83,-11439.037836341691,24785.30480802075,-16752.62928474949
96817,3805,-22301,1784,10488,-16388,2855,24769,19224,-725,83,-1,11288,2020-11-02 15:59:23,2020-11-02 15:59:52,1,D7:F2:3B:06:4D:C8,83,83,-1549.7352964838526,15927.042040508753,-16091.082448073495
96818,20204,27617,-6151,6142,-32003,-23506,8512,-4072,10269,83,-1,11313,2020-11-02 15:59:23,2020-11-02 15:59:52,1,D7:F2:3B:06:4D:C8,83,83,-5995.125326363267,27859.760420799914,19915.50470404475
96819,13050,-14619,14585,17409,6653,25645,26421,-15595,-19184,83,-1,11339,2020-11-02 15:59:23,2020-11-02 15:59:52,1,D7:F2:3B:06:4D:C8,83,83,9660.11010553014,-19424.73881120828,11229.500472655633
96820,8962,3308,24827,-13566,-22276,-19930,-30160,18705,-8695,83,-1,11365,2020-11-02 15:59:23,2020-11-02 15:59:52,1,D7:F2:3B:06:4D:C8,83,83,-23258.374326975038,-6103.2708389065865,-11377.097421278457
96821,5383,-24590,29694,8964,-23300,-10981,-18642,23821,1030,83,-1,11390,2020-11-02 15:59:23,2020-11-02 15:59:52,1,D7:F2:3B:06:4D:C8,83,83,16102.82476500972,28534.333010734652,21020.687410736315
96822,-3066,-20236,-6656,-6394,8701,1300,26926,-29942,-25597,83,-1,11416,2020-11-02 15:59:23,2020-11-02 15:59:52,1,D7:F2:3B:06:4D:C8,83,83,-17955.734408116172,8259.989893252283,8518.36585435042
96823,-7410,29430,-6146,17930,-31232,-17138,12335,21000,5122,83,-1,11441,2020-11-02 15:59:23,2020-11-02 15:59:52,1,D7:F2:3B:06:4D:C8,83,83,11473.23773129276,-6658.659414311762,-27979.15986525395
96824,-24048,-2314,-18944,268,2307,17161,-17616,-28666,29441,83,-1,11467,2020-11-02 15:59:23,2020-11-02 15:59:52,1,D7:F2:3B:06:4D:C8,83,83,2888.3992911309783,-11112.834745985732,28472.760481614812
96825,31753,5879,14340,3089,18692,25095,-5326,15621,9217,83,1,11493,2020-11-02 15:59:23,2020-11-02 15:59:52,1,D7:F2:3B:06:4D:C8,83,83,-5041.336813985209,3029.5287075584647,-34840.46683008189
96826,12041,-23306,22267,19990,13318,23816,1846,-19453,-3840,83,1,11518,2020-11-02 15:59:23,2020-11-02 15:59:52,1,D7:F2:3B:06:4D:C8,83,83,-15062.818871035028,-23306.0,-20344.936904753256
96827,-30193,16889,17135,-4586,-20475,32517,-27847,18434,-22784,83,1,11544,2020-11-02 15:59:23,2020-11-02 15:59:52,1,D7:F2:3B:06:4D:C8,83,83,-33200.548053947394,19517.25525925883,2695.208908872024
96828,16147,4859,-19226,17941,-31483,-14593,3133,16129,-16384,83,1,11569,2020-11-02 15:59:23,2020-11-02 15:59:52,1,D7:F2:3B:06:4D:C8,83,83,14489.726811298731,19984.463594447898,-6681.586471498922
96829,30217,-13316,-28446,-16621,-31228,-13574,15168,-25856,-29951,83,1,11595,2020-11-02 15:59:23,2020-11-02 15:59:52,1,D7:F2:3B:06:4D:C8,83,83,-35777.93113134544,-10227.097331956993,-22691.49587672398
96830,-7682,1533,-15133,4117,15365,18172,28227,4096,26882,83,1,11620,2020-11-02 15:59:23,2020-11-02 15:59:52,1,D7:F2:3B:06:4D:C8,83,83,-4404.478806375429,13954.71016611702,8731.410689221986
96831,-15615,11260,21984,-29419,-18424,-24832,13498,-258,-24830,83,1,11646,2020-11-02 15:59:23,2020-11-02 15:59:52,1,D7:F2:3B:06:4D:C8,83,83,28881.35821614095,4311.713531718338,1090.1169714047974
96832,4367,-32516,18654,10770,20485,3582,15037,-14595,-31486,83,1,11671,2020-11-02 15:59:23,2020-11-02 15:59:52,1,D7:F2:3B:06:4D:C8,83,83,12402.711732522752,29833.577130861835,19505.462779869144
96833,-15343,-29443,4056,25610,-31495,-3855,11455,-23811,-6653,83,1,11697,2020-11-02 15:59:23,2020-11-02 15:59:52,1,D7:F2:3B:06:4D:C8,83,83,-20074.185951361815,-4496.153464390483,26373.48472262999
96834,773,-3846,28902,-10493,5878,23783,-20289,12798,28423,83,1,11723,2020-11-02 15:59:23,2020-11-02 15:59:52,1,D7:F2:3B:06:4D:C8,83,83,22862.12701821163,14405.331682296775,10978.361276901687
96835,-15620,26873,26339,-26108,28661,-4380,2752,32254,-18677,83,1,11748,2020-11-02 15:59:23,2020-11-02 15:59:52,1,D7:F2:3B:06:4D:C8,83,83,33183.12592555871,-22414.510289858677,-7507.0188673223065
96836,-6668,24057,13539,12800,21743,8676,8896,29695,27664,83,1,11774,2020-11-02 15:59:23,2020-11-02 15:59:52,1,D7:F2:3B:06:4D:C8,83,83,19724.766468708734,20381.711300612562,1423.1746953152592
96837,-12823,19449,-6939,23805,-23565,-1047,-7233,-25856,-20716,83,1,11799,2020-11-02 15:59:23,2020-11-02 15:59:52,1,D7:F2:3B:06:4D:C8,83,83,7431.831696230922,-3657.191591662153,22852.472039164015
96838,-32027,-16135,17895,27897,-21004,9713,17343,-17919,-17897,83,1,11825,2020-11-02 15:59:23,2020-11-02 15:59:52,1,D7:F2:3B:06:4D:C8,83,83,-32284.53996244452,-18186.17917807564,15273.157673390615
96839,29664,11256,-6417,504,13556,-264,20158,18179,-21479,83,1,11851,2020-11-02 15:59:23,2020-11-02 15:59:52,1,D7:F2:3B:06:4D:C8,83,83,26519.037721647666,14121.475985969606,-12047.940707669155
96840,3063,-32520,23266,16122,23027,-21250,29629,7941,29722,83,1,11876,2020-11-02 15:59:23,2020-11-02 15:59:52,1,D7:F2:3B:06:4D:C8,83,83,22036.353137562324,-28363.16032914541,17837.30365105217
96841,-254,29434,-16665,25333,-19484,12277,-28996,9736,-4069,83,1,11902,2020-11-02 15:59:23,2020-11-02 15:59:52,1,D7:F2:3B:06:4D:C8,83,83,19635.435337781943,24329.785804185805,12909.620397913452
96842,1527,7926,15601,-8462,21978,-16150,-30020,-756,-14817,83,1,11927,2020-11-02 15:59:23,2020-11-02 15:59:52,1,D7:F2:3B:06:4D:C8,83,83,-12194.327925362903,3901.507785349044,12025.84755639183
96843,29168,1270,-13062,6387,1248,-25104,29885,-5871,28708,83,1,11953,2020-11-02 15:59:23,2020-11-02 15:59:52,1,D7:F2:3B:06:4D:C8,83,83,-6020.042771157852,-22535.442085447496,21884.101604746582
96844,-6184,-1035,-15374,22775,-10521,-4610,31422,534,-16089,83,1,11979,2020-11-02 15:59:23,2020-11-02 15:59:52,1,D7:F2:3B:06:4D:C8,83,83,-11098.82787396307,11880.317474165618,-3368.535815035292
96845,28114,6130,-7437,-10251,-4362,-21994,13754,29464,32292,83,1,12004,2020-11-02 15:59:23,2020-11-02 15:59:52,1,D7:F2:3B:06:4D:C8,83,83,3942.621281568603,1518.6712386971776,29418.229724082248
96846,10727,-22291,4859,-3332,3069,-32218,16700,3864,-26599,83,1,12030,2020-11-02 15:59:23,2020-11-02 15:59:52,1,D7:F2:3B:06:4D:C8,83,83,-10688.221705705128,4942.78505538995,-22291.206420153834
96847,22770,14316,11774,-16639,15356,-16600,3636,-6636,-6641,83,1,12055,2020-11-02 15:59:23,2020-11-02 15:59:52,1,D7:F2:3B:06:4D:C8,83,83,13340.632932697845,5719.473033150928,25521.81367336728
96848,20740,8178,15095,6659,-1797,-7389,7728,-24304,-5623,83,1,12081,2020-11-02 15:59:23,2020-11-02 15:59:52,1,D7:F2:3B:06:4D:C8,83,83,-2176.2169995647682,-8283.412258285553,-25525.192848048966
96849,4614,17654,-4869,-1534,-3591,-27110,14382,8717,4614,83,1,12106,2020-11-02 15:59:23,2020-11-02 15:59:52,1,D7:F2:3B:06:4D:C8,83,83,17705.871513558875,-2919.287081189008,5885.554339477917
96850,16902,23800,7936,-6140,-28422,-6894,-31187,-28918,28163,83,1,12132,2020-11-02 15:59:23,2020-11-02 15:59:52,1,D7:F2:3B:06:4D:C8,83,83,-19499.82012775709,-21263.344515895635,-9095.32269814823
96851,-19444,-3590,25088,-16889,765,22797,-10451,-23544,-19199,83,1,12158,2020-11-02 15:59:23,2020-11-02 15:59:52,1,D7:F2:3B:06:4D:C8,83,83,-22296.030751566093,-22543.15553379912,3880.480808374281
96852,-18936,18681,18947,-10739,-18430,-1526,14639,6407,-14080,83,1,12183,2020-11-02 15:59:23,2020-11-02 15:59:52,1,D7:F2:3B:06:4D:C8,83,83,-21664.284984340113,12743.6239893749,20851.84571530118
96853,4874,13816,6403,13332,22024,-7157,-9167,1797,-26368,83,1,12209,2020-11-02 15:59:23,2020-11-02 15:59:52,1,D7:F2:3B:06:4D:C8,83,83,-12912.856346411487,-4712.466198342772,-8166.207461632199
96854,-25841,19704,-30984,-488,-5623,-32758,30261,-19710,-31744,83,1,12234,2020-11-02 15:59:23,2020-11-02 15:59:52,1,D7:F2:3B:06:4D:C8,83,83,31496.145711377307,21435.31626269581,23759.90688209652
96855,29723,23551,10211,-3564,-1789,-10752,7993,12289,-30208,83,-1,12260,2020-11-02 15:59:23,2020-11-02 15:59:52,1,D7:F2:3B:06:4D:C8,83,83,-936.6995610001977,11401.503613307705,-37569.92361301994
96856,4371,5635,1249,13326,-22273,-3340,-13509,31489,32001,83,-1,12287,2020-11-02 15:59:23,2020-11-02 15:59:52,1,D7:F2:3B:06:4D:C8,83,83,727.2407364237184,-6721.529450268045,2590.565529081481
96857,-8705,22276,-16411,10765,19464,5366,-6339,-32255,25859,83,-1,12337,2020-11-02 15:59:23,2020-11-02 15:59:52,1,D7:F2:3B:06:4D:C8,83,83,17578.50744773517,23066.184668762548,515.0948810293403
96858,9719,18690,-29722,12564,-3059,8959,-28864,-1537,-20732,83,-1,12339,2020-11-02 15:59:23,2020-11-02 15:59:52,1,D7:F2:3B:06:4D:C8,83,83,-4851.486577952944,-34836.05732493492,9491.287217116045
96859,31747,-2305,-19744,10261,27405,-28156,-7357,-11267,-25852,83,-1,12362,2020-11-02 15:59:23,2020-11-02 15:59:52,1,D7:F2:3B:06:4D:C8,83,83,-2496.564966997983,30213.41585144353,21998.34620950628
96860,7953,-2048,13279,-22003,-30715,27391,-5959,24316,21764,83,-1,12388,2020-11-02 15:59:23,2020-11-02 15:59:52,1,D7:F2:3B:06:4D:C8,83,83,10392.342300259568,-11650.514073213883,202.72479888002817
96861,-3316,26881,-13599,24583,28667,-3853,8891,23036,32005,83,-1,12413,2020-11-02 15:59:23,2020-11-02 15:59:52,1,D7:F2:3B:06:4D:C8,83,83,22236.710419352254,16370.559893590202,-12492.009305802127
96862,-2818,10238,31208,-22779,-10504,-23826,-23621,12285,1288,83,-1,12439,2020-11-02 15:59:23,2020-11-02 15:59:52,1,D7:F2:3B:06:4D:C8,83,83,-10330.607343046086,-30310.295663971483,7826.976471565112
96863,1022,20733,-32284,518,22008,7150,19900,254,-8438,83,-1,12465,2020-11-02 15:59:23,2020-11-02 15:59:52,1,D7:F2:3B:06:4D:C8,83,83,-12885.76279376438,-9488.39293866268,34886.75888735401
96864,-11016,-22275,741,-29439,-8715,-30995,-24900,8447,-9203,83,-1,12490,2020-11-02 15:59:23,2020-11-02 15:59:52,1,D7:F2:3B:06:4D:C8,83,83,679.415865657612,24851.665673664007,-100.34603092648439
96865,14575,-6914,-14619,-6914,31481,-9743,-30020,8192,-32496,83,-1,12516,2020-11-02 15:59:23,2020-11-02 15:59:52,1,D7:F2:3B:06:4D:C8,83,83,-11900.565683283641,2275.708001155328,-18087.20187069657
96866,19947,-21760,-7194,24572,22010,-12298,9916,-7936,18194,83,-1,12541,2020-11-02 15:59:23,2020-11-02 15:59:52,1,D7:F2:3B:06:4D:C8,83,83,-28356.182275273477,9803.165797258836,4791.545901159765
96867,9960,27648,-27416,18170,-21514,-26375,30907,4610,-31469,83,-1,12567,2020-11-02 15:59:23,2020-11-02 15:59:52,1,D7:F2:3B:06:4D:C8,83,83,20514.720050859098,4318.1195696205,-34289.22082254626
96868,-10270,19455,23532,32504,16630,30717,-30022,-22525,16660,83,-1,12592,2020-11-02 15:59:23,2020-11-02 15:59:52,1,D7:F2:3B:06:4D:C8,83,83,12757.120964227324,13088.507392974063,-26526.812622856425
96869,-1296,4097,-6423,-3593,-4884,-32260,9030,-9979,-29676,83,-1,12618,2020-11-02 15:59:23,2020-11-02 15:59:52,1,D7:F2:3B:06:4D:C8,83,83,-7498.629842712478,1508.0208839747347,-1102.8950518874774
96870,28666,31996,-17945,25080,-5411,17136,-32443,16650,10518,83,-1,12644,2020-11-02 15:59:23,2020-11-02 15:59:52,1,D7:F2:3B:06:4D:C8,83,83,-15989.641015973015,23744.359931728286,-36715.709833977744
96871,-6422,18936,3046,8948,-15909,-21,-3771,-9457,-29159,83,-1,12669,2020-11-02 15:59:23,2020-11-02 15:59:52,1,D7:F2:3B:06:4D:C8,83,83,-19869.50758545947,-413.70741436264507,-3758.165840761958
96872,25057,-4872,13563,-28173,5092,23287,7750,-16620,-27620,83,-1,12695,2020-11-02 15:59:23,2020-11-02 15:59:52,1,D7:F2:3B:06:4D:C8,83,83,19364.1223249506,-932.606506625255,21440.746574878176
96873,-8742,22264,23280,13816,-16655,-20980,-18365,-4841,25371,83,-1,12720,2020-11-02 15:59:23,2020-11-02 15:59:52,1,D7:F2:3B:06:4D:C8,83,83,-8480.373885978446,18875.654324178497,-26188.921180303256
96874,23519,16116,9727,8185,5371,30237,-5061,7448,-2285,83,-1,12746,2020-11-02 15:59:23,2020-11-02 15:59:52,1,D7:F2:3B:06:4D:C8,83,83,20892.35820093919,16116.0,-14535.035562517523
96875,-19468,27888,-27394,20994,-9730,5413,-19660,9749,-26357,83,-1,12772,2020-11-02 15:59:23,2020-11-02 15:59:52,1,D7:F2:3B:06:4D:C8,83,83,17943.712138705545,27377.160203418593,28908.287702311678
96876,-21499,-11534,16121,-32761,-5380,24865,18225,20497,-7675,83,-1,12797,2020-11-02 15:59:23,2020-11-02 15:59:52,1,D7:F2:3B:06:4D:C8,83,83,17852.777288664387,-10880.975736991984,20445.280826937564
96877,23040,-28942,32000,14602,-26883,-7397,13104,-4851,3074,83,1,12823,2020-11-02 15:59:23,2020-11-02 15:59:52,1,D7:F2:3B:06:4D:C8,83,83,23040.0,-17053.39591507442,-39633.58489669744
96878,-4346,22260,-24582,-2038,-23292,24090,-16080,19722,-17409,83,1,12848,2020-11-02 15:59:23,2020-11-02 15:59:52,1,D7:F2:3B:06:4D:C8,83,83,-7322.421176624934,30891.585438599657,10524.359229986982
96879,32273,-15112,0,-30198,-28155,26644,-10703,-7674,13566,83,1,12874,2020-11-02 15:59:23,2020-11-02 15:59:52,1,D7:F2:3B:06:4D:C8,83,83,4620.971676684452,9523.587453215772,34027.444449800096
96880,16408,-19974,-7688,19468,1030,15115,31283,23300,30973,83,1,12900,2020-11-02 15:59:23,2020-11-02 15:59:52,1,D7:F2:3B:06:4D:C8,83,83,-19188.450503869677,18903.44550692755,1323.4799685541705
96881,-753,-28165,-21760,-24819,14596,26883,27445,4611,23037,83,1,12925,2020-11-02 15:59:23,2020-11-02 15:59:52,1,D7:F2:3B:06:4D:C8,83,83,1961.79078674636,-699.4057716609368,35538.62747034
96882,778,6906,-31492,10770,3589,8959,-969,25090,-16387,83,1,12951,2020-11-02 15:59:23,2020-11-02 15:59:52,1,D7:F2:3B:06:4D:C8,83,83,-3426.8876964085857,-24082.990147227963,21173.337249586435
96883,-24562,17148,-23318,-27887,-6396,21500,-3782,-9727,31486,83,1,12976,2020-11-02 15:59:23,2020-11-02 15:59:52,1,D7:F2:3B:06:4D:C8,83,83,18245.034478690228,-1225.424013124386,-33266.97949708484
96884,7182,-20479,-14114,-1014,-22779,-3336,15165,28929,-24833,83,1,13002,2020-11-02 15:59:23,2020-11-02 15:59:52,1,D7:F2:3B:06:4D:C8,83,83,-25484.37189928189,-3166.0351865755165,3270.8670251872736
96885,-27390,-1020,6889,-32245,21002,22011,-6082,-29952,-2816,83,1,13027,2020-11-02 15:59:23,2020-11-02 15:59:52,1,D7:F2:3B:06:4D:C8,83,83,-3377.209288371278,5245.785262356097,27564.234351851428
96886,-13312,29440,22248,-15851,-5622,6145,-18367,-5122,-28671,83,1,13053,2020-11-02 15:59:23,2020-11-02 15:59:52,1,D7:F2:3B:06:4D:C8,83,83,21161.42546662035,-20142.04531652281,-26179.926101649202
96887,-249,509,-31780,12822,-3064,6147,13893,24573,21761,83,1,13078,2020-11-02 15:59:23,2020-11-02 15:59:52,1,D7:F2:3B:06:4D:C8,83,83,6046.179741042877,-29837.48919303855,-9135.503882890662
96888,13584,-1796,6111,-15089,29703,8191,25275,6396,7937,83,1,13104,2020-11-02 15:59:23,2020-11-02 15:59:52,1,D7:F2:3B:06:4D:C8,83,83,-2112.0507436496605,7443.119396303517,-12854.345891900502
96889,-29169,14079,-20769,-29943,-21247,-28683,957,16379,2818,83,1,13130,2020-11-02 15:59:23,2020-11-02 15:59:52,1,D7:F2:3B:06:4D:C8,83,83,-6746.611182498988,14079.0,35166.25029132591
96890,25347,-7939,21728,7178,-17671,-10258,-1603,18427,28676,83,-1,13155,2020-11-02 15:59:23,2020-11-02 15:59:52,1,D7:F2:3B:06:4D:C8,83,83,-13861.150681722116,18870.311722112776,-25087.52581042793
96891,6913,-28931,28129,31494,-17416,16109,-27458,-6405,29959,83,-1,13181,2020-11-02 15:59:23,2020-11-02 15:59:52,1,D7:F2:3B:06:4D:C8,83,83,8394.541506847716,-36759.4411777769,-15947.041361562053
96892,-12294,-10244,-22303,-16638,-22535,9453,-21570,20988,-26614,83,-1,13206,2020-11-02 15:59:23,2020-11-02 15:59:52,1,D7:F2:3B:06:4D:C8,83,83,-15418.653159305914,7151.896600257461,-21555.075754268444
96893,-22541,-5379,18145,26110,28410,-26641,15294,-19972,29453,83,-1,13232,2020-11-02 15:59:23,2020-11-02 15:59:52,1,D7:F2:3B:06:4D:C8,83,83,-6846.87418548294,-27127.740348522795,9136.5947962737
96894,746,3582,22759,-27654,29179,23283,19389,10493,-14577,83,-1,13258,2020-11-02 15:59:23,2020-11-02 15:59:52,1,D7:F2:3B:06:4D:C8,83,83,1400.1982380280806,19298.717029253,-12528.299442424073
96895,3821,18942,-28185,505,-776,-11785,9404,-6915,22289,83,-1,13283,2020-11-02 15:59:23,2020-11-02 15:59:52,1,D7:F2:3B:06:4D:C8,83,83,-6242.9699113130155,-33404.55421018186,3599.265856457607
96896,-16925,3837,-2060,-8968,-13,20986,-1606,32767,32274,83,-1,13311,2020-11-02 15:59:23,2020-11-02 15:59:52,1,D7:F2:3B:06:4D:C8,83,83,2877.8770009079917,3797.946781574945,-16814.137450727863
96897,-5904,23040,-20513,28663,2294,-3843,-71,14593,-4590,83,-1,13334,2020-11-02 15:59:23,2020-11-02 15:59:52,1,D7:F2:3B:06:4D:C8,83,83,-16195.48719350088,23040.0,13904.912066070357
96898,13807,28927,-30480,-12558,25074,-8198,-16572,15107,-32237,83,-1,13360,2020-11-02 15:59:23,2020-11-02 15:59:52,1,D7:F2:3B:06:4D:C8,83,83,32977.70488042769,-28661.35775077,-6887.127899334521
96899,24566,-1025,2795,26098,10219,32761,-5822,5126,5140,83,-1,13385,2020-11-02 15:59:23,2020-11-02 15:59:52,1,D7:F2:3B:06:4D:C8,83,83,24566.0,1798.1015390232276,2372.6527043295446
96900,6632,20988,23526,-31759,30953,-32007,-8896,-20215,-31724,83,-1,13411,2020-11-02 15:59:23,2020-11-02 15:59:52,1,D7:F2:3B:06:4D:C8,83,83,-31521.64948271418,3206.0541177477426,5836.015325800439
96901,27378,31997,-25884,20719,16623,31233,8510,-30708,-16365,83,-1,13437,2020-11-02 15:59:23,2020-11-02 15:59:52,1,D7:F2:3B:06:4D:C8,83,83,27129.722770716377,-34602.45154138692,-22583.021027091203
96902,5100,11516,11767,-16400,-32271,4362,20026,22030,-32751,83,-1,13462,2020-11-02 15:59:23,2020-11-02 15:59:52,1,D7:F2:3B:06:4D:C8,83,83,10691.341332458047,-9903.068287725633,9204.075401772689
96903,31470,-29961,23548,28665,32247,27156,-26826,21006,-10995,83,-1,13513,2020-11-02 15:59:23,2020-11-02 15:59:52,1,D7:F2:3B:06:4D:C8,83,83,-18252.42839218709,31688.77880686179,33244.56166830703
96904,-4352,28661,11771,-24065,17915,27673,2356,28172,-5623,83,-1,13515,2020-11-02 15:59:23,2020-11-02 15:59:52,1,D7:F2:3B:06:4D:C8,83,83,-6063.665134271185,28661.0,-10987.64352076568
96905,-31225,-25101,-23808,29702,18173,-23272,-974,-2551,-30714,83,-1,13539,2020-11-02 15:59:23,2020-11-02 15:59:52,1,D7:F2:3B:06:4D:C8,83,83,15212.6064772302,-37062.61499366894,-23808.0
96906,30479,-13323,20219,9482,-24065,22547,-32461,-32505,5636,83,1,13564,2020-11-02 15:59:23,2020-11-02 15:59:52,1,D7:F2:3B:06:4D:C8,83,83,1894.546180326971,-23167.721206340557,-31224.14322084573
96907,14093,-3593,2816,19979,6145,21772,-16588,-19195,-32510,83,1,13590,2020-11-02 15:59:23,2020-11-02 15:59:52,1,D7:F2:3B:06:4D:C8,83,83,-7930.720162802987,-12511.935407327283,-85.46380625744246
96908,28679,-11273,-20220,-27889,11526,21770,-21194,1540,-18431,83,1,13616,2020-11-02 15:59:23,2020-11-02 15:59:52,1,D7:F2:3B:06:4D:C8,83,83,-27219.74775637073,-12270.789845062578,21608.49413211989
96909,26893,23288,-10244,20758,-28923,-18680,-24007,18690,6401,83,1,13641,2020-11-02 15:59:23,2020-11-02 15:59:52,1,D7:F2:3B:06:4D:C8,83,83,-6245.31661326947,-23550.92781123127,-27872.096236741752
96910,-19951,-27143,-32019,8726,-1025,30976,10557,-30207,-16640,83,1,13667,2020-11-02 15:59:23,2020-11-02 15:59:52,1,D7:F2:3B:06:4D:C8,83,83,29537.13339179947,35036.684492333865,7745.30191662641
96911,13842,-27398,-18207,-7150,14847,-20743,24896,-17407,16641,83,1,13692,2020-11-02 15:59:23,2020-11-02 15:59:52,1,D7:F2:3B:06:4D:C8,83,83,3864.371750062668,-18366.80591975082,-30355.778499052263
96912,-23544,-25345,-25640,-11252,-29183,30709,-4542,-12799,-22782,83,1,13718,2020-11-02 15:59:23,2020-11-02 15:59:52,1,D7:F2:3B:06:4D:C8,83,83,-36357.46382264884,20418.573354571392,-10738.493728115118
96913,4862,-6653,-30238,12299,-8445,26102,-11452,27393,16900,83,1,13744,2020-11-02 15:59:23,2020-11-02 15:59:52,1,D7:F2:3B:06:4D:C8,83,83,24345.374349856625,16585.118573519336,10699.284399792687
96914,17665,7167,-1566,-21231,30209,-6152,32186,1,29701,83,1,13769,2020-11-02 15:59:23,2020-11-02 15:59:52,1,D7:F2:3B:06:4D:C8,83,83,5520.399149813086,-16788.678666196185,-7316.825258946125
96915,16391,-24323,-13093,21263,2814,-22538,7869,1793,-20986,83,1,13795,2020-11-02 15:59:23,2020-11-02 15:59:52,1,D7:F2:3B:06:4D:C8,83,83,-16526.76142290329,-209.9645445560709,-27541.276854214022
96916,-764,-19459,-20004,-31227,-2817,-29455,-21314,-14848,-25592,83,1,13820,2020-11-02 15:59:23,2020-11-02 15:59:52,1,D7:F2:3B:06:4D:C8,83,83,752.0241474756876,-26024.01761220472,-10078.757860037718
96917,13820,21755,-8981,12804,-21503,21488,17087,-1537,-9206,83,1,13846,2020-11-02 15:59:23,2020-11-02 15:59:52,1,D7:F2:3B:06:4D:C8,83,83,6720.698928006184,-12108.309206263091,23519.18025962259
96918,4344,5626,13542,-15356,-30470,8687,3520,-18177,29197,83,1,13871,2020-11-02 15:59:23,2020-11-02 15:59:52,1,D7:F2:3B:06:4D:C8,83,83,3632.9191559918872,7552.313079490055,-12793.45307395117
96919,27385,10233,5860,14082,26618,29678,-31552,-12289,12304,83,1,13897,2020-11-02 15:59:23,2020-11-02 15:59:52,1,D7:F2:3B:06:4D:C8,83,83,11554.793708801846,-18719.74600569096,20125.853170224877
96920,2544,761,-14620,14846,-12298,28911,31424,13312,2579,83,1,13923,2020-11-02 15:59:23,2020-11-02 15:59:52,1,D7:F2:3B:06:4D:C8,83,83,-5493.214282626745,-13803.605972437568,-283.75341906555605
96921,32227,-29704,-30236,2555,6898,-5647,-321,24065,-14827,83,1,13948,2020-11-02 15:59:23,2020-11-02 15:59:52,1,D7:F2:3B:06:4D:C8,83,83,-27766.20390017105,10708.389081680401,44153.04253672077
96922,-26157,-13325,-32021,13814,4338,11769,959,24579,-6633,83,1,13974,2020-11-02 15:59:23,2020-11-02 15:59:52,1,D7:F2:3B:06:4D:C8,83,83,11118.595312094576,-41978.30566446621,1134.6395139042434
96923,-17462,-5136,23056,-7434,-24327,-21496,-26947,-764,-12777,83,1,13999,2020-11-02 15:59:23,2020-11-02 15:59:52,1,D7:F2:3B:06:4D:C8,83,83,-5546.812944971483,21742.378320574215,-18957.34493853296
96924,-20248,-25356,-18195,31735,22522,26128,7612,16902,-26091,83,1,14025,2020-11-02 15:59:23,2020-11-02 15:59:52,1,D7:F2:3B:06:4D:C8,83,83,11797.745944815262,-16123.80590069493,31381.560491765067
96925,32765,8443,-19204,13302,23028,780,-6983,-16377,26387,83,1,14051,2020-11-02 15:59:23,2020-11-02 15:59:52,1,D7:F2:3B:06:4D:C8,83,83,-10254.458493059748,5870.533308589596,37067.58704969687
96926,28159,17151,-19224,-15372,21485,24581,-28604,21002,4370,83,1,14076,2020-11-02 15:59:23,2020-11-02 15:59:52,1,D7:F2:3B:06:4D:C8,83,83,-24272.208434534667,3338.1294283678035,-29263.715547243293
96927,13548,-772,1513,-29197,19442,20490,-1727,-24052,-28912,83,1,14102,2020-11-02 15:59:23,2020-11-02 15:59:52,1,D7:F2:3B:06:4D:C8,83,83,-1446.8938680942956,-7612.793539788954,-11242.123004798457
96928,-28935,14076,-20770,-1295,-22023,11025,26430,3085,-32755,83,1,14127,2020-11-02 15:59:23,2020-11-02 15:59:52,1,D7:F2:3B:06:4D:C8,83,83,15688.124569944006,-34815.18674981666,2923.4260813828223
96929,29170,-16903,-5132,24050,-3078,11798,14394,-25076,-10231,83,1,14153,2020-11-02 15:59:23,2020-11-02 15:59:52,1,D7:F2:3B:06:4D:C8,83,83,-5867.562894202733,30793.924288180413,-13425.485675251668
96930,-4864,-13832,20730,-5128,8702,-25319,-7114,-15094,2566,83,1,14178,2020-11-02 15:59:23,2020-11-02 15:59:52,1,D7:F2:3B:06:4D:C8,83,83,-18743.936281981805,9970.232020299585,-13927.488866209836
96931,-29690,10234,8959,-23553,2044,-13036,7733,-15608,-11518,83,-1,14204,2020-11-02 15:59:23,2020-11-02 15:59:52,1,D7:F2:3B:06:4D:C8,83,83,-1878.3752952487812,723.9822716341296,-32595.123759859518
96932,-8954,5881,265,-14329,3327,2067,-8140,-4602,17152,83,-1,14230,2020-11-02 15:59:23,2020-11-02 15:59:52,1,D7:F2:3B:06:4D:C8,83,83,634.1058985883658,-9556.959670064613,-4805.510750600182
96933,-25073,27895,-4858,-9713,29697,-4849,21302,773,18430,83,-1,14255,2020-11-02 15:59:23,2020-11-02 15:59:52,1,D7:F2:3B:06:4D:C8,83,83,28622.483154666224,23122.47286584574,8745.92617331496
96934,11280,-9739,-27903,-8940,-29179,5386,3641,14339,9725,83,-1,14281,2020-11-02 15:59:23,2020-11-02 15:59:52,1,D7:F2:3B:06:4D:C8,83,83,-8049.784991680707,-30561.891602349162,1354.8702055812246
96935,26123,-13069,4093,8471,-13562,27142,29244,-19967,-25348,83,-1,14307,2020-11-02 15:59:23,2020-11-02 15:59:52,1,D7:F2:3B:06:4D:C8,83,83,18002.591803794592,-21176.833845958074,-9869.697847788048
96936,28674,30449,-27658,15129,4613,-4860,16704,-32256,14588,83,-1,14332,2020-11-02 15:59:23,2020-11-02 15:59:52,1,D7:F2:3B:06:4D:C8,83,83,-30372.810813882563,36380.96984954683,-16377.491782030078
96937,271,-23310,233,-6887,25345,-19200,22084,-5889,-12293,83,-1,14357,2020-11-02 15:59:23,2020-11-02 15:59:52,1,D7:F2:3B:06:4D:C8,83,83,19660.095930510084,-12416.217160248025,-1673.9203782448294
96938,1031,17907,-5919,20245,14335,12284,25787,-5633,15100,83,-1,14383,2020-11-02 15:59:23,2020-11-02 15:59:52,1,D7:F2:3B:06:4D:C8,83,83,14287.304311830747,7672.535175327375,-9683.145691587351
96939,22023,7925,226,18447,-7425,12795,6590,-16385,-8196,83,-1,14409,2020-11-02 15:59:23,2020-11-02 15:59:52,1,D7:F2:3B:06:4D:C8,83,83,-4844.969766064284,15118.619193615961,17199.50149406517
96940,-16891,-23049,17379,-22262,23293,16376,-2113,-22785,-5891,83,-1,14434,2020-11-02 15:59:23,2020-11-02 15:59:52,1,D7:F2:3B:06:4D:C8,83,83,-11685.2541281982,-24460.746433016197,-19588.737654558357
96941,-31485,19700,6884,22800,-17411,25335,8898,-25601,17151,83,-1,14460,2020-11-02 15:59:23,2020-11-02 15:59:52,1,D7:F2:3B:06:4D:C8,83,83,-19367.709654249196,30661.627736500763,10561.301449014201
96942,21256,15351,25552,-13300,-21252,10742,28100,21503,-24064,83,-1,14485,2020-11-02 15:59:23,2020-11-02 15:59:52,1,D7:F2:3B:06:4D:C8,83,83,9325.976735829103,-25031.463750036386,25036.52175229995
96943,21769,23287,-23581,5380,23288,-5649,15045,9215,-7422,83,-1,14511,2020-11-02 15:59:23,2020-11-02 15:59:52,1,D7:F2:3B:06:4D:C8,83,83,30331.993688569604,-25489.732713384998,-1575.1114489980391
96944,12803,25847,13282,27904,-6413,7658,24773,-4354,20230,83,-1,14536,2020-11-02 15:59:23,2020-11-02 15:59:52,1,D7:F2:3B:06:4D:C8,83,83,-11709.207228176494,8581.155284882363,-28242.768668534514
96945,-3587,-20747,5093,-23044,25331,-19992,-7740,-5634,23050,83,-1,14562,2020-11-02 15:59:23,2020-11-02 15:59:52,1,D7:F2:3B:06:4D:C8,83,83,-2895.5112436961185,7240.505267297349,20209.758165595864
96946,-2057,9464,16617,-21766,-10248,13292,-4669,-17666,-6643,83,-1,14588,2020-11-02 15:59:23,2020-11-02 15:59:52,1,D7:F2:3B:06:4D:C8,83,83,7796.956747153639,5373.079285315043,-16740.989172588746
96947,18163,4087,7910,18680,16631,-14099,-17726,-24066,-3312,83,-1,14613,2020-11-02 15:59:23,2020-11-02 15:59:52,1,D7:F2:3B:06:4D:C8,83,83,-18235.020323302826,-2929.840069852471,-8250.230843668545
96948,9972,3064,22506,-23050,11509,-17,14017,18431,-7149,83,-1,14639,2020-11-02 15:59:23,2020-11-02 15:59:52,1,D7:F2:3B:06:4D:C8,83,83,-24129.00680042637,-2657.517217552735,5106.61816306924
96949,13044,-8202,24297,24566,-30481,-18705,-17729,-26880,-9706,83,-1,14664,2020-11-02 15:59:23,2020-11-02 15:59:52,1,D7:F2:3B:06:4D:C8,83,83,-4251.160017019601,27995.32582919673,5094.341883580684
96950,-21770,16117,-10767,-21002,-3359,-2324,-25410,-22525,25882,83,-1,14690,2020-11-02 15:59:23,2020-11-02 15:59:52,1,D7:F2:3B:06:4D:C8,83,83,-14119.066677916127,-12696.617633661943,-22114.853262211414
96951,-3082,-2832,-31007,-31243,6866,18152,-21570,-13048,8223,83,-1,14716,2020-11-02 15:59:23,2020-11-02 15:59:52,1,D7:F2:3B:06:4D:C8,83,83,-13261.68983008266,-23563.43180993835,-15743.102019267606
96952,14310,4077,-30726,32746,17876,-25110,-4162,-1010,11557,83,-1,14741,2020-11-02 15:59:23,2020-11-02 15:59:52,1,D7:F2:3B:06:4D:C8,83,83,-9662.266840157912,11315.415525272805,-30726.0
96953,-4885,-6674,-26108,4855,-23842,-29450,10688,-493,4138,83,-1,14767,2020-11-02 15:59:23,2020-11-02 15:59:52,1,D7:F2:3B:06:4D:C8,83,83,-4885.0,18363.146882000598,-19722.189954213296
96954,9198,-10512,-29697,29693,12778,31491,9154,2328,21037,83,-1,14792,2020-11-02 15:59:23,2020-11-02 15:59:52,1,D7:F2:3B:06:4D:C8,83,83,-11830.908625596681,-17818.244215515322,-24890.900569666755
96955,-7978,31979,502,-514,-21768,15639,18879,-13542,25898,83,-1,14818,2020-11-02 15:59:23,2020-11-02 15:59:52,1,D7:F2:3B:06:4D:C8,83,83,-23796.434243700856,20990.966697785265,-8925.579162031507
96956,-28690,-17941,-17416,-3586,9986,29991,-25538,-32230,20508,83,-1,14843,2020-11-02 15:59:23,2020-11-02 15:59:52,1,D7:F2:3B:06:4D:C8,83,83,6624.643589122537,-26103.594022811536,26889.20068371939
96957,-24072,-24339,-30976,4357,16896,-23768,-12748,1047,-2288,83,-1,14869,2020-11-02 15:59:23,2020-11-02 15:59:52,1,D7:F2:3B:06:4D:C8,83,83,-24072.0,-18037.799238631414,35021.954480394554
96958,25347,-26384,13308,-19446,-3329,-4316,6705,-29166,-22518,83,-1,14895,2020-11-02 15:59:23,2020-11-02 15:59:52,1,D7:F2:3B:06:4D:C8,83,83,3540.3377956371023,26215.597078992818,-28563.914421603466
96959,9225,12022,28409,-7157,-259,28444,18480,-23794,-17146,83,-1,14920,2020-11-02 15:59:23,2020-11-02 15:59:52,1,D7:F2:3B:06:4D:C8,83,83,-3635.004624282891,30290.913313996683,10293.090011526197
96960,22281,-30729,1274,10765,6656,-11498,-15056,-26101,4612,83,1,14946,2020-11-02 15:59:23,2020-11-02 15:59:52,1,D7:F2:3B:06:4D:C8,83,83,6181.356134370736,13946.221062033059,-34779.75319678077
96961,-10223,12539,30967,26124,1282,-10225,2098,4617,24834,83,1,14971,2020-11-02 15:59:23,2020-11-02 15:59:52,1,D7:F2:3B:06:4D:C8,83,83,16171.745224754817,-459.2454524758805,30967.0
96962,27406,3836,30457,16140,16385,-16889,-25293,-30457,31489,83,1,14997,2020-11-02 15:59:23,2020-11-02 15:59:52,1,D7:F2:3B:06:4D:C8,83,83,-26927.842912815737,932.2769045035893,-31103.934105447952
96963,29188,-23814,4861,-4850,-20731,-29690,-23243,26118,10497,83,1,15023,2020-11-02 15:59:23,2020-11-02 15:59:52,1,D7:F2:3B:06:4D:C8,83,83,-11642.127678211102,3869.2035777112665,35946.70204342058
96964,10750,11514,-32262,6931,9737,16906,18232,-26364,-4352,83,1,15048,2020-11-02 15:59:23,2020-11-02 15:59:52,1,D7:F2:3B:06:4D:C8,83,83,18374.645258956658,-6845.959905830092,-30074.51719604603
96965,7681,26875,-10517,-22766,15115,-31473,13371,6402,3584,83,1,15074,2020-11-02 15:59:23,2020-11-02 15:59:52,1,D7:F2:3B:06:4D:C8,83,83,28396.194030774306,-1620.8651942787583,9104.923700316955
96966,-4341,19966,24808,22033,13574,-24818,-5059,-10753,30974,83,1,15099,2020-11-02 15:59:23,2020-11-02 15:59:52,1,D7:F2:3B:06:4D:C8,83,83,12559.057627694008,27930.458058668784,9750.994058925733
96967,-32495,8447,-31261,-2800,-257,777,-22720,1023,-3588,83,1,15125,2020-11-02 15:59:23,2020-11-02 15:59:52,1,D7:F2:3B:06:4D:C8,83,83,-32495.0,-12774.019190743471,29756.114728144825
96968,-4337,-24581,-27418,-29165,-23289,-1016,-28861,2302,-16645,83,1,15151,2020-11-02 15:59:23,2020-11-02 15:59:52,1,D7:F2:3B:06:4D:C8,83,83,19371.623638299345,-4095.9534097242285,-31348.76739652534
96969,23315,23293,-16676,32019,776,20740,8634,31484,-16134,83,1,15176,2020-11-02 15:59:23,2020-11-02 15:59:52,1,D7:F2:3B:06:4D:C8,83,83,25677.217217509417,-7856.371651036904,25361.387786271112
96970,26896,21502,-12836,22029,6146,31227,-30788,-13829,-7430,83,1,15202,2020-11-02 15:59:23,2020-11-02 15:59:52,1,D7:F2:3B:06:4D:C8,83,83,1101.3430758668037,32354.6797207481,17391.246637232533
96971,-32756,18686,14048,8200,-767,-17931,-12099,16123,6908,83,1,15253,2020-11-02 15:59:23,2020-11-02 15:59:52,1,D7:F2:3B:06:4D:C8,83,83,-8060.180649483039,-3303.1835421378505,39288.559433817994
96972,-5111,-27394,9442,6149,-10240,16625,20670,-27398,2558,83,1,15255,2020-11-02 15:59:23,2020-11-02 15:59:52,1,D7:F2:3B:06:4D:C8,83,83,-6659.124199859894,25787.399335771333,12504.839918539554
96973,23816,29949,-282,19202,17914,-14614,4798,26618,-512,83,1,15278,2020-11-02 15:59:23,2020-11-02 15:59:52,1,D7:F2:3B:06:4D:C8,83,83,-15353.758170810946,29949.0,18208.335729337155
96974,-3840,-8453,28905,-11264,-26634,6887,22973,-1030,-7164,83,1,15304,2020-11-02 15:59:23,2020-11-02 15:59:52,1,D7:F2:3B:06:4D:C8,83,83,20982.07059892034,18035.869804767557,-12496.317368224787
96975,-27651,-25348,230,13311,31222,2023,-31044,-7173,-2552,83,-1,15330,2020-11-02 15:59:23,2020-11-02 15:59:52,1,D7:F2:3B:06:4D:C8,83,83,5458.678899604689,-7410.82166029438,-36365.290484063546
96976,9200,16893,20969,29692,-20491,-29463,-30789,6909,-13812,83,-1,15356,2020-11-02 15:59:23,2020-11-02 15:59:52,1,D7:F2:3B:06:4D:C8,83,83,-23750.58586389086,-15092.194013460485,4224.661049364222
96977,3311,-16897,14313,12796,-29707,10480,-21318,-26626,-21489,83,-1,15381,2020-11-02 15:59:23,2020-11-02 15:59:52,1,D7:F2:3B:06:4D:C8,83,83,13618.093312383457,-16996.056546078937,5197.585537314826
96978,-28944,28414,18152,26873,28144,27377,-12615,-19200,274,83,-1,15406,2020-11-02 15:59:23,2020-11-02 15:59:52,1,D7:F2:3B:06:4D:C8,83,83,33366.435070922074,4681.170678089269,28971.939661343677
96979,13552,21759,4333,27635,-28437,1521,6469,-24829,9236,83,-1,15432,2020-11-02 15:59:23,2020-11-02 15:59:52,1,D7:F2:3B:06:4D:C8,83,83,-3166.59934422308,10079.06604949014,-23754.38380937677
96980,11765,-29187,7664,23793,4835,-6164,-31165,-19193,31510,83,-1,15457,2020-11-02 15:59:23,2020-11-02 15:59:52,1,D7:F2:3B:06:4D:C8,83,83,-17257.03145818556,3242.3867997918596,27216.07765809999
96981,10227,6138,-14352,27121,13533,-7446,-27838,14349,8985,83,-1,15483,2020-11-02 15:59:23,2020-11-02 15:59:52,1,D7:F2:3B:06:4D:C8,83,83,-1172.119790861941,10851.813900087323,-15136.404701042495
96982,10227,1013,-26634,21488,8670,-11798,13634,4371,6684,83,-1,15509,2020-11-02 15:59:23,2020-11-02 15:59:52,1,D7:F2:3B:06:4D:C8,83,83,-14498.536432637806,21463.119932044458,12004.773137971006
96983,25577,-19720,-13065,18419,2535,23544,1090,6936,-30946,83,-1,15534,2020-11-02 15:59:23,2020-11-02 15:59:52,1,D7:F2:3B:06:4D:C8,83,83,19711.472403156436,-2884.3838382074773,-28581.353004598815
96984,15308,28915,6404,29944,28406,20499,-7620,10266,-21990,83,-1,15560,2020-11-02 15:59:23,2020-11-02 15:59:52,1,D7:F2:3B:06:4D:C8,83,83,12163.601040676764,-19490.14154172634,-24157.907554395526
96985,31976,-9492,-6398,-30973,-3,-11739,6452,-15081,-1776,83,-1,15585,2020-11-02 15:59:23,2020-11-02 15:59:52,1,D7:F2:3B:06:4D:C8,83,83,-2900.6235267315446,255.18187350053904,33838.1191759768
96986,28158,18420,30968,29704,31226,26145,-17873,-17645,17418,83,-1,15611,2020-11-02 15:59:23,2020-11-02 15:59:52,1,D7:F2:3B:06:4D:C8,83,83,24907.59791664959,10455.12667477328,36898.350643856116
96987,22022,5368,27643,19468,23801,-4326,5166,28176,-19707,83,-1,15636,2020-11-02 15:59:23,2020-11-02 15:59:52,1,D7:F2:3B:06:4D:C8,83,83,35718.95010646766,-330.6504586745373,-1402.3660598616298
96988,-15100,-28167,20219,-20723,-20737,1559,31022,24845,259,83,1,15662,2020-11-02 15:59:23,2020-11-02 15:59:52,1,D7:F2:3B:06:4D:C8,83,83,-14911.770987270145,11398.577131471302,-32831.530201943184
96989,4880,32250,-12294,25357,26115,29459,-9425,18186,30209,83,1,15688,2020-11-02 15:59:23,2020-11-02 15:59:52,1,D7:F2:3B:06:4D:C8,83,83,4066.258815982761,11212.177562957831,32753.197546776213
96990,4368,-10246,5890,-25328,16390,3596,-7631,-10745,-16896,83,1,15713,2020-11-02 15:59:23,2020-11-02 15:59:52,1,D7:F2:3B:06:4D:C8,83,83,2624.284943378866,7127.121033256355,10053.323545637526
96991,-10735,20471,4094,-29418,15366,9223,-4044,3334,-28928,83,1,15739,2020-11-02 15:59:23,2020-11-02 15:59:52,1,D7:F2:3B:06:4D:C8,83,83,-22675.252387576842,-4487.203489891087,4094.0
96992,-8675,6393,-7441,-27371,23298,32508,-30664,16133,-8704,83,1,15764,2020-11-02 15:59:23,2020-11-02 15:59:52,1,D7:F2:3B:06:4D:C8,83,83,11455.540410226433,-1278.3528472181579,6215.381155462506
96993,26141,-4104,15330,-24817,-19201,-26898,-9925,-5115,-29694,83,1,15790,2020-11-02 15:59:23,2020-11-02 15:59:52,1,D7:F2:3B:06:4D:C8,83,83,-2828.351088224379,28097.418078615185,11736.23127061019
96994,-21740,27131,7632,1540,-13314,-11806,28222,18439,9734,83,1,15815,2020-11-02 15:59:23,2020-11-02 15:59:52,1,D7:F2:3B:06:4D:C8,83,83,19745.0633831368,8618.896210630646,28333.959926319636
96995,-11029,27906,29901,21243,-27392,-7968,-2753,-22520,5899,83,1,15841,2020-11-02 15:59:23,2020-11-02 15:59:52,1,D7:F2:3B:06:4D:C8,83,83,-19862.605298313727,20714.688494238726,-31158.178209742193
96996,-3358,29953,-8459,19462,-6391,9454,26177,-16120,4879,83,1,15867,2020-11-02 15:59:23,2020-11-02 15:59:52,1,D7:F2:3B:06:4D:C8,83,83,16982.17315630121,-25980.379683537532,4079.0587625863845
96997,-29966,6912,6875,-31733,-26627,-5390,7748,-14584,28945,83,1,15892,2020-11-02 15:59:23,2020-11-02 15:59:52,1,D7:F2:3B:06:4D:C8,83,83,-887.2931275435221,-4229.314392721459,-31214.22969854187
96998,-5132,7169,29146,8702,14850,26098,-31163,2825,-21741,83,1,15918,2020-11-02 15:59:23,2020-11-02 15:59:52,1,D7:F2:3B:06:4D:C8,83,83,1423.4836448097612,26380.113803746233,15142.146182571232
96999,-19216,22784,-21274,-7177,21761,29169,29509,-26104,-1259,83,1,15943,2020-11-02 15:59:23,2020-11-02 15:59:52,1,D7:F2:3B:06:4D:C8,83,83,-8541.326531209952,-13937.19578558946,32768.104960790704
97000,12785,1278,749,-3082,-29196,-14870,21573,-20983,1049,83,1,15969,2020-11-02 15:59:23,2020-11-02 15:59:52,1,D7:F2:3B:06:4D:C8,83,83,-12577.864151791613,-1370.9092966922099,2359.7565720468506
97001,17642,-4871,21487,6644,-21008,11242,31301,6412,-14052,83,1,15995,2020-11-02 15:59:23,2020-11-02 15:59:52,1,D7:F2:3B:06:4D:C8,83,83,9742.444367952414,-24904.449293704867,-9028.352956914974
97002,20188,-28684,7930,-30477,-26638,-4112,28741,-28402,6688,83,1,16020,2020-11-02 15:59:23,2020-11-02 15:59:52,1,D7:F2:3B:06:4D:C8,83,83,5485.188998283785,7557.492748312152,-34727.641800334146
97003,20946,-9231,-5632,22775,26359,-15617,-20924,28176,24097,83,1,16046,2020-11-02 15:59:23,2020-11-02 15:59:52,1,D7:F2:3B:06:4D:C8,83,83,18666.37126130367,8847.21171229778,11356.017341170162
97004,-19491,-276,-5627,-30209,5627,9485,-5566,26385,-28897,83,1,16071,2020-11-02 15:59:23,2020-11-02 15:59:52,1,D7:F2:3B:06:4D:C8,83,83,5086.5502026955255,16222.170946553593,-11072.784781447284
97005,12264,-15123,6909,-7680,-20486,-4079,-25280,-13551,-1253,83,1,16097,2020-11-02 15:59:23,2020-11-02 15:59:52,1,D7:F2:3B:06:4D:C8,83,83,9409.805923141314,4656.304038237928,17793.804854282964
97006,-8727,11507,21491,-15616,25852,19221,-20675,-26095,-23529,83,1,16122,2020-11-02 15:59:23,2020-11-02 15:59:52,1,D7:F2:3B:06:4D:C8,83,83,13925.578202290662,-3334.9652583657644,21572.921393668043
97007,-23301,-11781,9452,16893,-5895,9490,-18886,-7920,30739,83,1,16148,2020-11-02 15:59:23,2020-11-02 15:59:52,1,D7:F2:3B:06:4D:C8,83,83,10728.635573197374,9550.158506515032,-23764.673724626697
97008,17155,24836,-19484,4600,-7179,-4855,-21961,-7408,12304,83,1,16174,2020-11-02 15:59:23,2020-11-02 15:59:52,1,D7:F2:3B:06:4D:C8,83,83,26527.503759442392,7727.188318235061,22963.65132088757
97009,10737,24581,7663,-28683,-8463,-23803,7476,-18159,15117,83,1,16199,2020-11-02 15:59:23,2020-11-02 15:59:52,1,D7:F2:3B:06:4D:C8,83,83,-331.89504699202826,-15694.430278375843,-23060.897704013645
97010,-29953,-29944,-20765,-26635,-7180,22791,13104,-9199,-9207,83,-1,16225,2020-11-02 15:59:23,2020-11-02 15:59:52,1,D7:F2:3B:06:4D:C8,83,83,26080.28890006757,17391.84796128169,-35247.02434788892
97011,-8965,10,764,-27146,30195,-27381,-8917,-19439,13318,83,-1,16250,2020-11-02 15:59:23,2020-11-02 15:59:52,1,D7:F2:3B:06:4D:C8,83,83,-4259.158741341499,7748.59964152757,-1665.4703273769496
97012,-7432,13573,19194,23037,-29961,-6386,11561,13328,23555,83,-1,16276,2020-11-02 15:59:23,2020-11-02 15:59:52,1,D7:F2:3B:06:4D:C8,83,83,-22092.849177383076,9762.953746278248,4945.840512333129
97013,-12293,-6146,-2554,26887,-17411,31763,25640,-14067,30721,83,-1,16302,2020-11-02 15:59:23,2020-11-02 15:59:52,1,D7:F2:3B:06:4D:C8,83,83,1819.607150104116,1197.0388427747635,-13808.338380419944
97014,4609,2812,-16130,-11764,15617,277,-23767,-16630,-28416,83,-1,16327,2020-11-02 15:59:23,2020-11-02 15:59:52,1,D7:F2:3B:06:4D:C8,83,83,937.6105734797488,-16949.242760829526,-1082.2112764921508
97015,-23028,6395,27897,12558,27137,3602,32299,-14585,-13569,83,-1,16353,2020-11-02 15:59:23,2020-11-02 15:59:52,1,D7:F2:3B:06:4D:C8,83,83,22660.185860198762,-19128.5401525399,-21680.460013890774
97016,4867,2297,-24826,24337,17410,-8947,-24787,-25339,1023,83,-1,16380,2020-11-02 15:59:23,2020-11-02 15:59:52,1,D7:F2:3B:06:4D:C8,83,83,10415.22720142203,17286.959351390906,-15426.543771244322
97017,-28663,32247,30972,-7656,18694,1551,-6864,19459,29694,83,-1,16404,2020-11-02 15:59:23,2020-11-02 15:59:52,1,D7:F2:3B:06:4D:C8,83,83,49331.88195600434,-13468.031762464952,14341.509862078292
97018,12050,-16643,12269,-28905,-4091,-17399,-18124,7169,2046,83,-1,16429,2020-11-02 15:59:23,2020-11-02 15:59:52,1,D7:F2:3B:06:4D:C8,83,83,-1733.7176959280441,18207.846499807725,-15433.36835529644
97019,-12524,26114,11241,-4848,6146,-4097,-12489,10752,-3587,83,-1,16455,2020-11-02 15:59:23,2020-11-02 15:59:52,1,D7:F2:3B:06:4D:C8,83,83,-30684.127979337198,-645.8461146445898,-4818.591697151222
97020,-20207,6,32484,-24564,-20735,16119,3130,17152,-14850,83,-1,16481,2020-11-02 15:59:23,2020-11-02 15:59:52,1,D7:F2:3B:06:4D:C8,83,83,-15785.942020834915,-34507.33058242972,4856.059265469175
97021,22023,-27132,3047,-19189,-12284,2292,-4293,-31488,-31488,83,-1,16506,2020-11-02 15:59:23,2020-11-02 15:59:52,1,D7:F2:3B:06:4D:C8,83,83,28618.41344017487,1095.991521118016,-20254.07062179985
97022,-20985,23555,4071,30474,23558,25076,-17347,23040,-30974,83,-1,16532,2020-11-02 15:59:23,2020-11-02 15:59:52,1,D7:F2:3B:06:4D:C8,83,83,27280.230353357394,12038.620495178795,-11074.382124562017
97023,15885,-19455,-32537,-10232,32515,25328,15423,20224,-16892,83,-1,16557,2020-11-02 15:59:23,2020-11-02 15:59:52,1,D7:F2:3B:06:4D:C8,83,83,41052.16350734637,-849.0282942584108,1866.9872312491734
97024,-28151,-23040,-31520,32519,19201,-23063,-27584,-18944,-19193,83,-1,16583,2020-11-02 15:59:23,2020-11-02 15:59:52,1,D7:F2:3B:06:4D:C8,83,83,-21656.450413422797,-42394.78811992742,-7107.101853598269
97025,-18945,-9731,-5154,-14844,766,-797,-16831,-23295,-28405,83,-1,16609,2020-11-02 15:59:23,2020-11-02 15:59:52,1,D7:F2:3B:06:4D:C8,83,83,-13050.275825021097,16084.415183860168,7151.992105985464
97026,13299,-18949,-29726,-5632,6651,21219,-23742,6147,-10993,83,-1,16634,2020-11-02 15:59:23,2020-11-02 15:59:52,1,D7:F2:3B:06:4D:C8,83,83,35548.992517004226,9196.99610956073,-8440.82173646042
97027,24298,-12804,28646,-19715,-517,-13080,11075,30212,-21485,83,-1,16660,2020-11-02 15:59:23,2020-11-02 15:59:52,1,D7:F2:3B:06:4D:C8,83,83,-6736.408114235297,30376.156072932496,24634.091904336787
97028,13023,-9731,-8472,-30469,-28675,26866,15683,31493,24342,83,-1,16685,2020-11-02 15:59:23,2020-11-02 15:59:52,1,D7:F2:3B:06:4D:C8,83,83,3143.834858958071,-14340.888981715969,10978.200198288318
97029,-30756,18175,19689,12025,22270,-16389,-22206,3078,-29673,83,1,16711,2020-11-02 15:59:23,2020-11-02 15:59:52,1,D7:F2:3B:06:4D:C8,83,83,5865.336806801932,-33808.482185398956,-22056.818412054257
97030,-14632,-6405,-6155,4089,-32258,15876,-29887,-32250,25111,83,1,16736,2020-11-02 15:59:23,2020-11-02 15:59:52,1,D7:F2:3B:06:4D:C8,83,83,10748.82298230751,6195.13954197806,11793.495009980617
97031,3033,11514,12541,-12806,1535,-30964,19520,-30202,-5355,83,1,16762,2020-11-02 15:59:23,2020-11-02 15:59:52,1,D7:F2:3B:06:4D:C8,83,83,-9487.059348486675,-13168.559626936323,-5969.313886043707
97032,-30728,27905,6889,-5637,-11271,29198,5695,22022,-30701,83,1,16788,2020-11-02 15:59:23,2020-11-02 15:59:52,1,D7:F2:3B:06:4D:C8,83,83,-17853.869874535867,38018.7819642556,-2483.7227014168684
97033,-2803,-1019,-6681,17914,-18455,-21765,-4547,21768,1810,83,1,16813,2020-11-02 15:59:23,2020-11-02 15:59:52,1,D7:F2:3B:06:4D:C8,83,83,1832.126194123076,-1019.0,7009.699252379383
97034,18176,-8443,-27919,-27662,2021,30191,30780,-15604,21010,83,1,16839,2020-11-02 15:59:23,2020-11-02 15:59:52,1,D7:F2:3B:06:4D:C8,83,83,11763.264784305551,27785.195069126195,16453.884726256052
97035,20206,1028,-2058,-15884,-24854,15093,-20678,9745,-29678,83,1,16864,2020-11-02 15:59:23,2020-11-02 15:59:52,1,D7:F2:3B:06:4D:C8,83,83,4802.931110098972,11624.778123073795,-15980.330733152816
97036,16345,-2814,-31241,18423,-18,-25089,17976,1300,17681,83,1,16890,2020-11-02 15:59:23,2020-11-02 15:59:52,1,D7:F2:3B:06:4D:C8,83,83,-17196.725000278126,-4815.962851194856,30531.243883614046
97037,8926,-27901,10739,-8711,2295,22286,31796,31508,-16371,83,1,16916,2020-11-02 15:59:23,2020-11-02 15:59:52,1,D7:F2:3B:06:4D:C8,83,83,13005.840310108208,22690.904145848162,17012.830007729317
97038,-28172,-7424,31988,4605,8956,9498,-25296,20498,29449,83,1,16941,2020-11-02 15:59:23,2020-11-02 15:59:52,1,D7:F2:3B:06:4D:C8,83,83,-11711.427405864046,-28645.256098944366,30237.415153135473
97039,13299,-3588,-14336,-23807,-11270,31258,46,21775,-15355,83,1,16967,2020-11-02 15:59:23,2020-11-02 15:59:52,1,D7:F2:3B:06:4D:C8,83,83,3058.297899339747,15304.459510446213,12315.777444075811
97040,5885,-31748,-28159,-20986,27644,-9958,4397,-757,-10494,83,-1,16992,2020-11-02 15:59:23,2020-11-02 15:59:52,1,D7:F2:3B:06:4D:C8,83,83,-23535.341755647096,-22105.57435229617,-28159.0
97041,3076,-19203,10756,-1782,17661,4887,30253,-15864,-27392,83,-1,17018,2020-11-02 15:59:23,2020-11-02 15:59:52,1,D7:F2:3B:06:4D:C8,83,83,9911.367541890195,-18921.58332716838,-6135.715022928374
97042,18182,25082,8705,25872,8960,25620,3119,-2555,-15106,83,-1,17043,2020-11-02 15:59:23,2020-11-02 15:59:52,1,D7:F2:3B:06:4D:C8,83,83,15240.616277541605,-26970.64076881997,8705.0
97043,9732,-11272,-25856,-10990,-7164,18707,-30927,11267,-32259,83,-1,17069,2020-11-02 15:59:23,2020-11-02 15:59:52,1,D7:F2:3B:06:4D:C8,83,83,-23548.557993980914,-3471.657672608756,-17992.096970846236
97044,16140,-30728,-13065,-17133,775,17426,31796,20992,22012,83,-1,17095,2020-11-02 15:59:23,2020-11-02 15:59:52,1,D7:F2:3B:06:4D:C8,83,83,15217.788193812356,19290.22993245096,-27779.66451635869
97045,-6890,24828,-25364,-13040,-3581,15626,25143,8190,22011,83,-1,17120,2020-11-02 15:59:23,2020-11-02 15:59:52,1,D7:F2:3B:06:4D:C8,83,83,10526.261635369367,34281.811528381615,4603.1939255556135
97046,8470,255,-21783,11789,22270,-2307,-19655,-18691,-262,83,-1,17146,2020-11-02 15:59:23,2020-11-02 15:59:52,1,D7:F2:3B:06:4D:C8,83,83,-11423.412056387295,-3326.4652222012014,-20118.28273276502
97047,521,5890,18399,26888,-16387,-21259,20795,26622,-8453,83,-1,17171,2020-11-02 15:59:23,2020-11-02 15:59:52,1,D7:F2:3B:06:4D:C8,83,83,-167.29315207241416,-15337.248073611778,11757.02243468819
97048,761,8197,-31257,-13307,24315,5877,18492,-14849,7933,83,-1,17223,2020-11-02 15:59:23,2020-11-02 15:59:52,1,D7:F2:3B:06:4D:C8,83,83,-12825.37027907477,-26829.715891501903,-12666.736019429618
97049,-782,7684,12539,-30710,-27390,19197,-31427,24064,-1027,83,-1,17224,2020-11-02 15:59:23,2020-11-02 15:59:52,1,D7:F2:3B:06:4D:C8,83,83,-7757.08010982089,-9844.291246901663,-7733.016165507248
97050,-1540,-25091,-6662,788,13064,-11513,5952,23295,-16899,83,-1,17248,2020-11-02 15:59:23,2020-11-02 15:59:52,1,D7:F2:3B:06:4D:C8,83,83,-15431.66780003241,-14612.943875549607,14987.915972525336
97051,5138,6395,17389,-4845,-9976,18442,25411,-23299,29948,83,-1,17274,2020-11-02 15:59:23,2020-11-02 15:59:52,1,D7:F2:3B:06:4D:C8,83,83,4179.436204838615,17528.6839736544,6704.471728737139
97052,-6117,-24068,4834,-3315,-28159,-17410,1094,-21508,-8965,83,-1,17299,2020-11-02 15:59:23,2020-11-02 15:59:52,1,D7:F2:3B:06:4D:C8,83,83,-17349.14979784407,-17525.732781787126,-5648.854817868761
97053,-17648,-21765,-28447,17927,-7181,-28946,-21062,-32515,-24835,83,-1,17325,2020-11-02 15:59:23,2020-11-02 15:59:52,1,D7:F2:3B:06:4D:C8,83,83,-29573.817238787342,7418.098652074166,25782.94173120863
97054,-9980,31481,-1049,-28156,-9745,30695,19643,-23041,13313,83,-1,17350,2020-11-02 15:59:23,2020-11-02 15:59:52,1,D7:F2:3B:06:4D:C8,83,83,23763.61355576344,22611.55297193344,3970.202132106626
97055,12286,3067,10471,31489,19701,7913,-9797,18945,1541,83,-1,17377,2020-11-02 15:59:23,2020-11-02 15:59:52,1,D7:F2:3B:06:4D:C8,83,83,-11728.86191802118,10468.149854021069,-4779.724128205642
97056,-31491,26878,-12572,25600,13302,11498,16060,24066,-31480,83,1,17404,2020-11-02 15:59:23,2020-11-02 15:59:52,1,D7:F2:3B:06:4D:C8,83,83,-767.347119737542,-1725.0632193773038,-43227.31178649653
97057,26612,29182,-27936,-30211,-2059,-4118,-31044,-29693,1548,83,1,17427,2020-11-02 15:59:23,2020-11-02 15:59:52,1,D7:F2:3B:06:4D:C8,83,83,26783.823883399178,35066.338433177305,-19828.929650208756
97058,-24,26622,24289,-20487,-13835,-6932,23740,-17148,18959,83,1,17453,2020-11-02 15:59:23,2020-11-02 15:59:52,1,D7:F2:3B:06:4D:C8,83,83,-32576.95123134792,3653.143128710155,14969.42800348553
97059,-32548,-4354,-8218,1270,10999,-526,-22341,12806,-3823,83,1,17478,2020-11-02 15:59:23,2020-11-02 15:59:52,1,D7:F2:3B:06:4D:C8,83,83,21501.27689922437,3150.7031039623507,25954.446741426844
97060,-18476,30206,-4376,-21001,7934,1791,28602,4359,-1774,83,1,17504,2020-11-02 15:59:23,2020-11-02 15:59:52,1,D7:F2:3B:06:4D:C8,83,83,-18476.0,-23055.726931273755,-19999.631688372116
97061,-10775,-27137,-4881,13048,-24579,-28923,-29883,-31737,20242,83,1,17530,2020-11-02 15:59:23,2020-11-02 15:59:52,1,D7:F2:3B:06:4D:C8,83,83,29469.78133536286,-1153.083928619773,2558.1126831039865
97062,-26380,21502,-11801,-20747,-26376,30722,836,28168,-25583,83,1,17555,2020-11-02 15:59:23,2020-11-02 15:59:52,1,D7:F2:3B:06:4D:C8,83,83,-33381.330142376726,5754.013086640745,-12250.801456411662
97063,-269,21245,28646,-3090,-12301,19198,-16575,-1015,23825,83,1,17581,2020-11-02 15:59:23,2020-11-02 15:59:52,1,D7:F2:3B:06:4D:C8,83,83,13197.89950273251,-11043.466255168129,-31238.96611264105
97064,-5,-6657,11234,-17173,20215,-14846,-27074,-32501,-18928,83,1,17606,2020-11-02 15:59:23,2020-11-02 15:59:52,1,D7:F2:3B:06:4D:C8,83,83,11169.360703020899,5784.724571448329,-3507.2458023774707
97065,18160,-21761,-23571,-19994,-19979,22533,23610,-25588,27407,83,1,17632,2020-11-02 15:59:23,2020-11-02 15:59:52,1,D7:F2:3B:06:4D:C8,83,83,-10745.017727218481,-6910.804757535154,-34578.95506872627
97066,-23052,-8446,25592,-23572,10488,-19700,-20939,-11764,-3572,83,1,17683,2020-11-02 15:59:23,2020-11-02 15:59:52,1,D7:F2:3B:06:4D:C8,83,83,31547.08338780614,11973.019872555484,-10913.679895168143
97067,17918,-9982,-4100,18930,-13832,-19699,-9935,3084,17674,83,1,17685,2020-11-02 15:59:23,2020-11-02 15:59:52,1,D7:F2:3B:06:4D:C8,83,83,-16490.71494303291,11283.417317727677,6184.32391629305
97068,9729,22783,23041,8697,12028,-7411,18735,-11254,5896,83,1,17709,2020-11-02 15:59:23,2020-11-02 15:59:52,1,D7:F2:3B:06:4D:C8,83,83,33464.581507891075,4354.8383494186,-2400.703741020083
97069,11528,13055,-2818,17918,-23555,-26613,3118,24073,-27898,83,1,17734,2020-11-02 15:59:23,2020-11-02 15:59:52,1,D7:F2:3B:06:4D:C8,83,83,-6348.724540610196,-12621.968856275289,10566.386889503454
97070,-6917,19965,-12025,-6142,-17922,15112,-15315,18184,-24315,83,1,17760,2020-11-02 15:59:23,2020-11-02 15:59:52,1,D7:F2:3B:06:4D:C8,83,83,11299.8774948457,16355.850991621835,13994.486269289868
97071,-2570,20217,-21753,25099,-22012,23054,-15570,-23546,1029,83,1,17785,2020-11-02 15:59:23,2020-11-02 15:59:52,1,D7:F2:3B:06:4D:C8,83,83,-5381.726737513621,-28193.187520212632,8044.015960504908
97072,16383,17656,16895,-20464,8200,-17388,-6096,-18941,28164,83,1,17811,2020-11-02 15:59:23,2020-11-02 15:59:52,1,D7:F2:3B:06:4D:C8,83,83,28051.831628162618,-3865.30755589388,7983.244315662965
97073,-6642,-24834,-2318,5648,23300,-13808,27187,-13824,23299,83,1,17836,2020-11-02 15:59:23,2020-11-02 15:59:52,1,D7:F2:3B:06:4D:C8,83,83,21221.654509422347,2420.7129701653967,-14491.320595404242
97074,-9454,-19455,-26639,12303,-26367,-1016,-12747,11519,20738,83,1,17862,2020-11-02 15:59:23,2020-11-02 15:59:52,1,D7:F2:3B:06:4D:C8,83,83,-27523.28127615808,20213.00483834505,-3378.592191804999
97075,-25066,31237,-27931,18445,-19200,18178,4408,27902,-8447,83,1,17888,2020-11-02 15:59:23,2020-11-02 15:59:52,1,D7:F2:3B:06:4D:C8,83,83,46558.51242717502,-14696.656329324553,-713.0913730469838
97076,-6135,-8187,4331,-1527,-16641,-3589,-15303,-29442,5634,83,1,17913,2020-11-02 15:59:23,2020-11-02 15:59:52,1,D7:F2:3B:06:4D:C8,83,83,3670.065798192168,7345.161306393482,7483.446894312812
97077,32263,-16894,-4627,-32501,-29953,-11526,25403,-9730,-18430,83,1,17939,2020-11-02 15:59:23,2020-11-02 15:59:52,1,D7:F2:3B:06:4D:C8,83,83,-3022.7700448050246,-8048.0443493519915,35690.466197670954
97078,-13809,18431,2800,-7410,-1286,21494,28733,-21249,-31485,83,1,17964,2020-11-02 15:59:23,2020-11-02 15:59:52,1,D7:F2:3B:06:4D:C8,83,83,-3034.5353949192345,17638.14957797956,14762.029548873077
97079,19728,5117,2795,-10229,-15364,-23826,-28097,-768,21253,83,1,17990,2020-11-02 15:59:23,2020-11-02 15:59:52,1,D7:F2:3B:06:4D:C8,83,83,-18760.062743130562,8189.332359284583,2045.6244481768733
97080,27910,24571,-12830,-4343,-23300,10471,-31679,8706,30984,83,1,18016,2020-11-02 15:59:23,2020-11-02 15:59:52,1,D7:F2:3B:06:4D:C8,83,83,27514.128471800806,-25068.916652575375,-12721.367587781959
97081,32251,-17159,18656,-26618,1785,19171,22083,-24829,-31988,83,1,18041,2020-11-02 15:59:23,2020-11-02 15:59:52,1,D7:F2:3B:06:4D:C8,83,83,-24229.46310566913,-31303.692950042627,-10752.513348072143
97082,13553,-25605,-9758,21249,-3082,-16924,-14268,22789,-13808,83,1,18067,2020-11-02 15:59:23,2020-11-02 15:59:52,1,D7:F2:3B:06:4D:C8,83,83,5598.650565856828,7949.893652574729,-28982.28253181904
97083,14055,12798,3302,-27651,-5897,12523,-23227,-4602,31508,83,1,18092,2020-11-02 15:59:23,2020-11-02 15:59:52,1,D7:F2:3B:06:4D:C8,83,83,-6431.162171521985,-16559.469747723928,7527.227098859219
97084,-24610,16383,-29976,19450,9722,-27917,-10683,9480,1559,83,1,18118,2020-11-02 15:59:23,2020-11-02 15:59:52,1,D7:F2:3B:06:4D:C8,83,83,-38525.75639225416,-16372.161563563772,4509.299850448329
97085,-5415,-18178,-27915,-14599,-13829,26876,19525,5385,10520,83,1,18144,2020-11-02 15:59:23,2020-11-02 15:59:52,1,D7:F2:3B:06:4D:C8,83,83,-21383.78054564548,7295.208091330631,25070.36103608917
97086,-18473,-5891,-527,18426,16381,23812,25924,-22775,-4841,83,1,18169,2020-11-02 15:59:23,2020-11-02 15:59:52,1,D7:F2:3B:06:4D:C8,83,83,17610.36110573195,3451.77965548026,-7361.639622783494
97087,-15394,-13317,-10236,5630,14590,22796,-702,2058,22038,83,1,18195,2020-11-02 15:59:23,2020-11-02 15:59:52,1,D7:F2:3B:06:4D:C8,83,83,17119.23964000051,11011.328673154536,-10236.0
97088,-30211,26880,-11018,-12803,-25617,-18171,-8895,27147,21524,83,1,18220,2020-11-02 15:59:23,2020-11-02 15:59:52,1,D7:F2:3B:06:4D:C8,83,83,-41697.57743688079,638.7561471615663,-4187.99134189568
97089,-32005,25344,24035,-12811,-4124,11510,-5824,15,9492,83,1,18246,2020-11-02 15:59:23,2020-11-02 15:59:52,1,D7:F2:3B:06:4D:C8,83,83,-45833.53690025014,-8605.209754624482,-8340.074717430589
97090,-21261,-30465,-8204,17907,2019,15861,23103,-14317,-16620,83,-1,18272,2020-11-02 15:59:23,2020-11-02 15:59:52,1,D7:F2:3B:06:4D:C8,83,83,19533.063698991187,9748.768860223085,-31158.833261871303
97091,-11558,21247,-25104,13557,-21017,23294,-4804,-2281,-8173,83,-1,18297,2020-11-02 15:59:23,2020-11-02 15:59:52,1,D7:F2:3B:06:4D:C8,83,83,11633.919962989417,21205.524735190033,-25104.0
97092,21469,-18431,-25097,-20493,-29206,1288,14902,23578,29966,83,-1,18323,2020-11-02 15:59:23,2020-11-02 15:59:52,1,D7:F2:3B:06:4D:C8,83,83,26613.290567233606,17522.637018902395,20375.698468709877
97093,23263,-26116,2821,29950,6900,-12518,-21716,32537,8709,83,-1,18348,2020-11-02 15:59:23,2020-11-02 15:59:52,1,D7:F2:3B:06:4D:C8,83,83,-18988.084020270868,19016.8017278632,22560.686675770165
97094,-13059,-20225,2299,3845,-23817,5149,19752,-24811,-30977,83,-1,18374,2020-11-02 15:59:23,2020-11-02 15:59:52,1,D7:F2:3B:06:4D:C8,83,83,-17569.046129896844,10049.906807015686,13236.370282515389
97095,-23814,-27397,-18685,-14583,-14343,16664,807,4882,25852,83,-1,18399,2020-11-02 15:59:23,2020-11-02 15:59:52,1,D7:F2:3B:06:4D:C8,83,83,-5168.248776705255,35930.368904063376,-18685.0
97096,7940,16124,-13060,31754,8957,-1004,-25049,-13810,-9990,83,-1,18428,2020-11-02 15:59:23,2020-11-02 15:59:52,1,D7:F2:3B:06:4D:C8,83,83,-12525.971510017953,18294.818143048018,-1410.7596687670439
97097,-22776,21757,24323,2316,-18948,15630,-25304,20236,-23815,83,-1,18476,2020-11-02 15:59:23,2020-11-02 15:59:52,1,D7:F2:3B:06:4D:C8,83,83,9903.013063563401,38452.767766209174,2652.647240187969
97098,-10746,23804,-7168,-30705,26366,13833,21034,-13558,-19464,83,-1,18478,2020-11-02 15:59:23,2020-11-02 15:59:52,1,D7:F2:3B:06:4D:C8,83,83,1801.9897350064894,23039.093786624082,-14122.32794145748
97099,-20731,-32518,12543,7699,4,28936,-7636,32521,24056,83,-1,18502,2020-11-02 15:59:23,2020-11-02 15:59:52,1,D7:F2:3B:06:4D:C8,83,83,19933.6134539856,33811.678897828984,-10195.241967564625
97100,30476,-2052,-4874,-15085,19719,-4346,3120,-5625,-20744,83,-1,18527,2020-11-02 15:59:23,2020-11-02 15:59:52,1,D7:F2:3B:06:4D:C8,83,83,-30460.589582934022,-2269.3087626084,-4874.0
97101,-25067,-13054,-29209,-18418,8451,13310,-5070,2567,11257,83,1,18553,2020-11-02 15:59:23,2020-11-02 15:59:52,1,D7:F2:3B:06:4D:C8,83,83,-2559.1956655143786,-28146.25947698224,-29209.0
97102,9489,19462,18148,-31995,31487,-27406,-16332,-14585,18426,83,1,18579,2020-11-02 15:59:23,2020-11-02 15:59:52,1,D7:F2:3B:06:4D:C8,83,83,-20005.58628843945,-5636.0947078338995,19135.60614927393
97103,28671,25608,6112,12286,27390,-30228,-13003,-23543,19964,83,1,18604,2020-11-02 15:59:23,2020-11-02 15:59:52,1,D7:F2:3B:06:4D:C8,83,83,38624.313300292284,-355.1553046217996,-4815.468387443083
97104,4336,-31993,12277,-28158,8198,21489,-7626,7691,-12802,83,1,18630,2020-11-02 15:59:23,2020-11-02 15:59:52,1,D7:F2:3B:06:4D:C8,83,83,-19049.18434494125,-24910.010136905054,14480.940741945346
97105,-15623,13570,13559,9741,22789,9463,24377,15371,1281,83,1,18655,2020-11-02 15:59:23,2020-11-02 15:59:52,1,D7:F2:3B:06:4D:C8,83,83,-10895.728928723416,1391.5410987609848,22167.90956500497
97106,19200,-2818,14310,-17397,3841,21492,23868,-16373,-13054,83,1,18681,2020-11-02 15:59:23,2020-11-02 15:59:52,1,D7:F2:3B:06:4D:C8,83,83,12115.04241407019,-3978.486421257554,20463.494743106556
97107,14333,-19712,-16666,-29949,11016,7925,-29122,-22773,4101,83,1,18706,2020-11-02 15:59:23,2020-11-02 15:59:52,1,D7:F2:3B:06:4D:C8,83,83,-10854.920754609011,10389.88296168475,25416.02676371056
97108,20476,9214,30952,12290,-25591,9203,9280,-22774,-30713,83,1,18732,2020-11-02 15:59:23,2020-11-02 15:59:52,1,D7:F2:3B:06:4D:C8,83,83,13471.5727173773,-28726.58675182704,-21342.226175124535
97109,-29450,-14085,-15389,-4609,257,-9748,-18367,-32502,-31990,83,1,18758,2020-11-02 15:59:23,2020-11-02 15:59:52,1,D7:F2:3B:06:4D:C8,83,83,-8973.714500515358,11165.520130824052,33125.7400562071
97110,-20500,23546,-22557,28410,1018,27114,-3006,-24053,3598,83,1,18783,2020-11-02 15:59:23,2020-11-02 15:59:52,1,D7:F2:3B:06:4D:C8,83,83,-3671.4996589568927,23546.0,30258.69030963302
97111,22750,25084,9190,25845,-28679,-10513,25155,2317,18961,83,1,18809,2020-11-02 15:59:23,2020-11-02 15:59:52,1,D7:F2:3B:06:4D:C8,83,83,-21190.01789057393,12556.981181228795,-24990.618668040664
97112,14034,13314,-6664,14836,12542,-19461,-28862,-3059,-3310,83,1,18834,2020-11-02 15:59:23,2020-11-02 15:59:52,1,D7:F2:3B:06:4D:C8,83,83,14034.0,10166.949703612549,10876.792988938085
97113,14287,-19194,2050,-1031,516,1547,-15552,-13299,7698,83,1,18860,2020-11-02 15:59:23,2020-11-02 15:59:52,1,D7:F2:3B:06:4D:C8,83,83,-19657.664914651672,-12381.536181542244,6083.114078203124
97114,18642,9990,-26879,-12032,-14586,-16360,-17858,18188,-242,83,-1,18885,2020-11-02 15:59:23,2020-11-02 15:59:52,1,D7:F2:3B:06:4D:C8,83,83,-14899.184951762461,-13683.189737679622,-27578.787344186003
97115,13275,28155,6912,9991,24585,-17374,24125,-29175,-29430,83,-1,18911,2020-11-02 15:59:23,2020-11-02 15:59:52,1,D7:F2:3B:06:4D:C8,83,83,6674.538495972438,-23873.25720143596,-20055.510974788653
97116,27649,-5121,-29988,9989,-30204,-2782,-8388,24838,-24315,83,-1,18937,2020-11-02 15:59:23,2020-11-02 15:59:52,1,D7:F2:3B:06:4D:C8,83,83,27120.777974561854,11437.191944215621,28698.885492048117
97117,-13285,-22266,-23600,-28936,22252,-3065,32059,1799,-12799,83,-1,18962,2020-11-02 15:59:23,2020-11-02 15:59:52,1,D7:F2:3B:06:4D:C8,83,83,-20792.59009141324,24126.066942416073,14656.9803227173
97118,-1768,23303,17623,-1566,4329,29683,10040,-8951,-6912,83,-1,18988,2020-11-02 15:59:23,2020-11-02 15:59:52,1,D7:F2:3B:06:4D:C8,83,83,-15643.990290376552,20220.874991065386,14251.580417283927
97119,6146,30218,-22283,4321,-3353,3818,9523,27918,28928,83,-1,19013,2020-11-02 15:59:23,2020-11-02 15:59:52,1,D7:F2:3B:06:4D:C8,83,83,29622.88238152765,23518.298786162304,-4099.681769964039
97120,18160,-31738,1029,29419,-6164,-17681,16942,-16878,2559,83,-1,19039,2020-11-02 15:59:23,2020-11-02 15:59:52,1,D7:F2:3B:06:4D:C8,83,83,19073.818951624482,12272.00124612958,28700.740426261564
97121,30184,-5377,21756,-16400,-8976,6903,-1751,19733,-17668,83,-1,19065,2020-11-02 15:59:23,2020-11-02 15:59:52,1,D7:F2:3B:06:4D:C8,83,83,25784.605893381497,9106.860731221466,-25797.84307931832
97122,4098,14337,-12573,-11278,8437,-28164,13605,22294,15097,83,-1,19090,2020-11-02 15:59:23,2020-11-02 15:59:52,1,D7:F2:3B:06:4D:C8,83,83,-4355.054691622124,-3619.53809290864,-18664.29598530208
97123,4077,-24067,-10998,-8458,24313,-13565,30752,28182,-2827,83,-1,19116,2020-11-02 15:59:23,2020-11-02 15:59:52,1,D7:F2:3B:06:4D:C8,83,83,-17769.709451200262,-17373.14699028866,-9960.402184337137
97124,20468,16890,-10997,22018,-15362,-1780,-16609,-4844,-32267,83,-1,19141,2020-11-02 15:59:23,2020-11-02 15:59:52,1,D7:F2:3B:06:4D:C8,83,83,22134.813194371276,14796.987509205483,-10781.666777576838
97125,-3334,-31754,-24298,-31220,5381,27156,-21983,27410,-28426,83,-1,19167,2020-11-02 15:59:23,2020-11-02 15:59:52,1,D7:F2:3B:06:4D:C8,83,83,-8504.291851314285,-33001.497756238896,-21175.52931930223
97126,25607,-20492,-7414,-22250,-18936,32276,31781,14351,-1033,83,-1,19192,2020-11-02 15:59:23,2020-11-02 15:59:52,1,D7:F2:3B:06:4D:C8,83,83,5299.356123134364,-12922.270076864941,-30586.592973732128
97127,-32245,19702,32257,-19174,32010,-24815,-5591,8460,1273,83,-1,19218,2020-11-02 15:59:23,2020-11-02 15:59:52,1,D7:F2:3B:06:4D:C8,83,83,9721.28170423015,19702.0,44561.76338551921
97128,30994,13050,-7178,-11496,30220,-16884,21038,15881,-4359,83,1,19244,2020-11-02 15:59:23,2020-11-02 15:59:52,1,D7:F2:3B:06:4D:C8,83,83,-4761.859680058527,-11906.442662782087,-31906.355722728906
97129,-27373,-14853,23793,-21994,-32758,27908,17970,8455,-10246,83,1,19269,2020-11-02 15:59:23,2020-11-02 15:59:52,1,D7:F2:3B:06:4D:C8,83,83,-10105.165773735294,36738.49580119029,9174.319481642917
97130,16660,20986,23024,-28139,4358,27899,-2763,16646,-5637,83,1,19295,2020-11-02 15:59:23,2020-11-02 15:59:52,1,D7:F2:3B:06:4D:C8,83,83,14002.657658359105,20986.0,-24730.259895577263
97131,-31218,-16649,8937,-13804,-27646,29939,-15303,-28154,-30979,83,1,19320,2020-11-02 15:59:23,2020-11-02 15:59:52,1,D7:F2:3B:06:4D:C8,83,83,-6196.621191374557,32125.287651690804,16161.38834094181
97132,26375,-9741,-19225,15892,-13563,-10256,-20931,-7930,-5121,83,1,19346,2020-11-02 15:59:23,2020-11-02 15:59:52,1,D7:F2:3B:06:4D:C8,83,83,-2921.6402722505027,6930.484754433991,33219.88456012636
97133,-23545,6641,30943,17685,-767,31981,-7615,-8186,-17662,83,1,19372,2020-11-02 15:59:23,2020-11-02 15:59:52,1,D7:F2:3B:06:4D:C8,83,83,26047.049575283447,-26212.34457765245,-13798.67222471571
97134,-14331,-6162,-15406,18449,16124,24038,6470,31239,24838,83,1,19397,2020-11-02 15:59:23,2020-11-02 15:59:52,1,D7:F2:3B:06:4D:C8,83,83,1481.0786815086426,-13024.643505324235,-17574.34802484564
97135,-20742,24302,11727,13062,-32515,10721,-12356,32007,9227,83,1,19423,2020-11-02 15:59:23,2020-11-02 15:59:52,1,D7:F2:3B:06:4D:C8,83,83,10335.585806626008,17114.911355090524,-27542.617383634122
97136,4592,12528,10714,16895,-16902,23263,-15938,4359,23056,83,1,19448,2020-11-02 15:59:23,2020-11-02 15:59:52,1,D7:F2:3B:06:4D:C8,83,83,425.81892104534745,-6435.409306364236,-15850.275370038225
97137,28904,29938,-10022,5881,5365,481,-11841,12807,-19691,83,1,19474,2020-11-02 15:59:23,2020-11-02 15:59:52,1,D7:F2:3B:06:4D:C8,83,83,29615.039126517273,26011.16417836408,-16689.348088557566
97138,18142,24051,20965,-32270,10484,12006,-16705,-9721,-26086,83,1,19500,2020-11-02 15:59:23,2020-11-02 15:59:52,1,D7:F2:3B:06:4D:C8,83,83,-30087.115719476642,20982.888576793797,-1264.058802697832
97139,-24362,-17420,497,-8209,-26128,2798,-7234,14857,-30178,83,1,19525,2020-11-02 15:59:23,2020-11-02 15:59:52,1,D7:F2:3B:06:4D:C8,83,83,15350.399849513,20186.039049791667,15940.498892454945
97140,-18740,14580,-22277,10225,4081,-6919,-22851,29451,1313,83,1,19551,2020-11-02 15:59:23,2020-11-02 15:59:52,1,D7:F2:3B:06:4D:C8,83,83,-24490.99038232938,-17577.821019984156,-12297.980618054862
97141,-24356,-22026,-22783,25843,8433,29954,-12869,-12531,26657,83,1,19576,2020-11-02 15:59:23,2020-11-02 15:59:52,1,D7:F2:3B:06:4D:C8,83,83,2172.4740893139424,20186.239786037655,-34427.03270152469
97142,240,-9997,27908,8953,-23,20224,23738,-9968,15393,83,1,19602,2020-11-02 15:59:23,2020-11-02 15:59:52,1,D7:F2:3B:06:4D:C8,83,83,-28939.393121615045,-3221.9483597922535,-5566.385498638413
97143,26099,21238,-23061,-13321,25307,-6924,7867,27413,15907,83,1,19653,2020-11-02 15:59:23,2020-11-02 15:59:52,1,D7:F2:3B:06:4D:C8,83,83,-19275.739888409327,-32086.563922439098,16214.75973937373
97144,-16664,29677,32260,15093,16855,2544,-16961,1307,19754,83,-1,19655,2020-11-02 15:59:23,2020-11-02 15:59:52,1,D7:F2:3B:06:4D:C8,83,83,14100.460462735577,-19165.602244956943,-40410.116682916574
97145,-10265,-19220,-29948,11258,-22304,30708,20689,15390,-23491,83,-1,19679,2020-11-02 15:59:23,2020-11-02 15:59:52,1,D7:F2:3B:06:4D:C8,83,83,-36400.39045446738,6569.31147650918,-1875.3800913213763
97146,2515,27115,6410,-14335,20212,-16886,-17186,6431,703,83,-1,19704,2020-11-02 15:59:23,2020-11-02 15:59:52,1,D7:F2:3B:06:4D:C8,83,83,-21632.736365686906,-5455.224967023146,-16879.03397389361
97147,-26391,15599,9201,-26870,-25343,7970,21757,15650,30940,83,-1,19730,2020-11-02 15:59:23,2020-11-02 15:59:52,1,D7:F2:3B:06:4D:C8,83,83,-14720.044189365935,-9257.245364037197,26871.840099500558
97148,-6674,-25102,2310,23312,-27395,21027,-15841,-10979,765,83,-1,19755,2020-11-02 15:59:23,2020-11-02 15:59:52,1,D7:F2:3B:06:4D:C8,83,83,-22003.802277003204,12546.594946973693,6197.13002857959
97149,-17673,-5645,-7172,-22764,21244,-28384,-21982,-14312,-5124,83,-1,19781,2020-11-02 15:59:23,2020-11-02 15:59:52,1,D7:F2:3B:06:4D:C8,83,83,173.97890199164885,4576.394945504147,-19356.262000820974
97150,31236,-4359,-29708,30737,3324,-22501,-9180,15124,-3589,83,-1,19806,2020-11-02 15:59:23,2020-11-02 15:59:52,1,D7:F2:3B:06:4D:C8,83,83,-24258.891672464022,-27353.59776795221,-23249.53128501165
97151,-19699,10750,-31757,9742,23034,-31982,10278,-6896,25594,83,-1,19832,2020-11-02 15:59:23,2020-11-02 15:59:52,1,D7:F2:3B:06:4D:C8,83,83,27114.332595979344,-18374.92006655218,-20959.375716428916
97152,-21236,-27649,-16651,17932,-14342,6921,9255,5903,-12808,83,-1,19858,2020-11-02 15:59:23,2020-11-02 15:59:52,1,D7:F2:3B:06:4D:C8,83,83,15228.954053121975,35504.616455226824,438.0260439020849
97153,-4601,31230,-2056,-9462,-29948,-26616,-11992,-15347,-24840,83,-1,19883,2020-11-02 15:59:23,2020-11-02 15:59:52,1,D7:F2:3B:06:4D:C8,83,83,-6370.689115868766,30119.064894460713,7277.739145656132
97154,-12531,28414,-4872,-12278,17930,-28153,8491,2060,-17415,83,-1,19909,2020-11-02 15:59:23,2020-11-02 15:59:52,1,D7:F2:3B:06:4D:C8,83,83,15150.633633567824,-17488.757617753865,21277.203728141994
97155,-13302,29181,9469,-9202,21001,18434,-18899,-15350,-262,83,-1,19934,2020-11-02 15:59:23,2020-11-02 15:59:52,1,D7:F2:3B:06:4D:C8,83,83,17804.064252483593,-27552.705686978716,-6480.7122617939585
97156,15371,22785,-2065,-27635,16901,-30214,-26064,26890,20732,83,-1,19960,2020-11-02 15:59:23,2020-11-02 15:59:52,1,D7:F2:3B:06:4D:C8,83,83,25758.60529378116,9793.425904934104,-520.7238843713197
97157,11522,23047,-2597,263,6918,-4105,-5582,-14326,-10499,83,-1,19986,2020-11-02 15:59:23,2020-11-02 15:59:52,1,D7:F2:3B:06:4D:C8,83,83,18078.61100229757,14499.981419382955,11557.658286398433
97158,-7688,29711,-18957,13572,-12531,7678,27444,12042,-17921,83,-1,20011,2020-11-02 15:59:23,2020-11-02 15:59:52,1,D7:F2:3B:06:4D:C8,83,83,1154.273643150238,34272.98867957961,11191.363336347207
97159,24314,19979,32758,-9456,-15859,20994,-18634,26632,15105,83,-1,20037,2020-11-02 15:59:23,2020-11-02 15:59:52,1,D7:F2:3B:06:4D:C8,83,83,9293.686564188467,16113.364317872358,41441.579137457345
97160,-21502,14594,20204,8728,-27899,-2051,24634,16135,1794,83,-1,20062,2020-11-02 15:59:23,2020-11-02 15:59:52,1,D7:F2:3B:06:4D:C8,83,83,-13103.37473713415,5751.1626123178285,29643.68659773801
97161,7170,-4354,17640,-10737,-18430,-12039,-16323,10503,-2046,83,-1,20088,2020-11-02 15:59:23,2020-11-02 15:59:52,1,D7:F2:3B:06:4D:C8,83,83,1028.3237031310546,17851.909935531283,-7860.513851858434
97162,24316,3583,28911,-245,-7415,27130,9792,28934,17924,83,-1,20114,2020-11-02 15:59:23,2020-11-02 15:59:52,1,D7:F2:3B:06:4D:C8,83,83,14022.798211105654,20619.3149477182,28603.437685310077
97163,14846,-3332,-24596,19215,3081,22009,-23742,773,-29691,83,-1,20139,2020-11-02 15:59:23,2020-11-02 15:59:52,1,D7:F2:3B:06:4D:C8,83,83,-15726.948969939805,20134.16619603689,13555.352584395383
97164,28414,-24071,-9497,32269,13568,10995,17221,-23292,14855,83,1,20165,2020-11-02 15:59:23,2020-11-02 15:59:52,1,D7:F2:3B:06:4D:C8,83,83,-17049.61068196174,-23230.16332633177,-25428.954627068062
97165,-28163,-10249,13283,-14071,24061,-21778,-4422,-9724,-19703,83,1,20190,2020-11-02 15:59:23,2020-11-02 15:59:52,1,D7:F2:3B:06:4D:C8,83,83,24683.31799627433,13871.125368863044,-16521.51181629829
97166,-24842,19706,-22816,2566,-2310,19436,-14660,11525,-17652,83,1,20216,2020-11-02 15:59:23,2020-11-02 15:59:52,1,D7:F2:3B:06:4D:C8,83,83,-6736.387926900194,28279.487601221073,26094.308090284685
97167,-27664,-17665,-29729,11521,28666,-2835,-1603,-27131,-10737,83,1,20241,2020-11-02 15:59:23,2020-11-02 15:59:52,1,D7:F2:3B:06:4D:C8,83,83,-17250.8756039058,-5828.012730249855,40368.35543485284
97168,-10269,-7677,22248,4095,16893,18676,29118,-10235,15890,83,1,20267,2020-11-02 15:59:23,2020-11-02 15:59:52,1,D7:F2:3B:06:4D:C8,83,83,-10322.195352893237,-23478.556445111055,-1253.7401447043771
97169,-1318,27910,-22297,26622,-5631,28926,27582,-11771,7955,83,1,20293,2020-11-02 15:59:23,2020-11-02 15:59:52,1,D7:F2:3B:06:4D:C8,83,83,33063.83827653779,-13502.363511803025,1526.5028719543388
97170,17124,-12534,5859,-20739,-12539,26375,-4931,22021,13842,83,1,20318,2020-11-02 15:59:23,2020-11-02 15:59:52,1,D7:F2:3B:06:4D:C8,83,83,18107.83850998132,-9447.172529582922,-8216.905055599176
97171,-15114,30472,18397,15351,-771,-16380,-15428,16645,4625,83,1,20344,2020-11-02 15:59:23,2020-11-02 15:59:52,1,D7:F2:3B:06:4D:C8,83,83,-25866.718672994462,4047.5183580475423,28459.723281041017
97172,13573,28165,10206,-27662,28404,-29703,6587,24838,27921,83,1,20369,2020-11-02 15:59:23,2020-11-02 15:59:52,1,D7:F2:3B:06:4D:C8,83,83,25268.064589043104,19113.43178451947,-8823.69692036545
97173,-19471,-19204,-1308,28906,-12308,22003,26949,-7160,17683,83,1,20395,2020-11-02 15:59:23,2020-11-02 15:59:52,1,D7:F2:3B:06:4D:C8,83,83,21602.69373311283,-14758.946956777552,-8069.784953786202
97174,-9236,11774,9708,29930,-4112,-4101,31042,-27637,20500,83,1,20446,2020-11-02 15:59:23,2020-11-02 15:59:52,1,D7:F2:3B:06:4D:C8,83,83,-1365.8213329277537,-12582.247598175449,12569.710158342059
97175,12782,19453,-3097,-1048,22258,513,-3010,-24563,-6381,83,1,20448,2020-11-02 15:59:23,2020-11-02 15:59:52,1,D7:F2:3B:06:4D:C8,83,83,10588.608142154877,19513.138042111248,-7649.115201211332
97176,23020,1788,23542,-3348,9461,-32503,-27846,271,-1775,83,1,20474,2020-11-02 15:59:23,2020-11-02 15:59:52,1,D7:F2:3B:06:4D:C8,83,83,23020.0,-18985.359138643384,-14034.915260760577
97177,22258,-27911,24055,18674,15096,-29424,18742,-7666,-10994,83,1,20497,2020-11-02 15:59:23,2020-11-02 15:59:52,1,D7:F2:3B:06:4D:C8,83,83,39510.36433783543,-16675.45430194976,3734.4134365503014
97178,-25093,-27145,9724,23798,8954,-17133,-24270,-27123,-31733,83,1,20523,2020-11-02 15:59:23,2020-11-02 15:59:52,1,D7:F2:3B:06:4D:C8,83,83,-11079.554665430354,-847.6466356532201,36573.08865268021
97179,30211,4600,30464,29690,18170,-27120,7472,-10485,-12792,83,1,20549,2020-11-02 15:59:23,2020-11-02 15:59:52,1,D7:F2:3B:06:4D:C8,83,83,-20723.03095938202,10346.787164178124,36406.31538944436
97180,24575,-32522,-5882,-7680,15613,3856,-10194,9482,-18170,83,1,20574,2020-11-02 15:59:23,2020-11-02 15:59:52,1,D7:F2:3B:06:4D:C8,83,83,-36473.27842445693,17549.76390075271,-7610.176147756497
97181,3333,-13577,-8700,-14073,31489,-13809,4911,1032,24069,83,1,20600,2020-11-02 15:59:23,2020-11-02 15:59:52,1,D7:F2:3B:06:4D:C8,83,83,-12453.701667134159,6352.096723603934,-8700.0
97182,23041,31481,9727,-18932,17665,-12788,29744,6662,26628,83,1,20625,2020-11-02 15:59:23,2020-11-02 15:59:52,1,D7:F2:3B:06:4D:C8,83,83,20766.386429248887,-3888.009506884172,-34208.12984869951
97183,-25598,-22278,25849,11279,-18175,29963,31026,-32252,30979,83,1,20651,2020-11-02 15:59:23,2020-11-02 15:59:52,1,D7:F2:3B:06:4D:C8,83,83,23454.929495492615,-14184.808733500453,32686.3147594751
97184,-254,19962,29436,6929,-15360,27657,-10956,12291,-27646,83,1,20676,2020-11-02 15:59:23,2020-11-02 15:59:52,1,D7:F2:3B:06:4D:C8,83,83,-26446.42217206632,-23774.937520580435,602.624418137726
97185,-13050,-11017,-18695,23,24065,-12537,-6601,9730,-18687,83,1,20702,2020-11-02 15:59:23,2020-11-02 15:59:52,1,D7:F2:3B:06:4D:C8,83,83,4612.18268912121,22560.455659705287,10532.493782036727
97186,16646,18932,5094,-31208,-29694,29190,-15813,21249,-512,83,1,20728,2020-11-02 15:59:23,2020-11-02 15:59:52,1,D7:F2:3B:06:4D:C8,83,83,-19207.924007425223,-3246.5308172604773,16792.095431409252
97187,29452,14068,-23575,-25580,-13567,-15867,11839,-26624,15360,83,-1,20753,2020-11-02 15:59:23,2020-11-02 15:59:52,1,D7:F2:3B:06:4D:C8,83,83,-13276.18896902433,-8435.312646879303,-37063.430224523945
97188,1305,31988,-4394,30743,7682,-10241,-18366,6144,-5889,83,-1,20779,2020-11-02 15:59:23,2020-11-02 15:59:52,1,D7:F2:3B:06:4D:C8,83,83,-26863.035250944413,-17922.367652252666,-1186.7939349378262
97189,19212,3831,-26402,-1003,17404,29943,7750,22016,-14592,83,-1,20804,2020-11-02 15:59:23,2020-11-02 15:59:52,1,D7:F2:3B:06:4D:C8,83,83,30647.001201115687,8604.713391864261,8219.691832586272
97190,-13305,14836,21983,-2025,16890,-14862,9917,-7424,-27134,83,-1,20830,2020-11-02 15:59:23,2020-11-02 15:59:52,1,D7:F2:3B:06:4D:C8,83,83,26031.14619678325,-14102.952211327793,1966.818905415931
97191,-28668,-29447,-6699,18703,-16136,-14097,16832,24321,7173,83,-1,20855,2020-11-02 15:59:23,2020-11-02 15:59:52,1,D7:F2:3B:06:4D:C8,83,83,4496.07126667456,40956.6508125261,-6016.205730008622
97192,-3062,-20741,-19238,-13557,-13317,30954,20674,2561,5640,83,-1,20881,2020-11-02 15:59:23,2020-11-02 15:59:52,1,D7:F2:3B:06:4D:C8,83,83,-3062.0,23248.301087045566,16118.505562429662
97193,7936,504,-23077,-24312,21751,-13340,-6205,18176,-245,83,-1,20907,2020-11-02 15:59:23,2020-11-02 15:59:52,1,D7:F2:3B:06:4D:C8,83,83,-9675.992409986482,-19146.313554254284,11643.705989248554
97194,-21251,19447,26075,25858,-11274,-21533,-26172,-24065,29456,83,-1,20932,2020-11-02 15:59:23,2020-11-02 15:59:52,1,D7:F2:3B:06:4D:C8,83,83,-27671.48090032195,-20835.268540434205,17603.328225966532
97195,-28938,-11785,32479,12027,-4874,8420,3780,-9218,-7404,83,-1,20958,2020-11-02 15:59:23,2020-11-02 15:59:52,1,D7:F2:3B:06:4D:C8,83,83,-33131.04254089612,29786.678346192082,-6802.008766079598
97196,15597,9975,-2332,-19209,-269,8424,-20286,-11778,12569,83,-1,20983,2020-11-02 15:59:23,2020-11-02 15:59:52,1,D7:F2:3B:06:4D:C8,83,83,12320.709859385155,-2400.4093548035717,13807.367652460804
97197,-22556,18422,-32022,11765,-1549,25073,3009,-16897,-28132,83,-1,21009,2020-11-02 15:59:23,2020-11-02 15:59:52,1,D7:F2:3B:06:4D:C8,83,83,-39109.794681395804,17098.599067018404,-7184.258759567485
97198,7399,-30220,-6926,22517,29684,-20742,27327,14081,24094,83,1,21035,2020-11-02 15:59:23,2020-11-02 15:59:52,1,D7:F2:3B:06:4D:C8,83,83,-3289.0530454830005,-26009.065413283737,-18129.360810340964
97199,4855,-6154,18925,-27405,-27924,16892,2750,26371,19743,83,1,21060,2020-11-02 15:59:23,2020-11-02 15:59:52,1,D7:F2:3B:06:4D:C8,83,83,18189.288983634964,3623.3884644015843,-8695.929410123865
97200,-247,-10505,-18722,-15381,18908,-9235,7356,26631,-15839,83,1,21086,2020-11-02 15:59:23,2020-11-02 15:59:52,1,D7:F2:3B:06:4D:C8,83,83,3127.0769658358904,-17384.97179489823,12203.010421217039
97201,-29963,19950,-20231,-27674,1226,28386,-8262,15374,-5594,83,1,21111,2020-11-02 15:59:23,2020-11-02 15:59:52,1,D7:F2:3B:06:4D:C8,83,83,-12735.082179515975,-6244.768491579167,38780.12091739213
97202,-13075,17649,-10456,7414,-15926,15596,16573,-29418,-10195,83,1,21137,2020-11-02 15:59:23,2020-11-02 15:59:52,1,D7:F2:3B:06:4D:C8,83,83,10385.339819592435,-12170.823032713732,18324.479407010524
97203,9181,9970,14588,-16385,25309,-14867,-5431,-16101,-18373,83,1,21162,2020-11-02 15:59:23,2020-11-02 15:59:52,1,D7:F2:3B:06:4D:C8,83,83,18321.458500395238,-7459.122825792514,2277.509624136871
97204,9161,-16923,10748,-4091,23541,2839,-9262,31518,-24764,83,1,21188,2020-11-02 15:59:23,2020-11-02 15:59:52,1,D7:F2:3B:06:4D:C8,83,83,10942.246989843788,-12517.086968412976,14471.389658164851
97205,-18965,-20513,-11263,21266,28927,-7894,-3787,18209,-6120,83,1,21214,2020-11-02 15:59:23,2020-11-02 15:59:52,1,D7:F2:3B:06:4D:C8,83,83,-7975.58150580913,-25544.55057102691,13826.6264420662
97206,-17924,-30745,-8457,17430,14334,-20953,5417,-19429,-31992,83,1,21239,2020-11-02 15:59:23,2020-11-02 15:59:52,1,D7:F2:3B:06:4D:C8,83,83,34854.143253161055,9438.988258763486,5842.931519284908
97207,11792,15604,-15638,22291,29949,-26083,3625,-12266,-12284,83,1,21265,2020-11-02 15:59:23,2020-11-02 15:59:52,1,D7:F2:3B:06:4D:C8,83,83,10313.35554876339,-14961.287196678648,17230.13948705265
97208,-12025,-18445,23805,2577,1278,15892,-13271,-28909,31234,83,1,21290,2020-11-02 15:59:23,2020-11-02 15:59:52,1,D7:F2:3B:06:4D:C8,83,83,29017.182933834178,5275.192199690802,13478.579926710529
97209,30728,18672,22784,18708,-16124,15122,-725,-13808,-30207,83,1,21316,2020-11-02 15:59:23,2020-11-02 15:59:52,1,D7:F2:3B:06:4D:C8,83,83,-27409.076739335273,-26832.018582329114,18459.401807609458
97210,-17392,-18701,11002,-14317,-8442,19468,4911,13582,28161,83,1,21342,2020-11-02 15:59:23,2020-11-02 15:59:52,1,D7:F2:3B:06:4D:C8,83,83,-25422.901187411568,-824.7843922773554,11236.053351660594
97211,1037,244,11775,-9709,-250,-23292,17970,-26356,-15871,83,1,21393,2020-11-02 15:59:23,2020-11-02 15:59:52,1,D7:F2:3B:06:4D:C8,83,83,2211.932507723293,9406.657597448446,6812.318065507686
97212,14866,-26635,-18189,-747,11529,29184,2102,27659,-25598,83,1,21395,2020-11-02 15:59:23,2020-11-02 15:59:52,1,D7:F2:3B:06:4D:C8,83,83,17511.214137310897,20473.64805202314,23139.7497151359
97213,-17655,-5133,-29456,14871,-9207,-29956,10810,27146,-4093,83,1,21418,2020-11-02 15:59:23,2020-11-02 15:59:52,1,D7:F2:3B:06:4D:C8,83,83,26853.53410639646,22012.997592480235,-135.25158062391165
97214,5398,-17160,-28201,22297,21007,-21507,-23234,-21496,18181,83,1,21444,2020-11-02 15:59:23,2020-11-02 15:59:52,1,D7:F2:3B:06:4D:C8,83,83,1456.6999130299755,-33095.888423576274,-4630.399531095347
97215,29971,9466,-8483,26901,-21748,2040,-20158,-32506,-14330,83,-1,21470,2020-11-02 15:59:23,2020-11-02 15:59:52,1,D7:F2:3B:06:4D:C8,83,83,-15965.960078338929,-9490.439594861788,-26736.622095417497
97216,-30973,24057,-10019,-30957,30991,-6923,17478,21252,-30200,83,-1,21496,2020-11-02 15:59:23,2020-11-02 15:59:52,1,D7:F2:3B:06:4D:C8,83,83,30713.070088840435,24850.47598481604,-8809.51236142252
97217,8702,-6669,28635,26646,9735,5875,22461,24066,14858,83,-1,21521,2020-11-02 15:59:23,2020-11-02 15:59:52,1,D7:F2:3B:06:4D:C8,83,83,-9186.410717140188,13917.902502592362,25730.63229041107
97218,-8967,-21256,-31526,3855,29697,4083,21952,-29695,8972,83,-1,21546,2020-11-02 15:59:23,2020-11-02 15:59:52,1,D7:F2:3B:06:4D:C8,83,83,-8208.985501625722,34396.68231222255,16601.027195512186
97219,-20487,5884,-20783,-3321,-21758,-25359,8642,29952,-2035,83,-1,21572,2020-11-02 15:59:23,2020-11-02 15:59:52,1,D7:F2:3B:06:4D:C8,83,83,208.63157003523702,20667.430244990646,-21426.280917052085
97220,11507,-23808,221,27902,-4102,-530,19394,-12545,20752,83,-1,21597,2020-11-02 15:59:23,2020-11-02 15:59:52,1,D7:F2:3B:06:4D:C8,83,83,-1802.5045831671582,-23519.556416774558,11952.497529212036
97221,30955,4351,1765,-23302,-25354,-27409,-25919,9728,15379,83,-1,21623,2020-11-02 15:59:23,2020-11-02 15:59:52,1,D7:F2:3B:06:4D:C8,83,83,-3908.518829517619,18584.223725319753,-24891.937652311615
97222,-11290,-4864,17642,-18441,22521,8184,32192,-7936,19477,83,-1,21649,2020-11-02 15:59:23,2020-11-02 15:59:52,1,D7:F2:3B:06:4D:C8,83,83,11900.706415847813,-17391.078243480057,-4276.253539367523
97223,13799,16642,23021,-32521,10490,-6403,12735,-18175,11798,83,-1,21674,2020-11-02 15:59:23,2020-11-02 15:59:52,1,D7:F2:3B:06:4D:C8,83,83,31342.635965245798,-1541.1063116128043,-3549.530685370686
97224,-7438,-16637,11501,29433,-3846,28675,-3651,-11006,13846,83,-1,21700,2020-11-02 15:59:23,2020-11-02 15:59:52,1,D7:F2:3B:06:4D:C8,83,83,20827.747401221855,-5530.781244436004,-44.84436521165844
97225,26102,-24060,3810,-21001,5111,-19967,-10308,-765,-6379,83,-1,21725,2020-11-02 15:59:23,2020-11-02 15:59:52,1,D7:F2:3B:06:4D:C8,83,83,5861.882466679537,-27255.617603690673,22304.3436798356
97226,-19454,-12287,-18727,21233,23273,22772,17851,27910,4887,83,1,21751,2020-11-02 15:59:23,2020-11-02 15:59:52,1,D7:F2:3B:06:4D:C8,83,83,-2.5732996142360207,14806.792196666807,-25707.740317321863
97227,-4104,7925,-13086,16617,23259,22759,10566,8203,-30438,83,1,21777,2020-11-02 15:59:23,2020-11-02 15:59:52,1,D7:F2:3B:06:4D:C8,83,83,-15390.083263299955,1887.6701879085704,3236.3367269763235
97228,-30478,20208,27663,6636,9435,-25364,837,10257,-24034,83,1,21802,2020-11-02 15:59:23,2020-11-02 15:59:52,1,D7:F2:3B:06:4D:C8,83,83,-19744.95971024578,-8054.7947742154465,40592.73536220542
97229,229,4079,27892,-21514,29669,3574,-26299,9750,-11487,83,1,21828,2020-11-02 15:59:23,2020-11-02 15:59:52,1,D7:F2:3B:06:4D:C8,83,83,-16366.779792887693,21369.08417067511,-8375.267572903298
97230,-24608,4338,23023,-26120,-11277,11531,13635,-25832,32288,83,1,21853,2020-11-02 15:59:23,2020-11-02 15:59:52,1,D7:F2:3B:06:4D:C8,83,83,-18453.27521549343,-17784.203683458036,22307.603416022383
97231,29413,15854,-4612,-7425,30456,4379,-22981,10777,-19176,83,1,21879,2020-11-02 15:59:23,2020-11-02 15:59:52,1,D7:F2:3B:06:4D:C8,83,83,-29209.257971959778,2778.2858413884633,-16638.653957308103
97232,7412,27119,-25613,-3066,-17928,29981,-29644,27671,-13041,83,1,21904,2020-11-02 15:59:23,2020-11-02 15:59:52,1,D7:F2:3B:06:4D:C8,83,83,37246.10853550708,3878.9875455405054,-6639.618105190122
97233,4097,23791,-26383,29961,28410,-17635,-29904,-26348,22537,83,1,21930,2020-11-02 15:59:23,2020-11-02 15:59:52,1,D7:F2:3B:06:4D:C8,83,83,-13357.031171910583,-30467.869150255647,-13120.916382460076
97234,-1007,12276,5361,17160,-4102,-18408,-11986,32273,10757,83,1,21956,2020-11-02 15:59:23,2020-11-02 15:59:52,1,D7:F2:3B:06:4D:C8,83,83,6981.754921346221,10440.579408685771,-4764.865772420509
97235,-22758,27640,27383,-1272,-30209,-239,-32210,-8178,-22014,83,1,21981,2020-11-02 15:59:23,2020-11-02 15:59:52,1,D7:F2:3B:06:4D:C8,83,83,38124.470803888114,24038.491519622796,-632.8541573740395
97236,21012,20725,-29181,9998,-25340,27657,-7889,-8692,-4607,83,1,22007,2020-11-02 15:59:23,2020-11-02 15:59:52,1,D7:F2:3B:06:4D:C8,83,83,39294.757750721226,-13357.199518562033,-260.3158340565278
97237,-17648,-12812,19965,-15086,-21498,12546,-17102,-26869,21762,83,1,22032,2020-11-02 15:59:23,2020-11-02 15:59:52,1,D7:F2:3B:06:4D:C8,83,83,-17237.960068079654,-21265.994848414062,11171.86953014211
97238,7960,7930,-25372,18193,-10493,504,17206,18443,31747,83,1,22058,2020-11-02 15:59:23,2020-11-02 15:59:52,1,D7:F2:3B:06:4D:C8,83,83,-5279.8142284690475,2794.868038365999,-27097.917970961826
97239,29200,-28928,6870,-12534,-17915,-2835,-20167,-8181,5126,83,1,22084,2020-11-02 15:59:23,2020-11-02 15:59:52,1,D7:F2:3B:06:4D:C8,83,83,18064.727075525218,29607.997397028972,23101.909224657426
97240,-7442,-13559,-29743,11268,-23797,495,-24772,-6133,-13047,83,1,22109,2020-11-02 15:59:23,2020-11-02 15:59:52,1,D7:F2:3B:06:4D:C8,83,83,33414.630540764854,-2375.3464339338516,-1302.3398723000846
97241,-3606,-25594,8947,-18673,15377,9723,16959,16650,22540,83,1,22135,2020-11-02 15:59:23,2020-11-02 15:59:52,1,D7:F2:3B:06:4D:C8,83,83,22460.99870794554,-5742.542892999914,14513.153315655598
97242,-13567,-28932,18415,30234,23052,-27648,4675,13832,2061,83,1,22160,2020-11-02 15:59:23,2020-11-02 15:59:52,1,D7:F2:3B:06:4D:C8,83,83,22390.576246430006,-28932.0,4673.094194728396
97243,19719,-6658,-23606,8467,-11509,-26371,16314,24070,22285,83,1,22186,2020-11-02 15:59:23,2020-11-02 15:59:52,1,D7:F2:3B:06:4D:C8,83,83,12164.272446566676,-26214.545069985477,12459.504950815604
97244,-21498,14857,28368,-1530,-32766,-14865,18364,-9468,-15602,83,-1,22212,2020-11-02 15:59:23,2020-11-02 15:59:52,1,D7:F2:3B:06:4D:C8,83,83,-21280.88080882853,-1535.6100138088877,-32131.04248053467
97245,7412,27906,32221,8193,-10504,16357,32189,-6652,-32238,83,-1,22237,2020-11-02 15:59:23,2020-11-02 15:59:52,1,D7:F2:3B:06:4D:C8,83,83,-31877.35421315417,29067.699739265736,-3283.068874847507
97246,28142,16637,-19992,2300,-15881,-18459,6590,23301,-8682,83,-1,22263,2020-11-02 15:59:23,2020-11-02 15:59:52,1,D7:F2:3B:06:4D:C8,83,83,10473.421484325143,31461.307708046217,19207.695247252035
97247,-8469,19963,22762,-17926,-24586,-22550,22718,4870,-15590,83,-1,22288,2020-11-02 15:59:23,2020-11-02 15:59:52,1,D7:F2:3B:06:4D:C8,83,83,-17367.118934020706,17261.977369853237,-19717.03048672021
97248,13025,-3080,24809,5880,-22536,-11792,11710,-7162,-5859,83,-1,22314,2020-11-02 15:59:23,2020-11-02 15:59:52,1,D7:F2:3B:06:4D:C8,83,83,-8134.473781454284,-26711.164814649026,3868.787477167607
97249,25050,21493,-3335,-265,-24327,-18950,27325,-13049,-25057,83,-1,22339,2020-11-02 15:59:23,2020-11-02 15:59:52,1,D7:F2:3B:06:4D:C8,83,83,10984.01585955395,12636.80664877899,28639.767584923633
97250,23776,15090,26364,-9733,-10243,-1532,-26948,-26872,-26081,83,-1,22365,2020-11-02 15:59:23,2020-11-02 15:59:52,1,D7:F2:3B:06:4D:C8,83,83,35598.31274461088,4398.316176417585,-14194.42554487986
97251,3573,23288,11756,-9226,1274,-6139,9915,24329,-29410,83,-1,22416,2020-11-02 15:59:23,2020-11-02 15:59:52,1,D7:F2:3B:06:4D:C8,83,83,-8812.621243896714,-20307.28636995497,-14256.669881156025
97252,7938,4087,-27923,-3598,32747,-21255,4422,-20725,-15586,83,-1,22418,2020-11-02 15:59:23,2020-11-02 15:59:52,1,D7:F2:3B:06:4D:C8,83,83,5346.7895432167925,1861.8956228391676,28763.771106553464
97253,15365,24307,3570,12531,26079,-5907,30277,-6385,12321,83,-1,22442,2020-11-02 15:59:23,2020-11-02 15:59:52,1,D7:F2:3B:06:4D:C8,83,83,-20644.658721002612,20314.460925001713,882.676395917133
97254,26339,19447,30712,15091,14051,-26384,-327,-11756,25637,83,-1,22467,2020-11-02 15:59:23,2020-11-02 15:59:52,1,D7:F2:3B:06:4D:C8,83,83,40135.93062906556,16718.54830793634,11169.28328112579
97255,-14399,6135,5383,9974,30198,-501,13125,-27881,-14043,83,-1,22493,2020-11-02 15:59:23,2020-11-02 15:59:52,1,D7:F2:3B:06:4D:C8,83,83,-11740.375910055729,-7756.119789210241,8715.0613483787
97256,-22569,-30227,-8446,8711,256,-30942,7230,13847,-30691,83,-1,22520,2020-11-02 15:59:23,2020-11-02 15:59:52,1,D7:F2:3B:06:4D:C8,83,83,3772.2834175416046,-19767.59684285034,33005.72978857268
97257,-16151,-15382,24824,-27379,6145,21806,-5065,3604,-10477,83,-1,22544,2020-11-02 15:59:23,2020-11-02 15:59:52,1,D7:F2:3B:06:4D:C8,83,83,-21669.92923039139,5279.66780676861,24824.0
97258,-12559,-4373,-31238,-18672,28925,2605,-7884,-21489,13836,83,-1,22570,2020-11-02 15:59:23,2020-11-02 15:59:52,1,D7:F2:3B:06:4D:C8,83,83,20100.93806218476,24921.206745947697,11293.803493329564
97259,-13833,23277,-27148,-1007,-29955,-29141,21556,13323,16902,83,-1,22595,2020-11-02 15:59:23,2020-11-02 15:59:52,1,D7:F2:3B:06:4D:C8,83,83,3661.670217120798,38167.734711225654,26.837185967460755
97260,-8449,-28692,14580,8209,16638,-25047,6453,-6906,7169,83,-1,22621,2020-11-02 15:59:23,2020-11-02 15:59:52,1,D7:F2:3B:06:4D:C8,83,83,28297.264083767466,-7328.626954809308,-15898.079674311814
97261,27152,-5400,-23051,-15600,-32254,8999,-10698,-20990,-31492,83,-1,22646,2020-11-02 15:59:23,2020-11-02 15:59:52,1,D7:F2:3B:06:4D:C8,83,83,14089.546026440861,-31035.410674780822,11663.090585968417
97262,15389,-5653,-13574,19984,9223,-25570,25145,-21762,-14856,83,-1,22672,2020-11-02 15:59:23,2020-11-02 15:59:52,1,D7:F2:3B:06:4D:C8,83,83,1131.1277361329212,18277.97439374017,-10847.460905959952
97263,-19940,27377,14328,4111,-11519,6668,9788,18428,31990,83,-1,22698,2020-11-02 15:59:23,2020-11-02 15:59:52,1,D7:F2:3B:06:4D:C8,83,83,9454.598539827417,-22318.745374086513,-27656.454660302814
97264,-10221,11248,-23050,-7157,7157,8442,23102,-7940,1782,83,-1,22723,2020-11-02 15:59:23,2020-11-02 15:59:52,1,D7:F2:3B:06:4D:C8,83,83,-11037.406294734807,-24796.480964321654,-5059.549295241854
97265,27662,-1811,508,-16116,-17936,10481,13632,29695,4599,83,-1,22749,2020-11-02 15:59:23,2020-11-02 15:59:52,1,D7:F2:3B:06:4D:C8,83,83,9628.479149385108,291.7188281594286,25998.67916635677
97266,-1785,20201,-30725,-26348,24570,-11281,-702,26881,7673,83,-1,22774,2020-11-02 15:59:23,2020-11-02 15:59:52,1,D7:F2:3B:06:4D:C8,83,83,-3804.637515721597,31462.95645637573,18732.307796909823
97267,5380,10725,17392,16924,31233,12274,-27206,-25855,24315,83,-1,22800,2020-11-02 15:59:23,2020-11-02 15:59:52,1,D7:F2:3B:06:4D:C8,83,83,-11359.666070690047,17709.364605594514,-1946.2993162742414
97268,31244,19425,30685,24350,12031,-27664,27583,7937,30205,83,1,22826,2020-11-02 15:59:23,2020-11-02 15:59:52,1,D7:F2:3B:06:4D:C8,83,83,6585.181003940204,14844.302594097997,-45070.71618734498
97269,5892,-28700,12765,18456,31736,30701,-19005,-9728,17152,83,1,22851,2020-11-02 15:59:23,2020-11-02 15:59:52,1,D7:F2:3B:06:4D:C8,83,83,-31805.4602774856,-3108.4181168498744,318.3117153437488
97270,25092,5092,26330,-27370,-21515,30695,27591,21248,-8189,83,1,22877,2020-11-02 15:59:23,2020-11-02 15:59:52,1,D7:F2:3B:06:4D:C8,83,83,-1060.7222584879946,32372.290840725014,17312.292800604413
97271,22788,-27673,-26927,-13554,-15886,1249,12490,-1026,25864,83,1,22902,2020-11-02 15:59:23,2020-11-02 15:59:52,1,D7:F2:3B:06:4D:C8,83,83,12350.176061373772,-40777.63219649912,-13957.401824842185
97272,-1787,-3861,-23083,-17152,-5398,-9511,-28214,14077,8974,83,1,22928,2020-11-02 15:59:23,2020-11-02 15:59:52,1,D7:F2:3B:06:4D:C8,83,83,-10444.601531995422,20736.83706437378,-3437.945084414911
97273,22275,15851,-2337,22773,29920,-28459,25032,20988,-17643,83,1,22954,2020-11-02 15:59:23,2020-11-02 15:59:52,1,D7:F2:3B:06:4D:C8,83,83,21582.20616356073,15328.63493986639,7220.29937010013
97274,-28171,22507,19945,20207,20704,21720,-6716,2045,-9187,83,1,22979,2020-11-02 15:59:23,2020-11-02 15:59:52,1,D7:F2:3B:06:4D:C8,83,83,9134.446661637821,39343.4392769591,-8162.657964531281
97275,31992,-21268,13287,-29972,22246,-15905,-30271,-13058,30244,83,1,23005,2020-11-02 15:59:23,2020-11-02 15:59:52,1,D7:F2:3B:06:4D:C8,83,83,-17491.25214244839,-7055.462542408861,36008.84341105613
97276,19190,-2839,3818,-32023,-5660,8420,24510,27905,-8151,83,1,23030,2020-11-02 15:59:23,2020-11-02 15:59:52,1,D7:F2:3B:06:4D:C8,83,83,-2642.410586868736,12897.738784067693,14749.886289336608
97277,-20750,13032,-15,12009,13026,-1561,-24901,17925,29998,83,1,23056,2020-11-02 15:59:23,2020-11-02 15:59:52,1,D7:F2:3B:06:4D:C8,83,83,-1935.218551366737,-23447.62158946008,-6845.415981219223
97278,-17941,25064,-22537,11754,19425,17390,9286,-7927,1074,83,1,23081,2020-11-02 15:59:23,2020-11-02 15:59:52,1,D7:F2:3B:06:4D:C8,83,83,-17194.297771003883,32506.36857889462,-10280.664957827554
97279,14308,-21527,-16389,239,7143,30201,19268,12046,-7373,83,1,23133,2020-11-02 15:59:23,2020-11-02 15:59:52,1,D7:F2:3B:06:4D:C8,83,83,23140.911463610435,7684.547488841601,-18497.996121879834
97280,-22049,19946,-9220,10486,2539,-31737,-11199,-24047,51,83,1,23135,2020-11-02 15:59:23,2020-11-02 15:59:52,1,D7:F2:3B:06:4D:C8,83,83,-2060.0476168402984,3018.5073129171096,30913.662584983627
97281,-22035,29669,-21501,28671,8944,30483,-4291,-17901,-24018,83,1,23158,2020-11-02 15:59:23,2020-11-02 15:59:52,1,D7:F2:3B:06:4D:C8,83,83,-38695.77136807146,-587.3899148149849,18176.249291807002
97282,24051,31976,-17435,32517,28142,28179,-1223,-16364,-28376,83,1,23184,2020-11-02 15:59:23,2020-11-02 15:59:52,1,D7:F2:3B:06:4D:C8,83,83,-28019.96751465201,-16477.50903196163,29125.032507783897
97283,30194,-9743,-18716,-20741,29427,13076,18997,-20716,-24798,83,1,23209,2020-11-02 15:59:23,2020-11-02 15:59:52,1,D7:F2:3B:06:4D:C8,83,83,11822.302926827922,-32485.358447285795,-12721.123419638425
97284,-26638,21499,4589,-32265,30704,-10989,-5073,-24813,5149,83,1,23235,2020-11-02 15:59:23,2020-11-02 15:59:52,1,D7:F2:3B:06:4D:C8,83,83,20884.72542353298,21499.0,17160.134293869476
97285,-6664,-19458,-28939,12539,-6675,-28656,-4566,22290,-18153,83,1,23260,2020-11-02 15:59:23,2020-11-02 15:59:52,1,D7:F2:3B:06:4D:C8,83,83,-5234.197960758556,18908.577596165174,29589.816592831245
97286,3840,-13824,17899,-16901,18159,-3061,23591,-1008,26899,83,1,23286,2020-11-02 15:59:23,2020-11-02 15:59:52,1,D7:F2:3B:06:4D:C8,83,83,14580.105249114731,-17666.686976453264,-1237.5294747009902
97287,28916,3329,26872,7930,32748,26892,-6109,-28145,28943,83,-1,23312,2020-11-02 15:59:23,2020-11-02 15:59:52,1,D7:F2:3B:06:4D:C8,83,83,20562.079831237003,16545.022328563988,-29542.93130617129
97288,17396,16897,-4611,-19211,-3349,-17661,-3808,16142,22028,83,-1,23337,2020-11-02 15:59:23,2020-11-02 15:59:52,1,D7:F2:3B:06:4D:C8,83,83,8933.149640123116,-18341.195727812148,-13899.284973740687
97289,18932,23807,-27384,-16385,26613,-20724,-12258,-26868,-3575,83,-1,23363,2020-11-02 15:59:23,2020-11-02 15:59:52,1,D7:F2:3B:06:4D:C8,83,83,-20133.4285394139,-34807.40847387229,-7626.7096169526185
97290,29182,14844,7424,-13817,29945,-4589,14367,-14071,14345,83,-1,23388,2020-11-02 15:59:23,2020-11-02 15:59:52,1,D7:F2:3B:06:4D:C8,83,83,20747.45115345491,-14268.271886516633,22203.804268805874
97291,23557,-2567,-25345,-21748,16379,-12266,-18656,23814,-11256,83,-1,23414,2020-11-02 15:59:23,2020-11-02 15:59:52,1,D7:F2:3B:06:4D:C8,83,83,-19598.78774646572,28607.013504635266,1190.4033831439665
97292,-28151,19449,-32003,2576,25852,8215,-5854,-15870,30472,83,-1,23440,2020-11-02 15:59:23,2020-11-02 15:59:52,1,D7:F2:3B:06:4D:C8,83,83,-3742.375761111907,-45239.02753121854,-11591.351202180564
97293,11529,-18697,-25347,27156,26366,-18920,-17883,7679,-9465,83,-1,23465,2020-11-02 15:59:23,2020-11-02 15:59:52,1,D7:F2:3B:06:4D:C8,83,83,28539.49593001102,-16809.546771985766,5282.269245438676
97294,9996,8947,-32516,-27111,14592,-21221,29481,4859,-762,83,-1,23491,2020-11-02 15:59:23,2020-11-02 15:59:52,1,D7:F2:3B:06:4D:C8,83,83,9996.0,-28642.456141607123,-17803.055107933367
97295,26385,11246,7926,-14562,-21249,31515,30510,1527,17925,83,-1,23516,2020-11-02 15:59:23,2020-11-02 15:59:52,1,D7:F2:3B:06:4D:C8,83,83,-27643.70729177801,-6959.061373229457,-8535.755910880123
97296,18455,-14870,-22547,-31200,-5634,15896,-12236,-9485,28674,83,-1,23543,2020-11-02 15:59:23,2020-11-02 15:59:52,1,D7:F2:3B:06:4D:C8,83,83,-16364.463495387048,4859.497441055626,27904.4934218222
97297,25886,-5654,12008,-19939,18177,2580,-26053,-17935,6143,83,-1,23568,2020-11-02 15:59:23,2020-11-02 15:59:52,1,D7:F2:3B:06:4D:C8,83,83,-8384.377666003365,-23037.46204249154,15659.576296777173
97298,-10717,-786,-27161,22555,-10754,25610,-16063,-17936,17916,83,-1,23593,2020-11-02 15:59:23,2020-11-02 15:59:52,1,D7:F2:3B:06:4D:C8,83,83,-5385.468563544105,25384.36750770873,-13409.78823787533
97299,13597,1777,-3359,15897,-14093,2553,1606,-15119,2556,83,-1,23619,2020-11-02 15:59:23,2020-11-02 15:59:52,1,D7:F2:3B:06:4D:C8,83,83,-2604.0184798240307,1777.0,13761.554336510646
97300,-26602,26864,-24354,-21999,-25876,-28182,5051,19956,511,83,-1,23644,2020-11-02 15:59:23,2020-11-02 15:59:52,1,D7:F2:3B:06:4D:C8,83,83,22898.94371827504,26864.0,27864.351716615834
97301,-26354,6644,-23841,17931,19436,4322,5307,4087,-15101,83,-1,23670,2020-11-02 15:59:23,2020-11-02 15:59:52,1,D7:F2:3B:06:4D:C8,83,83,17008.50583419322,21198.744804544804,-23841.0
97302,-31998,6904,-15400,7174,2288,10463,-25414,32761,6921,83,-1,23695,2020-11-02 15:59:23,2020-11-02 15:59:52,1,D7:F2:3B:06:4D:C8,83,83,-18836.35245736681,-16117.349655203234,-26346.15885084145
97303,-14082,16635,18398,-20736,7155,-28448,-10567,-24837,13838,83,-1,23721,2020-11-02 15:59:23,2020-11-02 15:59:52,1,D7:F2:3B:06:4D:C8,83,83,-24802.513891140985,-4605.225387487393,13309.378528323561
97304,-18698,-27138,21209,-22790,2550,10721,23109,24061,275,83,-1,23747,2020-11-02 15:59:23,2020-11-02 15:59:52,1,D7:F2:3B:06:4D:C8,83,83,7170.187990476394,33789.60470598255,-18513.75021422375
97305,12781,28162,21217,-24842,-15114,-5405,-14781,12799,23831,83,-1,23772,2020-11-02 15:59:23,2020-11-02 15:59:52,1,D7:F2:3B:06:4D:C8,83,83,29675.74093933512,22773.324826781423,2709.1271722402744
97306,25317,3588,-15385,-21005,7157,26600,7490,26369,-998,83,-1,23798,2020-11-02 15:59:23,2020-11-02 15:59:52,1,D7:F2:3B:06:4D:C8,83,83,-12542.27272818063,14884.635774724373,22619.935248928807
97307,-1327,-14847,-30735,16370,-3851,-4623,23616,-7165,26909,83,-1,23823,2020-11-02 15:59:23,2020-11-02 15:59:52,1,D7:F2:3B:06:4D:C8,83,83,7439.6637699097655,29352.438159340876,15808.869032690523
97308,-20268,-29952,-3590,-16654,2811,2559,27454,24581,-3555,83,1,23849,2020-11-02 15:59:23,2020-11-02 15:59:52,1,D7:F2:3B:06:4D:C8,83,83,-5682.857651343076,16861.012773951443,-31689.329515646394
97309,17635,20220,-9216,17401,15611,-1272,-21188,-7163,-5604,83,1,23875,2020-11-02 15:59:23,2020-11-02 15:59:52,1,D7:F2:3B:06:4D:C8,83,83,4251.935212232477,-21318.21027554074,18227.211487191526
97310,-15086,-13311,-526,2298,7916,-2053,-31685,23559,-30949,83,1,23900,2020-11-02 15:59:23,2020-11-02 15:59:52,1,D7:F2:3B:06:4D:C8,83,83,8706.422408098422,17899.342494583958,-2976.3299738675896
97311,12557,-24834,22504,14063,-9762,28640,58,-21236,14876,83,1,23926,2020-11-02 15:59:23,2020-11-02 15:59:52,1,D7:F2:3B:06:4D:C8,83,83,29076.337774064144,-3856.905732573243,-20506.74720228867
97312,-14372,-11272,-30721,-14100,17379,-6690,-27080,-21229,-29922,83,1,23951,2020-11-02 15:59:23,2020-11-02 15:59:52,1,D7:F2:3B:06:4D:C8,83,83,-25786.31334930059,20765.82226987973,-13462.498962207903
97313,-26897,-30211,-2564,31736,-26896,5354,-7881,-23016,-737,83,1,23977,2020-11-02 15:59:23,2020-11-02 15:59:52,1,D7:F2:3B:06:4D:C8,83,83,35771.81820049597,-18480.604567629816,4644.513262502896
97314,-28470,29183,-9215,-7940,-5904,-8456,-3274,26908,-1249,83,1,24003,2020-11-02 15:59:23,2020-11-02 15:59:52,1,D7:F2:3B:06:4D:C8,83,83,25583.168880249592,29183.0,-15522.841075158532
97315,-26660,-20484,31480,3844,-14084,14872,31536,-10725,-3048,83,1,24028,2020-11-02 15:59:23,2020-11-02 15:59:52,1,D7:F2:3B:06:4D:C8,83,83,-38447.212849698466,24376.39995936687,-6995.942045997808
97316,-18695,21243,-3096,-3321,11517,14879,-8917,4888,-18158,83,1,24054,2020-11-02 15:59:23,2020-11-02 15:59:52,1,D7:F2:3B:06:4D:C8,83,83,19759.98961693925,-6145.418113246281,-19548.144069241906
97317,-14332,28160,-27646,26372,-3596,6931,4905,-7404,-30194,83,1,24079,2020-11-02 15:59:23,2020-11-02 15:59:52,1,D7:F2:3B:06:4D:C8,83,83,-22600.957200504123,22870.13864474005,-26997.159702297366
97318,5376,-14854,11267,-21747,25080,-16369,7976,-10990,21771,83,1,24105,2020-11-02 15:59:23,2020-11-02 15:59:52,1,D7:F2:3B:06:4D:C8,83,83,-5746.281822386418,18502.58404703662,1059.5328216045868
97319,-14339,30967,18692,-2544,-1027,-30447,14889,-27376,-31223,83,1,24131,2020-11-02 15:59:23,2020-11-02 15:59:52,1,D7:F2:3B:06:4D:C8,83,83,35689.59042094105,15300.622501926879,-2469.2024297333983
97320,22272,30963,-17659,-25323,-1530,15126,-15573,-31475,-11768,83,-1,24156,2020-11-02 15:59:23,2020-11-02 15:59:52,1,D7:F2:3B:06:4D:C8,83,83,-20643.746240704335,24441.210482341074,-27258.991274574095
97321,13060,1520,7682,7449,4362,29464,15919,-22519,31240,83,-1,24182,2020-11-02 15:59:23,2020-11-02 15:59:52,1,D7:F2:3B:06:4D:C8,83,83,-10899.771321482633,9991.77694196995,3639.574519267656
97322,-15344,-11027,23545,-8164,-11509,6935,14643,-21755,-22777,83,-1,24207,2020-11-02 15:59:23,2020-11-02 15:59:52,1,D7:F2:3B:06:4D:C8,83,83,-20181.849667826027,14113.737233564008,17461.255833621453
97323,19485,7919,-19992,-11237,-4854,-6130,-26313,19458,-13562,83,-1,24233,2020-11-02 15:59:23,2020-11-02 15:59:52,1,D7:F2:3B:06:4D:C8,83,83,15959.056578191525,10952.23375084229,-21619.73494289402
97324,-21212,-7688,-30512,-6383,1797,-13570,14139,-27648,-18426,83,-1,24258,2020-11-02 15:59:23,2020-11-02 15:59:52,1,D7:F2:3B:06:4D:C8,83,83,-13635.235560694644,-33200.27639782039,12323.085259491583
97325,-18416,7935,-7474,-5633,18944,6127,-29636,-1280,26376,83,-1,24284,2020-11-02 15:59:23,2020-11-02 15:59:52,1,D7:F2:3B:06:4D:C8,83,83,19164.960469545214,7781.350988519641,5488.972945299851
