id,accelerationx,accelerationy,accelerationz,angularvelocityx,angularvelocityy,angularvelocityz,pitch,roll,yaw,mdlcircle_id,hallsensor,timestamp,starttime,endtime,train_mode,blemac,training_id,training_handle_id,accelerationWorldx,accelerationWorldy,accelerationWorldz
1171,-8959,11269,23565,-2049,30719,-13826,-4604,-19716,13770,2,1,39067,2020-11-02 14:55:56,2020-11-02 14:56:26,1,DF:DC:EF:28:D6:3E,2,2,-12553.928254098071,351.44964507986015,-24593.467334597844
1172,29185,18950,19213,-9985,-17153,-2562,-3068,-20996,1738,2,1,39092,2020-11-02 14:55:56,2020-11-02 14:56:26,1,DF:DC:EF:28:D6:3E,2,2,-31604.269728138228,18950.0,-14902.13840195713
1173,-18943,-28154,-31731,-16385,6144,22783,-3068,-20484,-6711,2,1,39118,2020-11-02 14:55:56,2020-11-02 14:56:26,1,DF:DC:EF:28:D6:3E,2,2,-11138.84545292064,-34760.14176347304,28740.215596950668
1174,32257,-3582,-6643,-22273,-6401,29439,-4348,-19460,-12087,2,1,39144,2020-11-02 14:55:56,2020-11-02 14:56:26,1,DF:DC:EF:28:D6:3E,2,2,9642.086813294156,29675.882750965528,11128.628254903895
1175,-7936,16386,17167,-20737,-12545,24319,-5884,-17412,-17719,2,1,39169,2020-11-02 14:55:56,2020-11-02 14:56:26,1,DF:DC:EF:28:D6:3E,2,2,-5120.50849675636,-24264.357823896018,3347.881886892348
1176,27902,5379,-11506,-7681,-9729,20479,-5628,-16388,-24119,2,1,39195,2020-11-02 14:55:56,2020-11-02 14:56:26,1,DF:DC:EF:28:D6:3E,2,2,-3319.8349275378387,-4385.479413141973,30159.402304601594
1177,-8444,-25849,-17397,4864,7424,29439,-3580,-15364,-30263,2,1,39220,2020-11-02 14:55:56,2020-11-02 14:56:26,1,DF:DC:EF:28:D6:3E,2,2,30271.272117423745,11206.490752864764,-438.40095670541996
1178,5632,-19198,4367,-13313,-13825,-19457,-3068,-15108,30665,2,1,39246,2020-11-02 14:55:56,2020-11-02 14:56:26,1,DF:DC:EF:28:D6:3E,2,2,-20200.653047882795,609.5157568513569,3303.8498726808684
1179,18692,-15609,5388,-13825,8192,-12545,-4092,-14596,28361,2,1,39272,2020-11-02 14:55:56,2020-11-02 14:56:26,1,DF:DC:EF:28:D6:3E,2,2,-3526.0943645804286,19797.398112899868,14754.38834690964
1180,14846,21506,-7153,-18945,-8961,-10753,-5116,-14596,26313,2,1,39297,2020-11-02 14:55:56,2020-11-02 14:56:26,1,DF:DC:EF:28:D6:3E,2,2,16062.648757858024,-14304.044345212318,16476.12792047578
1181,-16891,9478,-5620,-12033,8192,-6657,-6908,-13060,25289,2,1,39323,2020-11-02 14:55:56,2020-11-02 14:56:26,1,DF:DC:EF:28:D6:3E,2,2,-10842.97544235447,-13153.8179480349,-10776.3501217459
1182,28928,-18683,-756,-15361,-5121,-12033,-8188,-13828,23497,2,1,39349,2020-11-02 14:55:56,2020-11-02 14:56:26,1,DF:DC:EF:28:D6:3E,2,2,8849.017487944782,26662.202467337684,19931.810206018417
1183,-14850,-6399,28944,-6401,-12289,-7425,-8700,-14340,22217,2,1,39374,2020-11-02 14:55:56,2020-11-02 14:56:26,1,DF:DC:EF:28:D6:3E,2,2,9857.847004465722,-22514.596074507903,-22251.756178744625
1184,-1275,10246,25868,8448,6144,-6657,-7676,-13828,20681,2,1,39400,2020-11-02 14:55:56,2020-11-02 14:56:26,1,DF:DC:EF:28:D6:3E,2,2,442.11147163953865,-27642.128328596104,-3387.749092254234
1185,-16896,7430,25612,0,4608,-6913,-6140,-13316,19657,2,1,39425,2020-11-02 14:55:56,2020-11-02 14:56:26,1,DF:DC:EF:28:D6:3E,2,2,-3739.771359016844,-25291.549700784206,-18520.418027545697
1186,-32514,18690,-3313,-2817,-15873,-1793,-5116,-13572,18889,2,1,39451,2020-11-02 14:55:56,2020-11-02 14:56:26,1,DF:DC:EF:28:D6:3E,2,2,-19015.078433526705,-16168.397268834917,-28186.20206632953
1187,8454,11014,24588,1024,11264,1024,-4860,-13060,18633,2,1,39477,2020-11-02 14:55:56,2020-11-02 14:56:26,1,DF:DC:EF:28:D6:3E,2,2,24062.66145602321,-14555.386054033419,-2545.0179706368235
1188,-27135,16134,19212,-1793,11008,-8705,-4092,-12292,18377,2,-1,39502,2020-11-02 14:55:56,2020-11-02 14:56:26,1,DF:DC:EF:28:D6:3E,2,2,3838.6284163025557,-16844.27642665019,-32668.798700658575
1189,28670,6402,-4593,-5889,-8705,-6401,-3580,-11524,17097,2,-1,39528,2020-11-02 14:55:56,2020-11-02 14:56:26,1,DF:DC:EF:28:D6:3E,2,2,-2594.3003620925483,-9715.343242500674,27980.91964735332
1190,-2043,-22779,-27892,1280,7168,-9985,-3580,-10500,16073,2,-1,39553,2020-11-02 14:55:56,2020-11-02 14:56:26,1,DF:DC:EF:28:D6:3E,2,2,11405.14989376724,29817.183405719825,-16789.237137236687
1191,-9984,14082,30990,11264,-9985,26111,-1276,-10500,11465,2,-1,39579,2020-11-02 14:55:56,2020-11-02 14:56:26,1,DF:DC:EF:28:D6:3E,2,2,292.06545228713367,-34477.191952903464,8342.722146531612
1192,6402,-27388,14094,-22016,27136,-28929,4869,-5124,7113,2,-1,39605,2020-11-02 14:55:56,2020-11-02 14:56:26,1,DF:DC:EF:28:D6:3E,2,2,26505.2226940865,-9410.702308376458,14094.0
1193,-15616,31491,22796,-24832,-23296,-12289,12549,765,6089,2,-1,39630,2020-11-02 14:55:56,2020-11-02 14:56:26,1,DF:DC:EF:28:D6:3E,2,2,20032.31565448616,-31420.57993364241,19148.201982238883
1194,30207,20228,-14325,16896,29952,-23041,17925,7677,4553,2,-1,39656,2020-11-02 14:55:56,2020-11-02 14:56:26,1,DF:DC:EF:28:D6:3E,2,2,30656.394922217652,-18004.024105776214,-16213.606149517043
1195,1792,-17660,-30199,-3074,20478,8704,15109,765,1481,2,-1,39681,2020-11-02 14:55:56,2020-11-02 14:56:26,1,DF:DC:EF:28:D6:3E,2,2,1792.0,34809.0261261313,-3490.9742408543843
1196,20478,6661,265,-19971,11519,-29952,-2300,-13316,1993,2,-1,39707,2020-11-02 14:55:56,2020-11-02 14:56:26,1,DF:DC:EF:28:D6:3E,2,2,-8762.818736921186,6661.0,18510.313794851318
1197,254,-25341,16905,6653,13057,-17664,-29692,-8708,9673,2,-1,39733,2020-11-02 14:55:56,2020-11-02 14:56:26,1,DF:DC:EF:28:D6:3E,2,2,28631.471394034146,1283.8259579857222,-10324.749814024854
1198,1276,-26877,-24055,-13828,-20222,3584,4612,13565,16585,2,-1,39759,2020-11-02 14:55:56,2020-11-02 14:56:26,1,DF:DC:EF:28:D6:3E,2,2,33762.604322998974,-9187.260116066007,8850.148636511942
1199,-29961,-1276,-14327,-2565,-6141,-30720,-31485,-15875,23497,2,1,39784,2020-11-02 14:55:56,2020-11-02 14:56:26,1,DF:DC:EF:28:D6:3E,2,2,-1169.0614369319364,-21818.164045177462,-25043.03573959044
1200,-6157,2311,19211,24570,22532,-25086,-14846,28926,-19767,2,1,39809,2020-11-02 14:55:56,2020-11-02 14:56:26,1,DF:DC:EF:28:D6:3E,2,2,-5525.928629117227,-17461.36125225984,-8767.945426608294
1201,-19727,30983,-15091,-8713,17667,-6395,-20735,2303,28362,2,1,39835,2020-11-02 14:55:56,2020-11-02 14:56:26,1,DF:DC:EF:28:D6:3E,2,2,-11930.64635764653,36370.639704690446,10567.655556478456
1202,26610,29959,8977,-24586,9474,18698,19712,30975,-16437,2,1,39861,2020-11-02 14:55:56,2020-11-02 14:56:26,1,DF:DC:EF:28:D6:3E,2,2,-33121.45898185876,1943.4536612127267,24195.294021353955
1203,-23820,2821,22804,10999,-22271,-25075,-4610,-8705,-24371,2,1,39886,2020-11-02 14:55:56,2020-11-02 14:56:26,1,DF:DC:EF:28:D6:3E,2,2,18820.159077988326,-26106.188154591193,-7722.785075107035
1204,6136,16897,12056,-21000,-16895,784,-15875,23552,-5681,2,1,39912,2020-11-02 14:55:56,2020-11-02 14:56:26,1,DF:DC:EF:28:D6:3E,2,2,11413.986223477112,3930.8566806733534,17965.95461550208
1205,-18691,-27395,-14822,14075,-19456,26641,-3844,-7680,30162,2,1,39937,2020-11-02 14:55:56,2020-11-02 14:56:26,1,DF:DC:EF:28:D6:3E,2,2,-25596.46042393197,-10046.925181032866,-23736.29495462196
1206,7172,9211,-10984,-5378,-15616,27153,-20740,21761,6101,2,1,39989,2020-11-02 14:55:56,2020-11-02 14:56:26,1,DF:DC:EF:28:D6:3E,2,2,5871.297052809381,-10602.133063979694,-10490.519835134022
1207,13063,26104,-4843,-4863,515,-14832,-1284,-2559,-23849,2,1,39991,2020-11-02 14:55:56,2020-11-02 14:56:26,1,DF:DC:EF:28:D6:3E,2,2,-28294.118956859522,-7176.602082816258,-4843.0
1208,-26616,-13067,-10473,8961,-16126,17679,30205,-19198,218,2,1,40014,2020-11-02 14:55:56,2020-11-02 14:56:26,1,DF:DC:EF:28:D6:3E,2,2,25000.607886695932,-13749.427705995027,-13219.853140382966
1209,-9973,14324,-15595,17151,11261,18955,-22531,-15102,476,2,1,40040,2020-11-02 14:55:56,2020-11-02 14:56:26,1,DF:DC:EF:28:D6:3E,2,2,-8050.293092500753,-16381.41904699841,-14652.085896945608
1210,-2804,23026,-20202,-8960,-27142,9991,-21251,10754,26333,2,1,40065,2020-11-02 14:55:56,2020-11-02 14:56:26,1,DF:DC:EF:28:D6:3E,2,2,-27632.13053002265,7243.103340466378,11409.763905143476
1211,31755,14578,-29425,25603,-4101,-7422,3582,27649,9694,2,1,40091,2020-11-02 14:55:56,2020-11-02 14:56:26,1,DF:DC:EF:28:D6:3E,2,2,-11449.778259210087,9149.21842587299,43265.72678241504
1212,10764,755,9746,-18426,-22020,28415,-16898,-11008,20958,2,1,40117,2020-11-02 14:55:56,2020-11-02 14:56:26,1,DF:DC:EF:28:D6:3E,2,2,-10914.442620955864,-7078.412870476495,6495.325281226091
1213,12298,22004,26377,25865,26365,-24838,-1025,20224,-13091,2,-1,40142,2020-11-02 14:55:56,2020-11-02 14:56:26,1,DF:DC:EF:28:D6:3E,2,2,23525.70552381301,-1470.96276885613,-27848.525941950196
1214,-20475,1783,-3579,-4091,12797,-2056,3841,-5377,-14884,2,-1,40168,2020-11-02 14:55:56,2020-11-02 14:56:26,1,DF:DC:EF:28:D6:3E,2,2,10141.883790332931,17875.87500469228,-3579.0
1215,20744,-25098,27906,-25341,-5638,23286,-19967,19455,31195,2,-1,40194,2020-11-02 14:55:56,2020-11-02 14:56:26,1,DF:DC:EF:28:D6:3E,2,2,20813.03510008676,31117.302517052627,20916.47747554035
1216,-27132,-12300,-30980,-26111,-11525,-26126,5890,-19714,-26919,2,-1,40219,2020-11-02 14:55:56,2020-11-02 14:56:26,1,DF:DC:EF:28:D6:3E,2,2,-34755.3111205732,10525.389087394173,22988.700647733967
1217,-17151,-9742,3322,-1,-21251,-14096,16130,28414,21719,2,-1,40245,2020-11-02 14:55:56,2020-11-02 14:56:26,1,DF:DC:EF:28:D6:3E,2,2,-18917.000632217318,1652.6901542972141,-6286.075988609959
1218,-4610,27890,17911,-8964,25601,-28177,4866,-25090,-6700,2,-1,40270,2020-11-02 14:55:56,2020-11-02 14:56:26,1,DF:DC:EF:28:D6:3E,2,2,32420.56324302912,1127.2147337646784,-8218.551389918604
1219,-5637,-26894,11510,3065,9732,-13074,18945,19711,24274,2,-1,40296,2020-11-02 14:55:56,2020-11-02 14:56:26,1,DF:DC:EF:28:D6:3E,2,2,16673.943556842296,-18942.562009558787,15833.573689387284
1220,-3082,4851,17143,-4875,29190,-23571,-6657,13568,-22577,2,-1,40322,2020-11-02 14:55:56,2020-11-02 14:56:26,1,DF:DC:EF:28:D6:3E,2,2,-3527.556958306748,-17721.50042041855,646.636493717137
1221,-7699,16372,30458,-31247,32264,-14609,-12803,24065,-5428,2,-1,40347,2020-11-02 14:55:56,2020-11-02 14:56:26,1,DF:DC:EF:28:D6:3E,2,2,25891.406098580614,20882.2250183068,12189.114714497693
1222,9709,-18190,-28416,12780,31753,25845,-12550,-28670,-15670,2,-1,40373,2020-11-02 14:55:56,2020-11-02 14:56:26,1,DF:DC:EF:28:D6:3E,2,2,-29077.236052478955,-19634.827133692193,-1264.0189786720607
1223,-3353,13553,-20984,-31766,-16118,32502,15607,-19453,-10296,2,1,40398,2020-11-02 14:55:56,2020-11-02 14:56:26,1,DF:DC:EF:28:D6:3E,2,2,11497.951576889898,6969.184567993669,-21318.589305878893
1224,12251,4851,-2804,6379,19721,28665,-24077,-20988,-2618,2,1,40424,2020-11-02 14:55:56,2020-11-02 14:56:26,1,DF:DC:EF:28:D6:3E,2,2,-12905.131860175497,-1048.7510079659505,-3720.122443518987
1225,1751,7662,-17393,21479,-29435,-9725,-2321,-15867,14278,2,1,40450,2020-11-02 14:55:56,2020-11-02 14:56:26,1,DF:DC:EF:28:D6:3E,2,2,-13245.334774849864,10529.814102574106,8830.221722436218
1226,-28202,1522,-18158,-284,-5633,27401,6124,6407,-12602,2,1,40475,2020-11-02 14:55:56,2020-11-02 14:56:26,1,DF:DC:EF:28:D6:3E,2,2,23969.408219277466,13681.591363017053,19122.337184378146
1227,-22834,-13067,-19949,-12315,16637,-26866,-28952,-21240,11976,2,1,40501,2020-11-02 14:55:56,2020-11-02 14:56:26,1,DF:DC:EF:28:D6:3E,2,2,-24499.44773993893,16470.912689476325,14784.679286803936
1228,2005,21480,8729,-20762,20728,-26087,-15131,28683,-26678,2,1,40526,2020-11-02 14:55:56,2020-11-02 14:56:26,1,DF:DC:EF:28:D6:3E,2,2,-14132.991935734342,17895.77684235152,-4648.179875308519
1229,-31765,-1060,-23781,-22550,-10765,-11491,27620,5135,27854,2,1,40552,2020-11-02 14:55:56,2020-11-02 14:56:26,1,DF:DC:EF:28:D6:3E,2,2,7666.781335441707,35350.91051285023,16346.50959278396
1230,-29449,21473,-10210,-17164,-21772,280,997,14866,-19246,2,1,40578,2020-11-02 14:55:56,2020-11-02 14:56:26,1,DF:DC:EF:28:D6:3E,2,2,88.82258006046322,-21677.402031307793,31026.75912373583
1231,-16908,16867,7707,-32513,-15630,4369,-9241,-749,18647,2,1,40603,2020-11-02 14:55:56,2020-11-02 14:56:26,1,DF:DC:EF:28:D6:3E,2,2,14537.533269201844,-17828.450968791698,-10028.981229429039
1232,4854,-12574,-7915,1282,-14608,-8943,24044,-10732,-23844,2,1,40629,2020-11-02 14:55:56,2020-11-02 14:56:26,1,DF:DC:EF:28:D6:3E,2,2,4678.575779743589,-8826.799159075488,12021.33779071784
1233,255,28642,-493,-23806,4331,-21490,-21519,22292,-8990,2,1,40654,2020-11-02 14:55:56,2020-11-02 14:56:26,1,DF:DC:EF:28:D6:3E,2,2,-24326.13355807213,-14723.61232503338,3482.3417719922363
1234,-26876,4833,-2544,-16379,6377,-27129,-8203,3346,-26649,2,1,40680,2020-11-02 14:55:56,2020-11-02 14:56:26,1,DF:DC:EF:28:D6:3E,2,2,17211.19069966862,-20647.41473313531,-5441.358335705112
1235,-3065,-11806,-25590,-30711,-22037,3327,27384,3087,-22551,2,1,40706,2020-11-02 14:55:56,2020-11-02 14:56:26,1,DF:DC:EF:28:D6:3E,2,2,1390.3269924246315,11965.608086999275,25661.55051750523
1236,29950,21215,-31989,32263,21488,759,-22791,-4597,-30487,2,1,40731,2020-11-02 14:55:56,2020-11-02 14:56:26,1,DF:DC:EF:28:D6:3E,2,2,32964.532797135966,21481.580066608,28675.009002761566
1237,26883,-11032,-21246,-30453,-6673,-20236,-17158,-6392,-24856,2,1,40757,2020-11-02 14:55:56,2020-11-02 14:56:26,1,DF:DC:EF:28:D6:3E,2,2,12032.520770421579,8600.649201201122,32818.29529739855
1238,-30978,-24594,-12035,523,24051,21491,-10501,29958,4583,2,1,40783,2020-11-02 14:55:56,2020-11-02 14:56:26,1,DF:DC:EF:28:D6:3E,2,2,-22396.915026051713,-23415.298212684065,-25679.652488437096
1239,7167,-4367,-4355,-4602,18932,2547,-23812,23812,24805,2,1,40808,2020-11-02 14:55:56,2020-11-02 14:56:26,1,DF:DC:EF:28:D6:3E,2,2,7489.960182682678,-737.2763811714768,5723.593538992331
1240,-24069,-11277,-4860,15881,9718,3314,27901,28930,31459,2,1,40834,2020-11-02 14:55:56,2020-11-02 14:56:26,1,DF:DC:EF:28:D6:3E,2,2,-1580.8723811579894,18363.44833278677,-19758.332364943213
1241,-19207,-31758,-18424,11790,13823,-25611,2559,-31487,-18463,2,1,40859,2020-11-02 14:55:56,2020-11-02 14:56:26,1,DF:DC:EF:28:D6:3E,2,2,18402.502567309013,34702.24413679149,13191.866438480418
1242,28669,6385,-21496,3863,-6136,-25866,-15103,-32766,19424,2,-1,40885,2020-11-02 14:55:56,2020-11-02 14:56:26,1,DF:DC:EF:28:D6:3E,2,2,-7898.125990007545,23553.651893158778,-26600.806197216374
1243,-19206,-2577,-4609,-6887,-9470,-21772,23045,-15357,-12578,2,-1,40910,2020-11-02 14:55:56,2020-11-02 14:56:26,1,DF:DC:EF:28:D6:3E,2,2,-3088.1500789081956,-2413.532297464083,-19529.2712854125
1244,-7174,23024,499,13328,1011,-2317,9736,26883,-15140,2,-1,40936,2020-11-02 14:55:56,2020-11-02 14:56:26,1,DF:DC:EF:28:D6:3E,2,2,15164.953388979166,4251.92905543281,-18269.240296675056
1245,-24065,21236,-12826,28663,-13072,10989,7688,1538,-24103,2,-1,40962,2020-11-02 14:55:56,2020-11-02 14:56:26,1,DF:DC:EF:28:D6:3E,2,2,-1121.459442785038,-32766.85127834292,10939.56045831573
1246,17138,3827,27639,17126,16885,16105,-24828,15873,-12587,2,-1,40987,2020-11-02 14:55:56,2020-11-02 14:56:26,1,DF:DC:EF:28:D6:3E,2,2,-12586.427865983323,28773.381849410587,-9270.68630266433
1247,27626,23797,-10240,-15386,-5121,5102,24576,2817,-25902,2,-1,41013,2020-11-02 14:55:56,2020-11-02 14:56:26,1,DF:DC:EF:28:D6:3E,2,2,-420.71939942973586,36140.20780581675,-11316.318303199383
1248,19947,23795,4095,-30232,-7163,17652,-25604,-20991,30160,2,-1,41038,2020-11-02 14:55:56,2020-11-02 14:56:26,1,DF:DC:EF:28:D6:3E,2,2,-24101.69798150342,15719.920760836365,-12363.094462205634
1249,-4631,5863,4866,15329,14859,-30987,7672,-21758,31950,2,-1,41064,2020-11-02 14:55:56,2020-11-02 14:56:26,1,DF:DC:EF:28:D6:3E,2,2,109.02094353538314,-3635.832602392405,-8140.4988619402875
1250,-25626,-24870,-24042,-7203,-28907,-27658,27634,32004,-9525,2,-1,41090,2020-11-02 14:55:56,2020-11-02 14:56:26,1,DF:DC:EF:28:D6:3E,2,2,-23452.79022042358,32936.9568641092,-14776.672271137842
1251,-2583,-3879,-27613,-27417,32027,25330,-6420,14598,-9529,2,-1,41115,2020-11-02 14:55:56,2020-11-02 14:56:26,1,DF:DC:EF:28:D6:3E,2,2,-26461.03597318759,-5673.077673882217,7199.032152433514
1252,27370,-12573,-24032,-2566,-13276,-10774,13289,-2554,-3647,2,-1,41141,2020-11-02 14:55:56,2020-11-02 14:56:26,1,DF:DC:EF:28:D6:3E,2,2,27370.0,27084.449937382004,-1431.7557715783696
1253,-14112,-8720,-22513,22789,-18399,482,-23065,18694,-15174,2,-1,41166,2020-11-02 14:55:56,2020-11-02 14:56:26,1,DF:DC:EF:28:D6:3E,2,2,14384.773689777057,-23207.263400931784,-6043.453014102928
1254,-26174,4866,-29661,10737,-26878,-27421,-4379,-24573,-20158,2,-1,41192,2020-11-02 14:55:56,2020-11-02 14:56:26,1,DF:DC:EF:28:D6:3E,2,2,5972.310072224647,-4063.856613344983,39196.271950625305
1255,23498,21755,-6871,14848,15096,-1797,-14108,27649,11843,2,-1,41218,2020-11-02 14:55:56,2020-11-02 14:56:26,1,DF:DC:EF:28:D6:3E,2,2,14975.379853068182,4046.606954032496,28844.57731387124
1256,-16416,10486,28425,9740,253,-4086,-31002,20994,18500,2,-1,41243,2020-11-02 14:55:56,2020-11-02 14:56:26,1,DF:DC:EF:28:D6:3E,2,2,-15193.546654171681,26694.196519241683,-15620.431788513839
1257,-6433,-23571,27404,-18939,-8718,26897,8168,-4349,-14151,2,-1,41269,2020-11-02 14:55:56,2020-11-02 14:56:26,1,DF:DC:EF:28:D6:3E,2,2,-29871.35293035982,20745.543173046695,-5027.868192896427
1258,-18717,12777,-24317,-26108,-29723,17175,-10007,10757,29886,2,-1,41294,2020-11-02 14:55:56,2020-11-02 14:56:26,1,DF:DC:EF:28:D6:3E,2,2,-21572.696644180447,25128.393814325747,2841.9871235319597
1259,30697,5864,-15362,-9468,2790,-24809,-12309,-10235,4292,2,-1,41320,2020-11-02 14:55:56,2020-11-02 14:56:26,1,DF:DC:EF:28:D6:3E,2,2,15693.088391670564,-16408.912120408564,26403.74838457456
1260,-18709,-19733,29180,18950,-17683,-32747,-5395,25350,-4408,2,1,41346,2020-11-02 14:55:56,2020-11-02 14:56:26,1,DF:DC:EF:28:D6:3E,2,2,-9854.47831034803,-19733.0,-33232.33874151623
1261,-26131,6382,-25861,8452,-24078,-3819,-10257,4359,3277,2,1,41371,2020-11-02 14:55:56,2020-11-02 14:56:26,1,DF:DC:EF:28:D6:3E,2,2,-26131.0,-18313.071822066544,-19343.025757099957
1262,24047,-4372,-13564,17153,-17674,-1255,29425,13064,10961,2,1,41397,2020-11-02 14:55:56,2020-11-02 14:56:26,1,DF:DC:EF:28:D6:3E,2,2,6751.01389734556,-15854.527235379694,-22009.372242307378
1263,2550,-9497,781,5121,19704,-16100,20979,-20215,-19755,2,1,41423,2020-11-02 14:55:56,2020-11-02 14:56:26,1,DF:DC:EF:28:D6:3E,2,2,3515.209629022728,-8884.590169060384,2452.1070106872285
1264,-18691,32737,-27120,-15616,-5899,-6629,-30987,-25590,-26150,2,1,41448,2020-11-02 14:55:56,2020-11-02 14:56:26,1,DF:DC:EF:28:D6:3E,2,2,-46418.60268897359,-248.6996667031599,-1345.556717123016
1265,24075,25311,21012,-28925,-16653,23063,-9225,-31990,21983,2,1,41474,2020-11-02 14:55:56,2020-11-02 14:56:26,1,DF:DC:EF:28:D6:3E,2,2,-1744.1920744560794,-31424.92463714377,-25907.3039036724
1266,4626,16609,-23280,27913,-16910,-2549,16634,16905,-23070,2,1,41499,2020-11-02 14:55:56,2020-11-02 14:56:26,1,DF:DC:EF:28:D6:3E,2,2,-24265.496527077477,6284.046691774863,-14522.864471927853
1267,-5104,27877,2314,-7925,17139,15359,14076,19207,-19741,2,1,41525,2020-11-02 14:55:56,2020-11-02 14:56:26,1,DF:DC:EF:28:D6:3E,2,2,-10343.256063434566,12369.183878778753,-23421.205886529067
1268,11532,6122,-21244,-27893,-29709,-10250,-22019,11013,-4126,2,1,41551,2020-11-02 14:55:56,2020-11-02 14:56:26,1,DF:DC:EF:28:D6:3E,2,2,23201.10190738188,-9058.687515411746,1192.6838564365262
1269,-20217,16110,-10498,21514,-30218,-11023,-8706,17155,8161,2,1,41576,2020-11-02 14:55:56,2020-11-02 14:56:26,1,DF:DC:EF:28:D6:3E,2,2,-4792.066462527948,-7702.867619227878,26385.017006994054
1270,14338,9458,22784,4874,-774,-24336,768,9218,-13090,2,1,41602,2020-11-02 14:55:56,2020-11-02 14:56:26,1,DF:DC:EF:28:D6:3E,2,2,-2602.0922415561527,-28413.229997653994,245.23675672407626
1271,13053,-5902,-6648,9226,-16896,14069,19201,-1791,-12324,2,1,41627,2020-11-02 14:55:56,2020-11-02 14:56:26,1,DF:DC:EF:28:D6:3E,2,2,734.0735134751062,-14690.993261753307,5748.579829830424
1272,22274,-29197,9487,-21491,-32256,-3852,-9982,19714,18395,2,-1,41653,2020-11-02 14:55:56,2020-11-02 14:56:26,1,DF:DC:EF:28:D6:3E,2,2,18781.52723808795,5193.697865388106,-32540.4178075209
1273,-15617,-9741,3844,-3058,-5638,32495,-8700,16386,473,2,-1,41679,2020-11-02 14:55:56,2020-11-02 14:56:26,1,DF:DC:EF:28:D6:3E,2,2,15840.80587007181,-2028.4702958599955,9925.133935897904
1274,-16130,1268,12797,-3322,6645,31212,7686,-22271,-4139,2,-1,41730,2020-11-02 14:55:56,2020-11-02 14:56:26,1,DF:DC:EF:28:D6:3E,2,2,14842.267189592198,-10083.20086874585,-10177.627322381079
1275,23032,12792,-23299,-7938,-29707,-21017,7942,1,12498,2,-1,41732,2020-11-02 14:55:56,2020-11-02 14:56:26,1,DF:DC:EF:28:D6:3E,2,2,-33696.515231093785,9907.981171099105,-1824.4065867591762
1276,-27923,-16389,21503,24060,6647,-19224,31749,-24064,12750,2,-1,41755,2020-11-02 14:55:56,2020-11-02 14:56:26,1,DF:DC:EF:28:D6:3E,2,2,-28988.16149135174,24962.46665758809,6872.700395049598
1277,-20237,10745,-26885,19705,26618,20976,-26108,24064,11723,2,-1,41781,2020-11-02 14:55:56,2020-11-02 14:56:26,1,DF:DC:EF:28:D6:3E,2,2,-9523.910293040117,-11205.581414688662,-32117.355073058374
1278,13818,-13327,-260,1780,-3331,-529,515,18176,-12344,2,-1,41807,2020-11-02 14:55:56,2020-11-02 14:56:26,1,DF:DC:EF:28:D6:3E,2,2,-6410.167209016271,18018.28295400179,-1692.5982222551295
1279,-8977,-18960,28420,-12304,9218,-23830,-22016,-21760,-8251,2,-1,41832,2020-11-02 14:55:56,2020-11-02 14:56:26,1,DF:DC:EF:28:D6:3E,2,2,25912.46780768942,1806.9487193800865,23938.32653802245
1280,12255,24312,18439,-17680,11780,-32276,7422,18177,-25918,2,-1,41858,2020-11-02 14:55:56,2020-11-02 14:56:26,1,DF:DC:EF:28:D6:3E,2,2,6925.417625608376,-4377.185702085102,-31845.469474328285
1281,-18726,17405,-19194,-30738,16386,12537,31995,-14591,-22336,2,-1,41883,2020-11-02 14:55:56,2020-11-02 14:56:26,1,DF:DC:EF:28:D6:3E,2,2,-29541.042176122053,9393.626832364642,-7816.222814304678
1282,7902,-11271,31751,-31768,-20227,11013,18680,2,-15168,2,1,41909,2020-11-02 14:55:56,2020-11-02 14:56:26,1,DF:DC:EF:28:D6:3E,2,2,2783.444950865294,-9964.090454577554,-33023.81537040351
1283,-18972,16369,8456,29156,-7942,1294,27124,19714,-29502,2,1,41935,2020-11-02 14:55:56,2020-11-02 14:56:26,1,DF:DC:EF:28:D6:3E,2,2,8733.971110428163,14366.547926536452,20413.351765859945
1284,13285,-14614,-15095,-14622,-26627,4882,18672,26627,-1340,2,1,41960,2020-11-02 14:55:56,2020-11-02 14:56:26,1,DF:DC:EF:28:D6:3E,2,2,-18432.489291332713,16597.956866982604,1634.139641123058
1285,32222,-21016,-3821,29155,1026,-492,12524,-13563,3527,2,1,41986,2020-11-02 14:55:56,2020-11-02 14:56:26,1,DF:DC:EF:28:D6:3E,2,2,2521.5326335270165,12220.167384775676,36590.14844553276
1286,-3109,-18717,32025,9703,10497,28698,-11288,7945,457,2,1,42011,2020-11-02 14:55:56,2020-11-02 14:56:26,1,DF:DC:EF:28:D6:3E,2,2,26133.335347928616,16835.270029538915,20474.742040504778
1287,6375,-17189,-23009,-6423,-6403,2592,-28186,14861,-28213,2,1,42037,2020-11-02 14:55:56,2020-11-02 14:56:26,1,DF:DC:EF:28:D6:3E,2,2,-21154.5125610372,-19336.16502468109,-6641.968642143605
1288,-28427,-25381,6693,28141,-16138,-19169,-3355,22033,18895,2,1,42063,2020-11-02 14:55:56,2020-11-02 14:56:26,1,DF:DC:EF:28:D6:3E,2,2,-25214.177409460193,29231.761875590888,-2614.401310628936
1289,-16641,19939,29475,3573,12782,5651,1768,-26605,-5676,2,1,42088,2020-11-02 14:55:56,2020-11-02 14:56:26,1,DF:DC:EF:28:D6:3E,2,2,33184.037043992554,19939.0,-6672.1954005357275
1290,26102,10985,-11748,-8195,-29461,-9719,-26389,23827,-28966,2,1,42114,2020-11-02 14:55:56,2020-11-02 14:56:26,1,DF:DC:EF:28:D6:3E,2,2,-9913.25616742397,-27481.35578056012,9300.675761540413
1291,7927,27624,-7400,-9469,12523,778,-25617,11794,-27681,2,1,42139,2020-11-02 14:55:56,2020-11-02 14:56:26,1,DF:DC:EF:28:D6:3E,2,2,-3717.541153432704,23360.370776067906,-17920.81666602186
1292,-7172,-5660,12566,-18168,-7958,-25081,-30221,19984,-15901,2,1,42165,2020-11-02 14:55:56,2020-11-02 14:56:26,1,DF:DC:EF:28:D6:3E,2,2,-15262.121371588732,-534.5163447441482,2856.4809672210035
1293,-30208,-14365,-10736,13837,14060,20482,-10762,-16883,20966,2,-1,42191,2020-11-02 14:55:56,2020-11-02 14:56:26,1,DF:DC:EF:28:D6:3E,2,2,-4415.398959294907,17594.654821355332,-30084.390616191897
1294,8450,-28187,-22776,2575,-17938,-21508,26617,-1014,11751,2,-1,42216,2020-11-02 14:55:56,2020-11-02 14:56:26,1,DF:DC:EF:28:D6:3E,2,2,-4596.0669786844355,7189.464165848722,36219.3790440342
1295,-11774,21223,16896,-3317,-7697,-17929,13051,17928,-15642,2,-1,42242,2020-11-02 14:55:56,2020-11-02 14:56:26,1,DF:DC:EF:28:D6:3E,2,2,-27571.858093856365,-2104.1755095992876,-10482.49529821263
1296,-12033,7398,3601,29190,30960,23540,-3077,29701,-29979,2,-1,42268,2020-11-02 14:55:56,2020-11-02 14:56:26,1,DF:DC:EF:28:D6:3E,2,2,-9041.857939425732,-4485.818453711097,-10517.268267168467
1297,8193,-30490,30215,23055,-24590,-5390,-30979,-14334,2276,2,-1,42293,2020-11-02 14:55:56,2020-11-02 14:56:26,1,DF:DC:EF:28:D6:3E,2,2,15382.72992792707,-37622.7569937205,16050.275703423673
1298,17663,20458,11523,-7158,-16144,-20240,18175,-29952,-3871,2,-1,42319,2020-11-02 14:55:56,2020-11-02 14:56:26,1,DF:DC:EF:28:D6:3E,2,2,-3160.3333355274026,-21879.392348325764,-19354.465781219027
1299,27390,26605,-28157,-9213,6893,-29202,13824,-8963,27871,2,-1,42344,2020-11-02 14:55:56,2020-11-02 14:56:26,1,DF:DC:EF:28:D6:3E,2,2,21075.195217792454,2169.7745129971663,42449.770306736486
1300,-26113,13295,-32257,1281,-18962,13036,-9472,7163,32220,2,-1,42370,2020-11-02 14:55:56,2020-11-02 14:56:26,1,DF:DC:EF:28:D6:3E,2,2,-29972.730381637317,30957.83925556906,6512.101434715465
1301,7931,12273,21755,-22273,-15884,-4887,-19711,10233,985,2,-1,42396,2020-11-02 14:55:56,2020-11-02 14:56:26,1,DF:DC:EF:28:D6:3E,2,2,-15295.26333212614,-9080.112135434856,-19246.137228255604
1302,-21006,-15370,-12037,30973,25852,17898,-30206,-28680,26581,2,-1,42421,2020-11-02 14:55:56,2020-11-02 14:56:26,1,DF:DC:EF:28:D6:3E,2,2,20708.951382820393,12988.579873175448,14993.813074135709
1303,14572,-29190,-19716,5369,-13572,16110,-14334,-26632,15058,2,1,42447,2020-11-02 14:55:56,2020-11-02 14:56:26,1,DF:DC:EF:28:D6:3E,2,2,-1723.4574449509037,17656.06916391668,-33740.374273478854
1304,-10767,10233,31227,499,6141,16115,-5119,26616,-8497,2,1,42472,2020-11-02 14:55:56,2020-11-02 14:56:26,1,DF:DC:EF:28:D6:3E,2,2,-355.4850990637515,19493.03247831051,-28559.821815688476
1305,-1808,-8199,-15359,-17681,-7168,-2573,11520,32760,-5683,2,1,42498,2020-11-02 14:55:56,2020-11-02 14:56:26,1,DF:DC:EF:28:D6:3E,2,2,507.1756134197003,17377.887091465665,-2035.4751615834919
1306,-16665,-6147,-12028,30959,-8445,24823,13054,-1032,14540,2,1,42523,2020-11-02 14:55:56,2020-11-02 14:56:26,1,DF:DC:EF:28:D6:3E,2,2,-5335.958174144552,-20769.378156107556,-584.0371327084358
1307,15334,-4100,-16637,19437,-5118,-2049,-18437,-24071,-29749,2,1,42549,2020-11-02 14:55:56,2020-11-02 14:56:26,1,DF:DC:EF:28:D6:3E,2,2,-823.9703919033336,3246.927150568018,-22748.84308865334
1308,-3605,1783,28420,-26135,7427,30215,19960,27898,9676,2,1,42575,2020-11-02 14:55:56,2020-11-02 14:56:26,1,DF:DC:EF:28:D6:3E,2,2,17535.132499101113,16619.43298174075,15497.905974821104
1309,-11026,20723,25093,13033,-18170,-31734,-32012,-8453,12749,2,1,42600,2020-11-02 14:55:56,2020-11-02 14:56:26,1,DF:DC:EF:28:D6:3E,2,2,28464.90525499408,-18500.94503256681,5304.550473522914
1310,25829,10994,14085,-17686,6413,18188,4593,20478,-18739,2,1,42652,2020-11-02 14:55:56,2020-11-02 14:56:26,1,DF:DC:EF:28:D6:3E,2,2,24898.308889490396,-7555.966812400066,-17589.033002795582
1311,32222,-8728,11014,-31000,8720,-16364,-24083,-3327,4046,2,1,42654,2020-11-02 14:55:56,2020-11-02 14:56:26,1,DF:DC:EF:28:D6:3E,2,2,32222.0,-2630.4211604239163,-13804.60301923942
1312,8927,23771,31505,20454,-12528,21528,-16919,-28922,14030,2,1,42677,2020-11-02 14:55:56,2020-11-02 14:56:26,1,DF:DC:EF:28:D6:3E,2,2,-4250.462410820852,-35781.25108711593,-18410.660904350065
1313,18914,-12846,-17888,9192,18190,15384,-15643,6923,-15411,2,1,42703,2020-11-02 14:55:56,2020-11-02 14:56:26,1,DF:DC:EF:28:D6:3E,2,2,-20879.026718628767,-19381.512612284147,-5582.371193557165
1314,6894,-10536,9766,-30229,-19964,16916,28898,-17138,-23347,2,1,42728,2020-11-02 14:55:56,2020-11-02 14:56:26,1,DF:DC:EF:28:D6:3E,2,2,4701.1632920040465,-15197.948046112997,911.4422030846704
1315,9966,-29980,-7138,-4622,-18181,-18418,-9504,5137,-18482,2,1,42754,2020-11-02 14:55:56,2020-11-02 14:56:26,1,DF:DC:EF:28:D6:3E,2,2,-12999.790267796641,20576.067578357426,21370.622265253955
1316,28652,-3603,16152,-20493,-11278,25871,9441,531,29649,2,1,42780,2020-11-02 14:55:56,2020-11-02 14:56:26,1,DF:DC:EF:28:D6:3E,2,2,-6772.418894493126,-31882.683494715384,5695.142886119342
1317,-17681,-7184,-14826,18671,13286,784,-28189,-27628,27607,2,1,42805,2020-11-02 14:55:56,2020-11-02 14:56:26,1,DF:DC:EF:28:D6:3E,2,2,2386.7693049066393,-21586.40603483522,10600.391492033916
1318,-10762,18927,-22250,-2320,6880,7950,10728,-10988,13024,2,1,42831,2020-11-02 14:55:56,2020-11-02 14:56:26,1,DF:DC:EF:28:D6:3E,2,2,-22536.133117644422,-20322.113633822722,-6946.140983150784
1319,-2824,12012,27670,31482,10725,1546,-13332,-25581,-5913,2,1,42856,2020-11-02 14:55:56,2020-11-02 14:56:26,1,DF:DC:EF:28:D6:3E,2,2,8788.01404980412,23628.70752912116,16803.184506625483
1320,4601,-6681,27668,-2301,32492,32518,32240,-4335,-16148,2,1,42882,2020-11-02 14:55:56,2020-11-02 14:56:26,1,DF:DC:EF:28:D6:3E,2,2,20487.09604350631,-14436.024804740915,14254.938426420973
1321,19193,11748,-26100,22535,25582,-17919,25587,-5873,-27921,2,1,42908,2020-11-02 14:55:56,2020-11-02 14:56:26,1,DF:DC:EF:28:D6:3E,2,2,18475.198362183655,20576.157609957678,20564.180909731054
1322,-5634,-30493,9484,20233,7663,22015,-28427,-26611,13041,2,1,42933,2020-11-02 14:55:56,2020-11-02 14:56:26,1,DF:DC:EF:28:D6:3E,2,2,-3909.4128248861834,-22105.709416784874,23400.11460538781
1323,4867,-6432,-1015,-754,-9231,19705,-27913,7179,-29455,2,1,42959,2020-11-02 14:55:56,2020-11-02 14:56:26,1,DF:DC:EF:28:D6:3E,2,2,-5025.753481487448,539.6323447597812,-6367.035171554014
1324,-16900,-29,29958,-6898,7153,9461,30969,-27640,-18448,2,1,42984,2020-11-02 14:55:56,2020-11-02 14:56:26,1,DF:DC:EF:28:D6:3E,2,2,-13270.91623774316,-30901.263523170666,7217.153170216555
1325,19454,233,10759,-2550,-2836,23028,-8198,-29691,-23569,2,1,43010,2020-11-02 14:55:56,2020-11-02 14:56:26,1,DF:DC:EF:28:D6:3E,2,2,-14074.680309210375,2252.7205481036635,-17061.56822586005
1326,19712,-23573,-23037,-23031,-23316,-24080,508,13314,9966,2,1,43036,2020-11-02 14:55:56,2020-11-02 14:56:26,1,DF:DC:EF:28:D6:3E,2,2,4085.874653671599,-37265.90616529263,-8337.296204051318
1327,-28674,19439,29695,-6137,3310,15085,11261,1791,-4885,2,1,43061,2020-11-02 14:55:56,2020-11-02 14:56:26,1,DF:DC:EF:28:D6:3E,2,2,-28674.0,-14484.544370099718,32401.63144643511
1328,4349,6643,25085,-765,-31505,-6934,17406,8444,7401,2,1,43112,2020-11-02 14:55:56,2020-11-02 14:56:26,1,DF:DC:EF:28:D6:3E,2,2,-1082.1706784109247,-20409.186975193774,-16570.89220996771
1329,-14085,-23307,-13057,16382,4593,32747,-514,-27655,-795,2,1,43114,2020-11-02 14:55:56,2020-11-02 14:56:26,1,DF:DC:EF:28:D6:3E,2,2,-674.9997813716436,-23307.0,19194.18790402835
1330,-17413,-1547,17154,22779,-30221,8686,20735,28407,1251,2,1,43138,2020-11-02 14:55:56,2020-11-02 14:56:26,1,DF:DC:EF:28:D6:3E,2,2,24399.386624151994,-889.254226018073,-1935.110665223472
1331,-23813,-18956,31233,-17414,14584,-6674,-25089,-5643,15584,2,1,43164,2020-11-02 14:55:56,2020-11-02 14:56:26,1,DF:DC:EF:28:D6:3E,2,2,20136.339869727763,-16972.802746678582,-34761.19931149028
1332,-4874,23541,-20224,4602,21758,3309,4096,17653,11741,2,1,43189,2020-11-02 14:55:56,2020-11-02 14:56:26,1,DF:DC:EF:28:D6:3E,2,2,-22226.084523261707,-8004.094329359854,20709.427170531202
1333,3825,3831,29953,10745,-20478,27886,30464,-27403,2778,2,1,43215,2020-11-02 14:55:56,2020-11-02 14:56:26,1,DF:DC:EF:28:D6:3E,2,2,1149.7917764184576,29809.368631494606,-6047.223797954386
1334,-4364,15859,-8965,-9482,6149,19442,18944,20470,-31785,2,1,43240,2020-11-02 14:55:56,2020-11-02 14:56:26,1,DF:DC:EF:28:D6:3E,2,2,15512.59949252804,1552.0506706366775,-10386.240787705387
1335,-18184,8431,9466,20466,-31990,-272,18943,-27401,15573,2,1,43266,2020-11-02 14:55:56,2020-11-02 14:56:26,1,DF:DC:EF:28:D6:3E,2,2,6434.667846416709,9206.94688369776,19109.4728286015
1336,-17934,-25110,14072,-3345,-5618,-5652,-12547,31481,19410,2,1,43292,2020-11-02 14:55:56,2020-11-02 14:56:26,1,DF:DC:EF:28:D6:3E,2,2,17872.148704109033,-26027.670223403948,-12381.773840607206
1337,18918,22247,1782,-22549,-20973,8685,-21765,-10757,-6706,2,1,43317,2020-11-02 14:55:56,2020-11-02 14:56:26,1,DF:DC:EF:28:D6:3E,2,2,-10569.141498170282,-23837.13926923578,13269.487422305074
1338,9440,-2078,-259,-29210,13847,-5389,18168,-21250,-15413,2,1,43343,2020-11-02 14:55:56,2020-11-02 14:56:26,1,DF:DC:EF:28:D6:3E,2,2,5790.794519594305,7621.829093396986,1368.643526592608
1339,6873,747,-22766,-18460,-7914,-28681,-2573,-26111,-8248,2,1,43368,2020-11-02 14:55:56,2020-11-02 14:56:26,1,DF:DC:EF:28:D6:3E,2,2,-11107.791255316592,18681.919245991885,9679.3471223296
1340,27853,-27403,-28900,31204,25863,-23296,-21777,17667,3783,2,-1,43394,2020-11-02 14:55:56,2020-11-02 14:56:26,1,DF:DC:EF:28:D6:3E,2,2,-22990.980241377714,23050.396151411842,-36083.48767516185
1341,-28452,-4118,25881,16610,15096,14610,-23573,-24828,-26680,2,-1,43420,2020-11-02 14:55:56,2020-11-02 14:56:26,1,DF:DC:EF:28:D6:3E,2,2,10540.274064816778,13643.818974447257,34627.29003879835
1342,15088,-17695,-5607,25570,-28938,-17387,-6937,-21498,-14645,2,-1,43445,2020-11-02 14:55:56,2020-11-02 14:56:26,1,DF:DC:EF:28:D6:3E,2,2,-6071.148364670189,21046.171108622362,-9612.442832118788
1343,-27414,2537,-30932,4582,-27911,-26353,32228,-14584,-2867,2,-1,43471,2020-11-02 14:55:56,2020-11-02 14:56:26,1,DF:DC:EF:28:D6:3E,2,2,21598.77255980639,-28941.794699359994,-20263.709741551575
1344,-26136,-5911,25133,-5648,-19,-4335,-4382,-21750,-816,2,-1,43496,2020-11-02 14:55:56,2020-11-02 14:56:26,1,DF:DC:EF:28:D6:3E,2,2,22327.674728580598,-5911.0,-28569.793947711685
1345,-16400,-19479,-1514,4607,-9747,-6382,24036,-29940,22485,2,-1,43522,2020-11-02 14:55:56,2020-11-02 14:56:26,1,DF:DC:EF:28:D6:3E,2,2,-11963.815765390185,-9998.248844973125,20188.75353670441
1346,20469,6122,21261,-31488,-13072,-5869,-11290,24334,26073,2,-1,43548,2020-11-02 14:55:56,2020-11-02 14:56:26,1,DF:DC:EF:28:D6:3E,2,2,27922.493393170585,-101.634357368971,11349.58145332889
1347,-27399,-9495,6925,4605,31213,17,-32023,-30961,5342,2,-1,43573,2020-11-02 14:55:56,2020-11-02 14:56:26,1,DF:DC:EF:28:D6:3E,2,2,-14619.379207342952,-9333.923053015567,24248.04080812083
1348,-15369,8937,-7407,-3331,15083,32525,17388,30223,2019,2,-1,43599,2020-11-02 14:55:56,2020-11-02 14:56:26,1,DF:DC:EF:28:D6:3E,2,2,-12600.660653040046,-7802.287042418744,-12299.896219669208
1349,23545,9447,19985,20483,19435,28425,13551,23566,-29977,2,-1,43625,2020-11-02 14:55:56,2020-11-02 14:56:26,1,DF:DC:EF:28:D6:3E,2,2,16771.4520429087,-21226.289802589272,17640.183575827898
1350,-20484,-17434,521,-3065,-1810,12808,6130,-8180,-3606,2,1,43650,2020-11-02 14:55:56,2020-11-02 14:56:26,1,DF:DC:EF:28:D6:3E,2,2,1040.1275610903763,-9858.036783590062,-25010.94357336495
1351,-15355,-20505,4361,21515,20466,6917,-14092,28427,23021,2,1,43676,2020-11-02 14:55:56,2020-11-02 14:56:26,1,DF:DC:EF:28:D6:3E,2,2,11224.1120647547,-6125.816600601786,-22621.738446317948
1352,26887,-3865,-23798,12038,-3087,-10242,30198,-24055,28398,2,1,43701,2020-11-02 14:55:56,2020-11-02 14:56:26,1,DF:DC:EF:28:D6:3E,2,2,-5106.872962472575,30677.175442385138,-18358.22849357444
1353,5641,25317,-9972,-9209,13551,26105,-29193,-506,-14866,2,1,43727,2020-11-02 14:55:56,2020-11-02 14:56:26,1,DF:DC:EF:28:D6:3E,2,2,12877.67216109907,-12097.254657734069,21448.406548207386
1354,-23288,15077,30731,-21750,32242,-21259,-17672,18692,15086,2,1,43753,2020-11-02 14:55:56,2020-11-02 14:56:26,1,DF:DC:EF:28:D6:3E,2,2,1946.2517617344197,21193.56777486391,35511.773020396984
1355,-6393,-9497,24836,-25846,-7436,-24336,6138,-5119,-14356,2,1,43778,2020-11-02 14:55:56,2020-11-02 14:56:26,1,DF:DC:EF:28:D6:3E,2,2,-21008.607460641586,16645.450749645963,5427.498125820527
1356,-9467,13033,-6909,1288,10740,-26646,15355,31487,24298,2,1,43804,2020-11-02 14:55:56,2020-11-02 14:56:26,1,DF:DC:EF:28:D6:3E,2,2,11635.375280097298,12157.981185683899,-4900.917728329776
1357,-10752,21482,-24320,-5369,-26122,-10266,-29956,12797,5095,2,1,43829,2020-11-02 14:55:56,2020-11-02 14:56:26,1,DF:DC:EF:28:D6:3E,2,2,16932.646564029204,29414.669427928555,4075.1602156670156
1358,763,-17940,3835,-24826,-16389,-1562,8702,-13061,20195,2,1,43855,2020-11-02 14:55:56,2020-11-02 14:56:26,1,DF:DC:EF:28:D6:3E,2,2,-9586.48895478631,14417.19007122782,6113.661257368622
1359,4598,-10002,-18446,-23551,19967,9450,22527,20731,-16929,2,1,43881,2020-11-02 14:55:56,2020-11-02 14:56:26,1,DF:DC:EF:28:D6:3E,2,2,12275.52366255312,-3226.9920673072806,-17330.16344434277
1360,-1036,-1810,-21261,27384,27137,3820,18431,27387,-26404,2,1,43906,2020-11-02 14:55:56,2020-11-02 14:56:26,1,DF:DC:EF:28:D6:3E,2,2,6216.3563378453255,-14529.00723771283,-14375.13059305613
1361,-14605,23278,-6658,-21257,27651,-11543,27134,-20229,20953,2,1,43932,2020-11-02 14:55:56,2020-11-02 14:56:26,1,DF:DC:EF:28:D6:3E,2,2,-13309.063340397679,22356.212215840733,11071.083116008831
1362,-1300,-19981,16381,2300,-11256,-32535,7678,-29444,-16939,2,1,43957,2020-11-02 14:55:56,2020-11-02 14:56:26,1,DF:DC:EF:28:D6:3E,2,2,-19019.438665050973,17507.2577706941,-1012.1265814289982
1363,-15130,17143,-23046,12793,20744,-3347,-20739,-13059,-31278,2,1,43983,2020-11-02 14:55:56,2020-11-02 14:56:26,1,DF:DC:EF:28:D6:3E,2,2,15918.16754500235,-17483.387148740607,-22245.462027489688
1364,19946,-28428,20730,28144,6405,-268,-1285,-25346,20944,2,-1,44009,2020-11-02 14:55:56,2020-11-02 14:56:26,1,DF:DC:EF:28:D6:3E,2,2,1387.3488148605447,28517.607376835876,-28645.214831914614
1365,-10772,18927,-32254,-22,11272,-24841,-264,24063,-15666,2,-1,44034,2020-11-02 14:55:56,2020-11-02 14:56:26,1,DF:DC:EF:28:D6:3E,2,2,4122.056232310026,-36474.685235316516,12930.344867877935
1366,17893,-2576,-24564,5612,-15349,28919,-14859,-32256,-6708,2,-1,44060,2020-11-02 14:55:56,2020-11-02 14:56:26,1,DF:DC:EF:28:D6:3E,2,2,-8640.865400478782,-25898.37221032,-13593.935522376643
1367,12514,-13328,-1264,-4117,23820,-23556,-23566,-7679,12491,2,-1,44085,2020-11-02 14:55:56,2020-11-02 14:56:26,1,DF:DC:EF:28:D6:3E,2,2,-14847.912322617442,9210.229657280444,5526.72102788054
1368,2279,-1811,-29674,11500,25355,-9215,27375,30467,4810,2,-1,44111,2020-11-02 14:55:56,2020-11-02 14:56:26,1,DF:DC:EF:28:D6:3E,2,2,-19267.313036556185,-21273.60864838346,8076.141493731797
1369,-791,2031,-16617,4080,21770,-14078,-28180,1541,8905,2,-1,44137,2020-11-02 14:55:56,2020-11-02 14:56:26,1,DF:DC:EF:28:D6:3E,2,2,-9892.444080762501,5411.844769130386,12398.661915861043
1370,-2074,-20495,11285,2290,-30970,24068,16106,21766,27080,2,-1,44162,2020-11-02 14:55:56,2020-11-02 14:56:26,1,DF:DC:EF:28:D6:3E,2,2,-501.02488118363,2070.417461758392,23391.452960482828
1371,4840,15599,-2030,-8721,1792,28426,8936,-22777,-15672,2,-1,44188,2020-11-02 14:55:56,2020-11-02 14:56:26,1,DF:DC:EF:28:D6:3E,2,2,11917.401714811867,1682.3411446261075,-11225.888189399417
1372,1520,-17683,-19431,-8979,-2566,-7923,-27,22537,8906,2,-1,44213,2020-11-02 14:55:56,2020-11-02 14:56:26,1,DF:DC:EF:28:D6:3E,2,2,12585.126169565126,-13127.801623514519,19022.04178919226
1373,-9482,3566,-27109,-4110,-4362,1548,-23068,-16886,16588,2,-1,44239,2020-11-02 14:55:56,2020-11-02 14:56:26,1,DF:DC:EF:28:D6:3E,2,2,-10451.549437478676,-20862.104240647608,-17119.003534326766
1374,-11785,14830,-30949,-9222,-30728,24585,32228,-13557,19406,2,-1,44265,2020-11-02 14:55:56,2020-11-02 14:56:26,1,DF:DC:EF:28:D6:3E,2,2,-21965.200434762082,28859.578761081284,-1144.731232068798
1375,-2826,7407,25119,-8193,-16647,-27897,12773,-27892,-2097,2,-1,44290,2020-11-02 14:55:56,2020-11-02 14:56:26,1,DF:DC:EF:28:D6:3E,2,2,-966.6147442652,-25923.04168273898,4568.988055483009
1376,2295,-17683,17700,17924,-3852,11016,-11290,7693,3794,2,-1,44316,2020-11-02 14:55:56,2020-11-02 14:56:26,1,DF:DC:EF:28:D6:3E,2,2,21808.138274706223,5339.870756433453,11275.477785702935
1377,-21769,13291,17183,-8952,-12563,-28412,-16407,-16372,11477,2,-1,44342,2020-11-02 14:55:56,2020-11-02 14:56:26,1,DF:DC:EF:28:D6:3E,2,2,-20226.837210793812,19941.90564286323,-11789.44387064915
1378,23285,-25878,-15594,781,21484,22530,12525,15115,20696,2,-1,44367,2020-11-02 14:55:56,2020-11-02 14:56:26,1,DF:DC:EF:28:D6:3E,2,2,21412.887880513663,-28253.16243953153,-14081.263784973133
1379,22007,-1558,-26094,-21745,-20243,-11007,32496,24585,-14886,2,-1,44393,2020-11-02 14:55:56,2020-11-02 14:56:26,1,DF:DC:EF:28:D6:3E,2,2,-19028.92535087656,19611.257696721856,20516.59865922066
1380,25849,-30486,9487,-22767,-4371,24832,-19213,12295,-25380,2,-1,44418,2020-11-02 14:55:56,2020-11-02 14:56:26,1,DF:DC:EF:28:D6:3E,2,2,-13797.769566843821,-32246.211325531993,-21386.294118650163
1381,-31749,8684,-25078,2835,-14353,-25345,-13322,-8444,-11811,2,-1,44444,2020-11-02 14:55:56,2020-11-02 14:56:26,1,DF:DC:EF:28:D6:3E,2,2,-15993.09413064177,28534.881478526284,-25343.607086105352
1382,-1796,-13330,-23545,3859,-27919,28670,-18439,-22526,28382,2,-1,44469,2020-11-02 14:55:56,2020-11-02 14:56:26,1,DF:DC:EF:28:D6:3E,2,2,8634.045950007061,-5109.300792889638,-25191.860529562797
1383,20989,13554,-19454,29713,-12045,-25090,28668,-22272,-24098,2,-1,44495,2020-11-02 14:55:56,2020-11-02 14:56:26,1,DF:DC:EF:28:D6:3E,2,2,23082.4707115368,-4067.5312509320083,21292.29645608329
1384,22013,15605,11007,16910,29686,-5120,-16642,3583,-13858,2,-1,44521,2020-11-02 14:55:56,2020-11-02 14:56:26,1,DF:DC:EF:28:D6:3E,2,2,-5964.764115129468,-21478.981141429245,-18770.114575489162
1385,5628,-6155,7683,26380,19963,-11260,-28416,1790,17887,2,-1,44546,2020-11-02 14:55:56,2020-11-02 14:56:26,1,DF:DC:EF:28:D6:3E,2,2,-5318.884266989189,2567.6336784279742,-9680.063297715427
1386,-21250,26869,-25339,-1266,13059,-12280,32514,-1795,28640,2,-1,44572,2020-11-02 14:55:56,2020-11-02 14:56:26,1,DF:DC:EF:28:D6:3E,2,2,1269.1381816287467,26982.516640983384,-32953.05245337656
1387,2052,-29451,29698,16659,-18170,30727,-252,-24066,-7967,2,-1,44597,2020-11-02 14:55:56,2020-11-02 14:56:26,1,DF:DC:EF:28:D6:3E,2,2,-13363.281318012172,-33696.29615001224,-20964.866972779415
1388,-1531,-18442,-23041,18708,-11769,14850,-3833,31999,-11294,2,-1,44623,2020-11-02 14:55:56,2020-11-02 14:56:26,1,DF:DC:EF:28:D6:3E,2,2,-3815.3046702912743,-28190.758500048076,-8003.973479767461
1389,-30711,14840,-4103,-24814,-8952,17406,-4854,-25088,20963,2,-1,44649,2020-11-02 14:55:56,2020-11-02 14:56:26,1,DF:DC:EF:28:D6:3E,2,2,-18893.293311330268,-12296.838953256123,25924.061209805182
1390,-14580,-21768,31736,-5878,10502,-30214,6669,-7935,27363,2,-1,44674,2020-11-02 14:55:56,2020-11-02 14:56:26,1,DF:DC:EF:28:D6:3E,2,2,-24605.770602302073,30359.839129134733,-12900.858154399904
1391,-27631,246,31739,23552,-28416,12022,-19955,-9726,-22046,2,1,44700,2020-11-02 14:55:56,2020-11-02 14:56:26,1,DF:DC:EF:28:D6:3E,2,2,-10827.09276613046,-5821.649375990921,-40246.48132168364
1392,-4077,24816,21503,12280,-23812,-19475,-27380,-20477,-25376,2,1,44726,2020-11-02 14:55:56,2020-11-02 14:56:26,1,DF:DC:EF:28:D6:3E,2,2,22389.4563265901,23789.641999200554,-5253.567640145848
1393,1293,26856,-6399,-29196,-13317,-21535,13322,-3068,-11300,2,1,44751,2020-11-02 14:55:56,2020-11-02 14:56:26,1,DF:DC:EF:28:D6:3E,2,2,-3809.5238137867937,-3982.661982829602,27083.015301895673
1394,-23045,-802,29960,31214,5625,-29480,24838,11526,11479,2,1,44777,2020-11-02 14:55:56,2020-11-02 14:56:26,1,DF:DC:EF:28:D6:3E,2,2,-17904.175256602073,-16623.470000378515,28851.647830364796
1395,-7698,-17447,31759,-16669,13555,9430,-23296,-23035,23760,2,1,44802,2020-11-02 14:55:56,2020-11-02 14:56:26,1,DF:DC:EF:28:D6:3E,2,2,3952.5160133029303,23900.55326516987,28025.564486435625
1396,-27676,-25641,30493,-14624,-32009,20950,24570,21763,7114,2,1,44828,2020-11-02 14:55:56,2020-11-02 14:56:26,1,DF:DC:EF:28:D6:3E,2,2,-18758.268791951024,44517.144193355176,4426.751720724802
1397,19415,30946,7203,26606,-30203,-8739,-1291,22273,-27964,2,1,44854,2020-11-02 14:55:56,2020-11-02 14:56:26,1,DF:DC:EF:28:D6:3E,2,2,-11520.93976804647,-34004.65226889733,-9870.76090949533
1398,-5675,-783,-7137,-25346,-6894,-15125,-28684,-13311,4288,2,1,44879,2020-11-02 14:55:56,2020-11-02 14:56:26,1,DF:DC:EF:28:D6:3E,2,2,4885.238021165875,6621.7350570531125,-4005.3161311872927
1399,17622,-6149,-30699,-18941,-9976,-15117,-19980,-7166,-1348,2,1,44905,2020-11-02 14:55:56,2020-11-02 14:56:26,1,DF:DC:EF:28:D6:3E,2,2,-16782.777384162473,1755.2207341662752,31717.99598726246
1400,25300,-25856,-4600,-1541,9461,-11526,-26380,6658,7100,2,1,44930,2020-11-02 14:55:56,2020-11-02 14:56:26,1,DF:DC:EF:28:D6:3E,2,2,-17294.52975868121,10788.50837453514,-30237.22975867127
1401,20695,-5121,12548,30452,10478,17157,18163,23808,-32323,2,1,44956,2020-11-02 14:55:56,2020-11-02 14:56:26,1,DF:DC:EF:28:D6:3E,2,2,-4178.671012945876,-2496.107667763594,24254.239321745335
1402,16344,-4355,252,19957,-32272,-30709,-32527,17919,10432,2,1,44982,2020-11-02 14:55:56,2020-11-02 14:56:26,1,DF:DC:EF:28:D6:3E,2,2,-7812.444693619355,-14900.812337027837,1757.0898115400403
1403,21976,20980,18934,-13324,-15113,10774,-15889,-5633,19651,2,-1,45007,2020-11-02 14:55:56,2020-11-02 14:56:26,1,DF:DC:EF:28:D6:3E,2,2,-22953.602114583213,-5299.701110222617,-26956.384217986397
1404,-22562,6623,-21503,-6673,4607,13346,-20243,-6654,-7482,2,-1,45033,2020-11-02 14:55:56,2020-11-02 14:56:26,1,DF:DC:EF:28:D6:3E,2,2,-23910.727042376642,19487.16316619789,-7988.403222105075
1405,15854,-10288,13847,7918,15871,17448,-14613,32519,-11318,2,-1,45058,2020-11-02 14:55:56,2020-11-02 14:56:26,1,DF:DC:EF:28:D6:3E,2,2,14766.149060745209,8230.714700618091,16221.832400591575
1406,23805,19161,-2531,4850,2040,-13536,12011,30987,14543,2,-1,45084,2020-11-02 14:55:56,2020-11-02 14:56:26,1,DF:DC:EF:28:D6:3E,2,2,9720.830985719305,-7609.739101739343,28068.224431740222
1407,13563,-7967,-1765,-16137,-24846,-19179,-3861,25357,-21805,2,-1,45110,2020-11-02 14:55:56,2020-11-02 14:56:26,1,DF:DC:EF:28:D6:3E,2,2,6329.956303398648,8949.849130149698,11418.193234685707
1408,-5389,-6682,11550,3839,-6159,-27372,-6163,14862,6872,2,-1,45161,2020-11-02 14:55:56,2020-11-02 14:56:26,1,DF:DC:EF:28:D6:3E,2,2,1899.742044262388,14264.732154350057,-36.62963163063341
1409,-22280,-12060,-12261,-13820,-14864,-8429,12785,-26866,-8484,2,-1,45163,2020-11-02 14:55:56,2020-11-02 14:56:26,1,DF:DC:EF:28:D6:3E,2,2,19075.408211017806,215.10932836699703,20694.36277250121
1410,20731,15332,-32747,24584,-17427,-28912,1269,-15859,29153,2,-1,45186,2020-11-02 14:55:56,2020-11-02 14:56:26,1,DF:DC:EF:28:D6:3E,2,2,20701.5751951727,-15931.778044491148,32478.20541193248
1411,1025,-21276,-12530,7943,-11031,-14581,11000,-21237,12261,2,-1,45212,2020-11-02 14:55:56,2020-11-02 14:56:26,1,DF:DC:EF:28:D6:3E,2,2,-161.18197913245967,2639.4596388070468,24570.85619559708
1412,26372,-28442,-13312,-10751,-15386,4,-15367,27144,-30233,2,-1,45238,2020-11-02 14:55:56,2020-11-02 14:56:26,1,DF:DC:EF:28:D6:3E,2,2,-11373.508203493406,-39394.930653132535,-567.3111844013201
1413,30475,1510,-13552,2307,4068,29437,250,28420,-19480,2,-1,45263,2020-11-02 14:55:56,2020-11-02 14:56:26,1,DF:DC:EF:28:D6:3E,2,2,9779.984612415461,-131.161087701616,31921.734394452782
1414,22535,16871,14342,-23800,8431,14322,-518,-26112,7144,2,-1,45289,2020-11-02 14:55:56,2020-11-02 14:56:26,1,DF:DC:EF:28:D6:3E,2,2,-16290.559369620581,5854.06897179851,-26429.101042190083
1415,-18938,-29461,-16898,19472,-11,-5138,1789,8446,8678,2,-1,45314,2020-11-02 14:55:56,2020-11-02 14:56:26,1,DF:DC:EF:28:D6:3E,2,2,11579.417119440142,-36493.008189780456,6805.7491457321175
1416,-5378,25071,7168,-15342,-10243,-30481,-5377,12285,-30493,2,-1,45340,2020-11-02 14:55:56,2020-11-02 14:56:26,1,DF:DC:EF:28:D6:3E,2,2,-21557.47796772852,15507.92210475875,1907.2610370985994
1417,7685,10226,14332,5906,18939,-30735,2307,-9220,17889,2,-1,45366,2020-11-02 14:55:56,2020-11-02 14:56:26,1,DF:DC:EF:28:D6:3E,2,2,6385.509006988423,-11239.603452291009,14210.317165950863
1418,2821,28914,-6915,15109,4342,-17683,5,5372,32734,2,-1,45391,2020-11-02 14:55:56,2020-11-02 14:56:26,1,DF:DC:EF:28:D6:3E,2,2,28526.547502801746,5496.683051659009,-6915.0
1419,24835,20466,15870,-26111,-32270,13290,3334,-8454,-3622,2,-1,45417,2020-11-02 14:55:56,2020-11-02 14:56:26,1,DF:DC:EF:28:D6:3E,2,2,64.26323733393292,20466.0,29472.529501831486
1420,-5125,-782,-21000,17663,-16650,24297,-1530,15354,2007,2,-1,45443,2020-11-02 14:55:56,2020-11-02 14:56:26,1,DF:DC:EF:28:D6:3E,2,2,-16962.49342603521,-782.0,13399.232879971609
1421,-21510,4082,30969,25851,32250,22508,23303,17146,-28973,2,-1,45468,2020-11-02 14:55:56,2020-11-02 14:56:26,1,DF:DC:EF:28:D6:3E,2,2,-23395.069507747536,-5869.153263646349,29268.507780470987
1422,16893,-31764,6140,19702,20988,-13587,-13306,-28166,-22832,2,1,45494,2020-11-02 14:55:56,2020-11-02 14:56:26,1,DF:DC:EF:28:D6:3E,2,2,-6140.755077772682,-19866.97655830821,-29993.651236660753
1423,-5893,24298,-7942,-17166,12542,-29720,-21243,-2054,24269,2,1,45519,2020-11-02 14:55:56,2020-11-02 14:56:26,1,DF:DC:EF:28:D6:3E,2,2,-15201.044719911317,20915.715804018306,4433.586452162084
1424,-6167,31213,29957,3055,-30971,-16668,-7933,19196,29129,2,1,45545,2020-11-02 14:55:56,2020-11-02 14:56:26,1,DF:DC:EF:28:D6:3E,2,2,41672.619445928416,7443.76902407469,10848.419158156401
1425,7387,8438,20491,10224,-8953,-16661,-18943,8190,-1339,2,1,45570,2020-11-02 14:55:56,2020-11-02 14:56:26,1,DF:DC:EF:28:D6:3E,2,2,-14080.812551803136,-5461.866601159819,-17819.86041225122
1426,15828,-262,24583,5613,3843,3832,10751,17919,-2877,2,1,45596,2020-11-02 14:55:56,2020-11-02 14:56:26,1,DF:DC:EF:28:D6:3E,2,2,-13826.32186418684,-20827.44042366997,-15164.717805036362
1427,987,-7435,-13307,-12571,13566,-24826,-28165,-27649,8388,2,1,45622,2020-11-02 14:55:56,2020-11-02 14:56:26,1,DF:DC:EF:28:D6:3E,2,2,-11656.42609969622,9480.001697386322,-2754.4403061008943
1428,26082,20459,3849,19681,-20994,-23793,247,6144,710,2,1,45647,2020-11-02 14:55:56,2020-11-02 14:56:26,1,DF:DC:EF:28:D6:3E,2,2,17330.986562178416,20459.0,-19867.622650473088
1429,3046,17889,27151,24288,-18943,3348,13810,-18943,26824,2,1,45673,2020-11-02 14:55:56,2020-11-02 14:56:26,1,DF:DC:EF:28:D6:3E,2,2,-21888.874408955744,23816.082534376303,-4488.053901719355
1430,-22041,-6948,-4326,994,-6653,-491,-21011,22020,-29750,2,1,45699,2020-11-02 14:55:56,2020-11-02 14:56:26,1,DF:DC:EF:28:D6:3E,2,2,389.79698743289055,23414.359915851044,-2100.1116731202765
1431,-15640,-15136,290,-24857,258,-28906,4586,26375,24268,2,1,45724,2020-11-02 14:55:56,2020-11-02 14:56:26,1,DF:DC:EF:28:D6:3E,2,2,-17993.695358837056,2322.8658616990333,-12025.947676666445
1432,-25621,-24861,-24033,-13076,-10500,30232,-11801,31242,-30770,2,1,45750,2020-11-02 14:55:56,2020-11-02 14:56:26,1,DF:DC:EF:28:D6:3E,2,2,103.54306954745698,-40216.95233720126,-15319.140789875608
1433,-20751,11749,-16101,30445,16628,25882,-13082,27149,-4399,2,1,45775,2020-11-02 14:55:56,2020-11-02 14:56:26,1,DF:DC:EF:28:D6:3E,2,2,16578.069250354878,-19529.907051912676,-13100.975287133762
1434,18682,229,-4071,-30993,10222,4122,17895,-4337,-2858,2,1,45801,2020-11-02 14:55:56,2020-11-02 14:56:26,1,DF:DC:EF:28:D6:3E,2,2,18682.0,347.7912710902175,4062.5759355061227
1435,31740,15592,31513,-8461,-19222,11284,18409,24337,-2596,2,1,45827,2020-11-02 14:55:56,2020-11-02 14:56:26,1,DF:DC:EF:28:D6:3E,2,2,1198.5731903147862,-19883.07782098474,42974.805080094586
1436,30971,8168,-24553,11768,-22296,22799,13036,23825,5859,2,1,45852,2020-11-02 14:55:56,2020-11-02 14:56:26,1,DF:DC:EF:28:D6:3E,2,2,-34079.3029647475,-18045.179821531765,11905.52261118912
1437,25084,-6682,-14058,-17667,-24088,23820,20207,18192,-22808,2,1,45878,2020-11-02 14:55:56,2020-11-02 14:56:26,1,DF:DC:EF:28:D6:3E,2,2,23985.328648170213,-5266.893619241091,-16384.36404755652
1438,-13315,3559,11277,16387,-11285,-32505,11506,-31474,-11796,2,1,45903,2020-11-02 14:55:56,2020-11-02 14:56:26,1,DF:DC:EF:28:D6:3E,2,2,-8517.728526720468,9588.118162676124,12354.866484250353
1439,-10501,3562,-14323,7942,4077,-22013,19444,27916,27119,2,1,45929,2020-11-02 14:55:56,2020-11-02 14:56:26,1,DF:DC:EF:28:D6:3E,2,2,1637.434122959099,4198.473816636122,-17544.195652807513
1440,-18691,24809,5909,-9720,-25364,-15106,1526,-6647,-2320,2,1,45955,2020-11-02 14:55:56,2020-11-02 14:56:26,1,DF:DC:EF:28:D6:3E,2,2,-15071.042448211261,24809.0,-12535.287851669556
1441,-11013,24808,19727,-19698,-12050,4346,3576,263,29681,2,1,45980,2020-11-02 14:55:56,2020-11-02 14:56:26,1,DF:DC:EF:28:D6:3E,2,2,20665.021757336628,17597.72453383686,19727.0
1442,1534,13546,26890,12049,-271,18680,24570,-29180,5105,2,1,46006,2020-11-02 14:55:56,2020-11-02 14:56:26,1,DF:DC:EF:28:D6:3E,2,2,-26249.92541370682,11496.162610611702,-9364.776185537063
1443,-16135,22764,31749,-4085,28913,-22795,22012,9730,2800,2,1,46031,2020-11-02 14:55:56,2020-11-02 14:56:26,1,DF:DC:EF:28:D6:3E,2,2,-32463.09252000237,-27016.608328505263,-1669.5569657565393
1444,16123,-25874,13063,-31224,13296,-17417,-23299,-26113,-2834,2,1,46057,2020-11-02 14:55:56,2020-11-02 14:56:26,1,DF:DC:EF:28:D6:3E,2,2,-31820.023424386665,7026.264050017628,6178.5675338960045
1445,-18426,-9490,-27906,-7161,-24850,-21774,-1538,-4868,-27155,2,-1,46083,2020-11-02 14:55:56,2020-11-02 14:56:26,1,DF:DC:EF:28:D6:3E,2,2,19226.093038505154,-7741.764816548208,-27906.0
1446,-26365,-15891,16897,28420,-16658,6634,17408,12282,-18710,2,-1,46108,2020-11-02 14:55:56,2020-11-02 14:56:26,1,DF:DC:EF:28:D6:3E,2,2,8098.828860842304,-12327.931004610664,31868.115777816965
1447,2812,17392,-12801,12547,-21006,26344,-7423,2296,-9242,2,-1,46134,2020-11-02 14:55:56,2020-11-02 14:56:26,1,DF:DC:EF:28:D6:3E,2,2,362.5326804573542,-3108.98748029153,-21551.273185196995
1448,-14852,-31504,-9216,-5118,22263,235,-21501,-7434,7907,2,-1,46159,2020-11-02 14:55:56,2020-11-02 14:56:26,1,DF:DC:EF:28:D6:3E,2,2,-35655.12264924962,-212.0841411283518,-5165.83247735047
1449,-30978,24816,23289,-17921,-29958,30441,23045,-30986,26079,2,-1,46185,2020-11-02 14:55:56,2020-11-02 14:56:26,1,DF:DC:EF:28:D6:3E,2,2,28119.797664425376,30409.200346596328,20060.044232063472
1450,14587,-7185,14584,23288,31483,-4634,16134,-14602,22491,2,-1,46211,2020-11-02 14:55:56,2020-11-02 14:56:26,1,DF:DC:EF:28:D6:3E,2,2,-3885.585503142214,10928.88334700373,18508.36524616249
1451,-16394,-17170,-4104,27632,-17924,-7706,-6907,15095,9175,2,-1,46236,2020-11-02 14:55:56,2020-11-02 14:56:26,1,DF:DC:EF:28:D6:3E,2,2,20407.228494222618,8220.773993716208,9817.273151381085
1452,-20492,22766,-17155,-20757,32514,-16664,19972,7416,25299,2,-1,46262,2020-11-02 14:55:56,2020-11-02 14:56:26,1,DF:DC:EF:28:D6:3E,2,2,-19096.008576047676,8667.335406836866,28155.40087459075
1453,-1045,27632,17668,-18711,17671,-24088,770,-27143,-10545,2,-1,46288,2020-11-02 14:55:56,2020-11-02 14:56:26,1,DF:DC:EF:28:D6:3E,2,2,30845.06673095429,3103.394716675193,-10757.71688582151
1454,27619,1780,18183,-2584,7,17132,20479,-5382,30924,2,-1,46313,2020-11-02 14:55:56,2020-11-02 14:56:26,1,DF:DC:EF:28:D6:3E,2,2,3684.0769438418447,-27712.26819972863,-17749.839951339334
1455,19672,12021,-21236,6121,27914,-19724,18940,17916,-3383,2,-1,46339,2020-11-02 14:55:56,2020-11-02 14:56:26,1,DF:DC:EF:28:D6:3E,2,2,-16268.902141159797,-8903.875310474614,-25268.627754131936
1456,-31271,-8463,24343,28388,-13048,-31997,25848,3070,15049,2,-1,46364,2020-11-02 14:55:56,2020-11-02 14:56:26,1,DF:DC:EF:28:D6:3E,2,2,-8768.554881574411,-38403.282957658244,-9506.82714489191
1457,-17435,-25872,-25321,1767,20995,-8184,20212,31999,-55,2,-1,46390,2020-11-02 14:55:56,2020-11-02 14:56:26,1,DF:DC:EF:28:D6:3E,2,2,-25482.493317027605,29186.385596130618,-10643.78129151582
1458,9187,-28944,4372,3819,-15869,11528,-8208,-14592,-17718,2,-1,46416,2020-11-02 14:55:56,2020-11-02 14:56:26,1,DF:DC:EF:28:D6:3E,2,2,26148.386510971228,15807.856488193363,-2764.7866321907613
1459,20958,-28945,-2031,-32021,24837,16653,-9747,-26110,31435,2,1,46441,2020-11-02 14:55:56,2020-11-02 14:56:26,1,DF:DC:EF:28:D6:3E,2,2,-15528.239109675122,-8664.081835383578,-31064.179147412415
1460,21725,-1303,4378,-26135,26627,-14060,-15126,24581,-24116,2,1,46467,2020-11-02 14:55:56,2020-11-02 14:56:26,1,DF:DC:EF:28:D6:3E,2,2,5543.731276400129,-13338.5423611121,16857.955072187164
1461,-10777,-9504,7453,15083,5114,6171,17128,-29688,5071,2,1,46492,2020-11-02 14:55:56,2020-11-02 14:56:26,1,DF:DC:EF:28:D6:3E,2,2,-14318.159499382553,-2821.9341875877644,7003.138581462212
1462,1524,11486,2589,22002,15095,-13285,19431,-16629,-28462,2,1,46518,2020-11-02 14:55:56,2020-11-02 14:56:26,1,DF:DC:EF:28:D6:3E,2,2,8736.698470720446,7839.835270869685,1777.8570688721375
1463,-29959,-10014,14875,-19209,26100,26390,-5145,21774,21462,2,1,46543,2020-11-02 14:55:56,2020-11-02 14:56:26,1,DF:DC:EF:28:D6:3E,2,2,-30027.347816022153,14395.522809265573,-10498.324065466062
1464,-3339,29416,-2282,26872,-13845,-1520,-18967,26127,-38,2,1,46569,2020-11-02 14:55:56,2020-11-02 14:56:26,1,DF:DC:EF:28:D6:3E,2,2,3614.4039894323773,-29443.65513839132,-1290.2545844358383
1465,21754,22253,6412,14841,30180,14096,23276,6671,-7456,2,1,46595,2020-11-02 14:55:56,2020-11-02 14:56:26,1,DF:DC:EF:28:D6:3E,2,2,-11368.037996587642,-235.12719724045655,-29669.1539533782
1466,-6,25065,27669,25599,-6685,-8944,19183,-8947,-6426,2,1,46620,2020-11-02 14:55:56,2020-11-02 14:56:26,1,DF:DC:EF:28:D6:3E,2,2,-13322.185142167296,-32405.15353861722,-12893.922179711684
1467,27392,32486,7186,-10745,-18456,-25076,-22798,11788,-12053,2,1,46646,2020-11-02 14:55:56,2020-11-02 14:56:26,1,DF:DC:EF:28:D6:3E,2,2,-19151.28424797445,32999.396303227244,-20039.176911136783
1468,20478,1511,13,17163,3309,-6394,-22027,7178,-6930,2,1,46672,2020-11-02 14:55:56,2020-11-02 14:56:26,1,DF:DC:EF:28:D6:3E,2,2,4618.080688443689,-9957.43484463034,-17353.806385630938
1469,-8447,-13594,7437,20492,-9747,-23294,5880,-16121,-17168,2,1,46697,2020-11-02 14:55:56,2020-11-02 14:56:26,1,DF:DC:EF:28:D6:3E,2,2,-16639.921223095414,-3671.17602870886,-4592.722749678258
1470,-23293,4071,15371,-12275,26095,-24323,13562,11269,30961,2,1,46723,2020-11-02 14:55:56,2020-11-02 14:56:26,1,DF:DC:EF:28:D6:3E,2,2,-19240.453471015546,9797.546208085496,18144.35365423953
1471,-18173,-17175,-13050,-24307,10224,28665,11004,-28414,15345,2,1,46748,2020-11-02 14:55:56,2020-11-02 14:56:26,1,DF:DC:EF:28:D6:3E,2,2,281.79894458975286,-4704.453168259572,27808.807305285147
1472,20483,-1043,32002,-30197,3825,24565,-7683,3328,10736,2,1,46774,2020-11-02 14:55:56,2020-11-02 14:56:26,1,DF:DC:EF:28:D6:3E,2,2,-11118.554792404124,31481.038883717214,18168.408629546844
1473,-8448,13041,-514,-9209,3313,14067,20479,-23043,29422,2,1,46800,2020-11-02 14:55:56,2020-11-02 14:56:26,1,DF:DC:EF:28:D6:3E,2,2,-10239.93289272089,-10641.658976654036,4857.926468893011
1474,14336,13299,-8963,-3837,-14607,11507,22784,26107,32236,2,1,46825,2020-11-02 14:55:56,2020-11-02 14:56:26,1,DF:DC:EF:28:D6:3E,2,2,-16378.084122186769,13411.342971142212,3822.8139108473515
1475,-1021,-26381,252,30720,-9230,20978,4609,25849,25834,2,1,46851,2020-11-02 14:55:56,2020-11-02 14:56:26,1,DF:DC:EF:28:D6:3E,2,2,-20276.76972238461,16883.0379813616,-937.4135401670248
1476,31749,12272,-20995,-2823,-16397,13038,23553,-28425,-20505,2,-1,46902,2020-11-02 14:55:56,2020-11-02 14:56:26,1,DF:DC:EF:28:D6:3E,2,2,13847.183841213462,26126.155186351403,-26927.13361734442
1477,7425,25836,21246,-13573,-6410,28648,-2559,4342,1764,2,-1,46904,2020-11-02 14:55:56,2020-11-02 14:56:26,1,DF:DC:EF:28:D6:3E,2,2,7425.0,25836.0,21246.0
1478,-4613,18411,-518,19963,-7428,-5913,2819,-23051,-7713,2,-1,46929,2020-11-02 14:55:56,2020-11-02 14:56:26,1,DF:DC:EF:28:D6:3E,2,2,16909.66185888593,7740.130177892199,3829.7173064628237
1479,3834,-22295,22776,-20747,-4864,13545,29699,6134,1756,2,-1,46953,2020-11-02 14:55:56,2020-11-02 14:56:26,1,DF:DC:EF:28:D6:3E,2,2,25497.992697787835,15516.210854825013,11815.765996843738
1480,23800,3817,-4870,-4884,-28922,2280,29186,11255,23256,2,-1,46979,2020-11-02 14:55:56,2020-11-02 14:56:26,1,DF:DC:EF:28:D6:3E,2,2,-8347.131290843088,-4176.445767603083,-22751.023910226515
1481,-1306,-29716,6666,4331,9482,16609,-26880,-1288,-813,2,-1,47005,2020-11-02 14:55:56,2020-11-02 14:56:26,1,DF:DC:EF:28:D6:3E,2,2,-1306.0,14378.828403860443,-26846.33132724723
1482,-26406,-5393,264,-3857,6152,10467,6911,-32262,8399,2,-1,47030,2020-11-02 14:55:56,2020-11-02 14:56:26,1,DF:DC:EF:28:D6:3E,2,2,-3685.5228042746094,-11544.017324077966,24074.541878934262
1483,-14630,14574,-6406,4844,-24566,4850,5885,-6405,-8501,2,-1,47056,2020-11-02 14:55:56,2020-11-02 14:56:26,1,DF:DC:EF:28:D6:3E,2,2,2889.073138365019,20051.28906135664,-7554.751841000286
1484,32469,-10521,4106,-11297,1041,-15111,-776,4350,6858,2,-1,47081,2020-11-02 14:55:56,2020-11-02 14:56:26,1,DF:DC:EF:28:D6:3E,2,2,26396.19180039651,21637.200845688894,4106.0
1485,25295,-14617,-6623,-30754,-13553,11777,-16653,-21760,-17976,2,-1,47107,2020-11-02 14:55:56,2020-11-02 14:56:26,1,DF:DC:EF:28:D6:3E,2,2,27041.735198832957,3793.5524260692873,-12317.116563013537
1486,-20777,7406,-13019,18404,773,-8950,12271,-15102,-21048,2,-1,47132,2020-11-02 14:55:56,2020-11-02 14:56:26,1,DF:DC:EF:28:D6:3E,2,2,3615.1809913723464,-8329.34126879862,-23949.519127270767
1487,-4386,-16404,-20960,-10783,7161,-32494,17899,-30716,-30518,2,-1,47158,2020-11-02 14:55:56,2020-11-02 14:56:26,1,DF:DC:EF:28:D6:3E,2,2,-13747.46951847165,21204.5537084613,9435.242226020111
1488,-16661,-12578,23848,7389,-7961,-12516,19175,-23546,-21554,2,-1,47184,2020-11-02 14:55:56,2020-11-02 14:56:26,1,DF:DC:EF:28:D6:3E,2,2,9519.628248917856,-7821.559942529142,29201.40385440105
1489,-8452,7137,5154,22779,6646,30999,24550,6409,28115,2,-1,47209,2020-11-02 14:55:56,2020-11-02 14:56:26,1,DF:DC:EF:28:D6:3E,2,2,7230.173009629717,9540.837296389058,2373.5650264219535
1490,23027,-27928,10265,25353,-8444,-749,-25,-6901,-15404,2,-1,47235,2020-11-02 14:55:56,2020-11-02 14:56:26,1,DF:DC:EF:28:D6:3E,2,2,-26977.81515922478,8163.325528375609,24922.755536907887
1491,5621,-27157,-24301,-19713,-22795,6679,17130,31246,27095,2,-1,47260,2020-11-02 14:55:56,2020-11-02 14:56:26,1,DF:DC:EF:28:D6:3E,2,2,15094.28324495981,-33618.84746262462,1254.0333351647205
1492,-23047,16876,-27885,-21771,-9498,-8429,-20500,9487,3805,2,-1,47286,2020-11-02 14:55:56,2020-11-02 14:56:26,1,DF:DC:EF:28:D6:3E,2,2,8773.253054942468,-20642.244797378513,33022.18300717023
1493,20217,10730,24342,28664,-11037,11793,4079,8206,21731,2,-1,47312,2020-11-02 14:55:56,2020-11-02 14:56:26,1,DF:DC:EF:28:D6:3E,2,2,-32606.296677507155,-6190.551111359819,-3859.980170418985
1494,-31746,18921,-5356,4355,2790,25359,-4367,32524,-11544,2,-1,47337,2020-11-02 14:55:56,2020-11-02 14:56:26,1,DF:DC:EF:28:D6:3E,2,2,18814.947535363077,-4355.714043806778,-31961.304688797034
1495,9725,-8727,24847,9993,16873,-25335,-4364,17418,-15892,2,-1,47363,2020-11-02 14:55:56,2020-11-02 14:56:26,1,DF:DC:EF:28:D6:3E,2,2,-5388.092251325556,9197.766855874377,-25970.735641413477
1496,31482,-15637,27151,30475,17643,29958,31223,-17913,22255,2,-1,47389,2020-11-02 14:55:56,2020-11-02 14:56:26,1,DF:DC:EF:28:D6:3E,2,2,30977.694807914806,-26234.239165896888,-18026.536377635326
1497,14331,30188,22798,-29940,24557,2054,-14343,15621,15345,2,-1,47414,2020-11-02 14:55:56,2020-11-02 14:56:26,1,DF:DC:EF:28:D6:3E,2,2,9032.187245635138,-39362.22798679114,2340.151806114715
1498,32510,31725,-8180,21773,-23571,27139,-5637,-20478,-27406,2,-1,47440,2020-11-02 14:55:56,2020-11-02 14:56:26,1,DF:DC:EF:28:D6:3E,2,2,-3726.8051765114456,-44220.64810286094,12685.950084217926
1499,20480,-19218,26121,-21490,3054,-19713,-3,-2049,8435,2,-1,47465,2020-11-02 14:55:56,2020-11-02 14:56:26,1,DF:DC:EF:28:D6:3E,2,2,27236.78061021766,6849.796054691811,26121.0
1500,-31746,-30477,15612,32013,-24593,-29956,8960,24061,-7182,2,-1,47491,2020-11-02 14:55:56,2020-11-02 14:56:26,1,DF:DC:EF:28:D6:3E,2,2,-6661.856886109907,-44416.02202233931,-12776.0416225081
1501,-21250,7671,29434,22022,-4624,12030,30977,8187,25074,2,-1,47517,2020-11-02 14:55:56,2020-11-02 14:56:26,1,DF:DC:EF:28:D6:3E,2,2,29965.87961141446,-11814.843769001141,18417.997253455924
1502,-32763,-9995,-17414,11008,18416,-29444,-4095,-9480,-9999,2,1,47542,2020-11-02 14:55:56,2020-11-02 14:56:26,1,DF:DC:EF:28:D6:3E,2,2,-10057.640394886705,-2835.0562554231183,-36977.9382296489
1503,4876,-14094,5116,16636,-23569,10227,6402,26614,15600,2,1,47568,2020-11-02 14:55:56,2020-11-02 14:56:26,1,DF:DC:EF:28:D6:3E,2,2,9300.594741351375,8321.532417875756,9635.388091581473
1504,-31485,-1808,-4097,9213,-3597,-21013,-3838,32756,-2580,2,1,47593,2020-11-02 14:55:56,2020-11-02 14:56:26,1,DF:DC:EF:28:D6:3E,2,2,-5002.391156014801,-1808.0,-31353.89476161175
1505,511,6640,-7685,13825,-5893,16363,-15100,-8461,8425,2,1,47619,2020-11-02 14:55:56,2020-11-02 14:56:26,1,DF:DC:EF:28:D6:3E,2,2,9645.539121074438,-3025.573644347432,-1104.2758651952558
1506,14079,-12560,13048,29441,-24828,10732,-25594,-12044,-10011,2,1,47645,2020-11-02 14:55:56,2020-11-02 14:56:26,1,DF:DC:EF:28:D6:3E,2,2,4293.472909614076,-9768.286940307658,20306.86597252823
1507,-13060,-14864,18423,22779,-18425,25833,-25081,-11018,-11806,2,1,47670,2020-11-02 14:55:56,2020-11-02 14:56:26,1,DF:DC:EF:28:D6:3E,2,2,-9062.957160005477,-9645.898230992325,-23573.894032027136
1508,20217,24558,30714,-4111,-7162,-7451,9991,8697,29663,2,1,47696,2020-11-02 14:55:56,2020-11-02 14:56:26,1,DF:DC:EF:28:D6:3E,2,2,-67.44900030088684,-44107.10329879925,3119.4772352768414
1509,19952,-27156,13313,-24855,518,-25629,7173,17147,-31269,2,1,47721,2020-11-02 14:55:56,2020-11-02 14:56:26,1,DF:DC:EF:28:D6:3E,2,2,18418.179494193857,-28954.558089598315,-11626.299452350853
1510,-11797,3816,8712,-22557,-6905,15078,-23551,5373,-25641,2,1,47747,2020-11-02 14:55:56,2020-11-02 14:56:26,1,DF:DC:EF:28:D6:3E,2,2,14588.527477155763,-2987.9685793630124,-2806.584902868733
1511,-22298,6118,-32752,-5663,11530,20454,18941,-29698,-20269,2,1,47773,2020-11-02 14:55:56,2020-11-02 14:56:26,1,DF:DC:EF:28:D6:3E,2,2,-25541.531094060952,-2191.541341051312,30824.528673145684
1512,13278,-12313,-20200,-29466,-1266,28903,5113,-10497,29903,2,1,47798,2020-11-02 14:55:56,2020-11-02 14:56:26,1,DF:DC:EF:28:D6:3E,2,2,-4950.5953889680395,-26671.704214391888,258.9451577428281
1513,29658,-3344,-24037,29678,-27886,-13075,-15371,22017,31435,2,1,47824,2020-11-02 14:55:56,2020-11-02 14:56:26,1,DF:DC:EF:28:D6:3E,2,2,-27431.085119048737,20584.85929055333,-17098.415311941135
1514,-807,-4362,16412,-17422,12047,-7946,17651,-7422,29384,2,1,47849,2020-11-02 14:55:56,2020-11-02 14:56:26,1,DF:DC:EF:28:D6:3E,2,2,5821.522254923135,-12621.045353643041,-9790.359023892845
1515,-1315,-32006,-27111,24051,9989,15614,13041,-8957,4295,2,1,47875,2020-11-02 14:55:56,2020-11-02 14:56:26,1,DF:DC:EF:28:D6:3E,2,2,14285.202526380253,37971.1581891989,-10735.162623413435
1516,30431,-32517,-2285,-8722,-23812,17668,6383,15876,21447,2,1,47901,2020-11-02 14:55:56,2020-11-02 14:56:26,1,DF:DC:EF:28:D6:3E,2,2,40487.71454837605,10033.02783641659,-15770.402597362829
1517,17376,-25856,-31456,-27932,8949,-16631,-2837,30980,2505,2,1,47926,2020-11-02 14:55:56,2020-11-02 14:56:26,1,DF:DC:EF:28:D6:3E,2,2,35092.836118412706,-25856.0,7739.390490615449
1518,-30234,12273,-22232,16877,-8216,23825,7145,-11516,-18740,2,1,47952,2020-11-02 14:55:56,2020-11-02 14:56:26,1,DF:DC:EF:28:D6:3E,2,2,-10396.569466978393,-27076.848757129996,-26790.646011281628
1519,-26898,-30229,19220,-17661,-6929,32533,-28183,-2299,15057,2,-1,47977,2020-11-02 14:55:56,2020-11-02 14:56:26,1,DF:DC:EF:28:D6:3E,2,2,6453.123658088662,-26627.75928923924,-35440.41302366198
1520,-31764,20463,-31218,-29170,-18433,6676,6380,2056,-5933,2,-1,48003,2020-11-02 14:55:56,2020-11-02 14:56:26,1,DF:DC:EF:28:D6:3E,2,2,14245.950150635716,46895.40153862801,351.86337753239786
1521,-3356,-15634,-20216,21255,22781,-9961,-1810,28682,-31786,2,-1,48054,2020-11-02 14:55:56,2020-11-02 14:56:26,1,DF:DC:EF:28:D6:3E,2,2,20220.749524743544,13241.692984300338,-8952.664607094075
1522,4333,-20499,-16375,-774,2801,4892,20209,-4597,24283,2,-1,48056,2020-11-02 14:55:56,2020-11-02 14:56:26,1,DF:DC:EF:28:D6:3E,2,2,14275.052771295144,-18054.640763161016,13318.308086613077
1523,27376,-22041,21520,1524,234,26907,-15630,1804,21473,2,-1,48080,2020-11-02 14:55:56,2020-11-02 14:56:26,1,DF:DC:EF:28:D6:3E,2,2,-31157.876263340357,-24589.452327978728,11086.344662170344
1524,-32007,29156,17942,-17160,17126,1815,10740,-10230,23015,2,-1,48105,2020-11-02 14:55:56,2020-11-02 14:56:26,1,DF:DC:EF:28:D6:3E,2,2,30625.927037983787,34456.69117559698,-8439.477193145965
1525,-31747,-27931,3092,17412,29160,-7664,3318,-9976,9452,2,-1,48131,2020-11-02 14:55:56,2020-11-02 14:56:26,1,DF:DC:EF:28:D6:3E,2,2,12829.559064727913,-31714.279419222352,-25043.564624952003
1526,2047,23782,-3316,-8435,16622,-2293,-23560,-15610,25839,2,-1,48157,2020-11-02 14:55:56,2020-11-02 14:56:26,1,DF:DC:EF:28:D6:3E,2,2,2677.2374427971004,23042.427116902443,-6530.585060859728
1527,13825,-539,23047,30225,-32525,15370,-25093,3845,-26127,2,-1,48182,2020-11-02 14:55:56,2020-11-02 14:56:26,1,DF:DC:EF:28:D6:3E,2,2,3896.9145336891197,21633.37651170807,-15472.441075014636
1528,-19453,8936,-29946,21006,-19469,21256,13566,27651,15603,2,-1,48208,2020-11-02 14:55:56,2020-11-02 14:56:26,1,DF:DC:EF:28:D6:3E,2,2,-20186.236149155935,-12389.473070113028,-28178.911408630644
1529,25861,-1813,10246,-30967,27375,21508,-6145,11777,15348,2,-1,48234,2020-11-02 14:55:56,2020-11-02 14:56:26,1,DF:DC:EF:28:D6:3E,2,2,-5142.509991138506,-7127.466237747457,-26453.971762682642
1530,-3068,-27411,-18940,-26106,1515,28927,-6144,12798,24820,2,-1,48259,2020-11-02 14:55:56,2020-11-02 14:56:26,1,DF:DC:EF:28:D6:3E,2,2,-31731.380280341647,10301.177840287914,-2550.3697000839866
1531,23558,19952,-2818,2053,-26901,-12296,-9983,-2054,-32525,2,-1,48285,2020-11-02 14:55:56,2020-11-02 14:56:26,1,DF:DC:EF:28:D6:3E,2,2,-1380.9331423945,24975.60980147629,-18311.600986823567
1532,13830,-527,15869,20995,3567,26611,-5886,19448,-29711,2,-1,48310,2020-11-02 14:55:56,2020-11-02 14:56:26,1,DF:DC:EF:28:D6:3E,2,2,-16054.576394715015,-8201.866166273518,-10878.959425275802
1533,26885,-1295,-22277,2562,8436,-31762,21508,-31754,-21266,2,-1,48336,2020-11-02 14:55:56,2020-11-02 14:56:26,1,DF:DC:EF:28:D6:3E,2,2,-27688.418979036614,-8417.39774871958,-19576.614839679904
1534,16898,-28943,31994,19967,-27145,20459,-9723,-17675,9707,2,-1,48362,2020-11-02 14:55:56,2020-11-02 14:56:26,1,DF:DC:EF:28:D6:3E,2,2,-21708.89318784664,-12924.895201851603,-38839.757074160734
1535,-13825,26096,18166,-17930,-19207,-536,-16890,-27659,14311,2,-1,48387,2020-11-02 14:55:56,2020-11-02 14:56:26,1,DF:DC:EF:28:D6:3E,2,2,948.2606600443451,-15669.42149896833,30914.48574064077
1536,7165,-19989,-10502,29676,20989,18149,8198,2550,-1822,2,-1,48413,2020-11-02 14:55:56,2020-11-02 14:56:26,1,DF:DC:EF:28:D6:3E,2,2,7165.0,-1962.9745095457165,-22494.418331552246
1537,25591,12516,-13312,-24344,-31229,-10017,-30972,13559,13790,2,-1,48438,2020-11-02 14:55:56,2020-11-02 14:56:26,1,DF:DC:EF:28:D6:3E,2,2,-13516.50092332793,-9672.058020915505,-26692.96494265332
1538,31981,-8483,13063,-8470,11276,-1064,-14590,-31751,-18984,2,-1,48464,2020-11-02 14:55:56,2020-11-02 14:56:26,1,DF:DC:EF:28:D6:3E,2,2,-8968.6321395452,-16842.531027385554,-30021.33250102453
1539,30686,-6177,-18675,-531,-21488,-3631,3585,-29700,14034,2,-1,48490,2020-11-02 14:55:56,2020-11-02 14:56:26,1,DF:DC:EF:28:D6:3E,2,2,9446.718059346627,-5798.1371271057305,-34722.941605838816
1540,19656,22769,-5357,-2062,-5358,1493,7423,-18177,9931,2,-1,48515,2020-11-02 14:55:56,2020-11-02 14:56:26,1,DF:DC:EF:28:D6:3E,2,2,-25899.115575046537,-9223.449477331247,-13328.425944930625
1541,-32314,-28675,-15347,-13834,27919,23025,23549,-31486,-14138,2,-1,48541,2020-11-02 14:55:56,2020-11-02 14:56:26,1,DF:DC:EF:28:D6:3E,2,2,-2366.5586036418663,-22300.99514512518,39988.06879448708
1542,27867,19449,25603,-16916,29951,12037,9211,-23805,32454,2,1,48567,2020-11-02 14:55:56,2020-11-02 14:56:26,1,DF:DC:EF:28:D6:3E,2,2,-9266.43239799891,-7579.5619628677705,-40829.28324210901
1543,-26398,19696,1802,-3104,-32003,-23541,15863,-5373,712,2,1,48592,2020-11-02 14:55:56,2020-11-02 14:56:26,1,DF:DC:EF:28:D6:3E,2,2,-26398.0,-9834.982055772396,17159.625519300676
1544,-5405,17641,25111,-16673,-22020,-13296,-24334,-13564,10442,2,1,48618,2020-11-02 14:55:56,2020-11-02 14:56:26,1,DF:DC:EF:28:D6:3E,2,2,28414.3848131641,-12261.865499988235,-3640.1397156740823
1545,-15892,9705,-6374,25059,16633,-26860,-18706,11526,5069,2,1,48643,2020-11-02 14:55:56,2020-11-02 14:56:26,1,DF:DC:EF:28:D6:3E,2,2,11105.91903407653,-10507.376110880916,12394.521962263232
1546,24558,13545,-23521,-30231,-7687,23828,-13333,-9977,4304,2,1,48669,2020-11-02 14:55:56,2020-11-02 14:56:26,1,DF:DC:EF:28:D6:3E,2,2,15396.18791518307,-27024.293677397905,19298.828433822677
1547,4850,-11543,-1246,3571,14845,-11243,22506,7946,-20270,2,1,48694,2020-11-02 14:55:56,2020-11-02 14:56:26,1,DF:DC:EF:28:D6:3E,2,2,-627.3787817722607,-11810.043669210336,-4294.779318606112
1548,-8205,15085,-24285,-27910,7674,9239,-28438,-29428,-30251,2,1,48720,2020-11-02 14:55:56,2020-11-02 14:56:26,1,DF:DC:EF:28:D6:3E,2,2,-1405.8349038667693,25278.820124117257,15609.143357519464
1549,-24587,-6675,23070,-15363,18930,-19690,-26900,20750,-15143,2,1,48746,2020-11-02 14:55:56,2020-11-02 14:56:26,1,DF:DC:EF:28:D6:3E,2,2,-20855.65738834558,-14099.910620915301,23399.469425227275
1550,12534,11247,-233,17665,13292,-7659,-5905,-14834,13023,2,1,48771,2020-11-02 14:55:56,2020-11-02 14:56:26,1,DF:DC:EF:28:D6:3E,2,2,-6805.541326678704,739.0274173842363,15387.946572795949
1551,10743,-16147,28436,-16637,30186,-1005,-21005,782,-15132,2,1,48797,2020-11-02 14:55:56,2020-11-02 14:56:26,1,DF:DC:EF:28:D6:3E,2,2,13713.734894230507,-18090.81045231391,-25872.76186318759
1552,-14600,-31252,21266,32262,27370,-30703,9975,19724,-27927,2,1,48823,2020-11-02 14:55:56,2020-11-02 14:56:26,1,DF:DC:EF:28:D6:3E,2,2,18239.97028725889,32091.179242997136,16719.7475672853
1553,-3846,23021,-8433,-30456,-8982,9230,4090,-3831,19437,2,1,48848,2020-11-02 14:55:56,2020-11-02 14:56:26,1,DF:DC:EF:28:D6:3E,2,2,558.7874363791097,-23333.364815237106,-8433.0
1554,3068,25326,15885,-19703,-30996,29450,24828,18695,-7953,2,1,48874,2020-11-02 14:55:56,2020-11-02 14:56:26,1,DF:DC:EF:28:D6:3E,2,2,-7708.022669565464,3615.951110029583,28821.23191495014
1555,19453,-30223,-27128,27144,-27410,-2298,8702,-19708,-31759,2,1,48899,2020-11-02 14:55:56,2020-11-02 14:56:26,1,DF:DC:EF:28:D6:3E,2,2,-10089.038870627224,-11199.081718491594,42433.11425443011
1556,1278,-10253,-16379,-28669,-13075,30468,3583,4866,30962,2,1,48925,2020-11-02 14:55:56,2020-11-02 14:56:26,1,DF:DC:EF:28:D6:3E,2,2,-9469.330315099156,-4133.89361057395,-16379.0
1557,16642,18419,8207,21762,-3349,-9726,21759,7423,8435,2,1,48951,2020-11-02 14:55:56,2020-11-02 14:56:26,1,DF:DC:EF:28:D6:3E,2,2,18664.56008123817,-6824.249884591731,-16989.243199345292
1558,30468,-21774,-22518,4105,-20500,-17922,16384,-1541,16627,2,1,48976,2020-11-02 14:55:56,2020-11-02 14:56:26,1,DF:DC:EF:28:D6:3E,2,2,-39536.84410963916,15412.85280619505,-10428.24770633384
1559,-26108,-5134,5382,21773,-24592,8700,7170,26617,-20494,2,1,49002,2020-11-02 14:55:56,2020-11-02 14:56:26,1,DF:DC:EF:28:D6:3E,2,2,-18983.16933002018,4670.544358251832,-18835.520741019693
1560,32517,-1036,3329,29453,-6669,-11015,-31996,31991,-29199,2,1,49027,2020-11-02 14:55:56,2020-11-02 14:56:26,1,DF:DC:EF:28:D6:3E,2,2,5972.75804294672,7901.2637370664925,31167.403143632826
1561,29446,-24074,-29956,3851,-25611,-17929,-2298,7158,-4881,2,-1,49053,2020-11-02 14:55:56,2020-11-02 14:56:26,1,DF:DC:EF:28:D6:3E,2,2,-9297.363122312105,-24074.0,-40963.25049323931
1562,-1020,-10761,-23560,-26361,15864,-13323,14089,18165,-7699,2,-1,49078,2020-11-02 14:55:56,2020-11-02 14:56:26,1,DF:DC:EF:28:D6:3E,2,2,22342.18886415806,13142.456992479923,124.6673939214761
1563,-8698,20982,-26375,17668,-11013,16884,267,13301,-13077,2,-1,49104,2020-11-02 14:55:56,2020-11-02 14:56:26,1,DF:DC:EF:28:D6:3E,2,2,27552.907623665607,9784.498273612562,18884.94183246066
1564,23814,-13585,-1544,30206,-16643,-5394,16140,-8715,25833,2,-1,49130,2020-11-02 14:55:56,2020-11-02 14:56:26,1,DF:DC:EF:28:D6:3E,2,2,-9510.195632122368,-21807.984246728996,13711.701540406302
1565,-5119,-29206,7419,-26893,-12803,23272,17164,13303,17126,2,-1,49155,2020-11-02 14:55:56,2020-11-02 14:56:26,1,DF:DC:EF:28:D6:3E,2,2,5413.558002359391,-24824.029291696457,16991.089355308774
1566,-13830,-4636,15105,27370,-16643,25568,-14838,761,7650,2,-1,49181,2020-11-02 14:55:56,2020-11-02 14:56:26,1,DF:DC:EF:28:D6:3E,2,2,-20653.345949902294,-3174.1433841419366,-2070.3950952807254
1567,12275,-18463,-31738,27367,12287,23769,21000,6651,-6948,2,-1,49206,2020-11-02 14:55:56,2020-11-02 14:56:26,1,DF:DC:EF:28:D6:3E,2,2,35833.48624270034,-13688.153089267205,5239.691469828191
1568,8421,-19995,15115,6120,17411,16853,28421,23549,-9258,2,-1,49232,2020-11-02 14:55:56,2020-11-02 14:56:26,1,DF:DC:EF:28:D6:3E,2,2,15501.599231577937,21218.728515017563,2939.808236862208
1569,15319,-21266,-3059,20968,13574,18653,7426,25087,5585,2,-1,49258,2020-11-02 14:55:56,2020-11-02 14:56:26,1,DF:DC:EF:28:D6:3E,2,2,4780.435232143053,-8916.009094064504,24370.56049470025
1570,-5671,-32269,-20720,8676,-23290,1779,4094,-11776,-14643,2,-1,49283,2020-11-02 14:55:56,2020-11-02 14:56:26,1,DF:DC:EF:28:D6:3E,2,2,-38164.68603066929,-5849.019119052911,3465.9367457283497
1571,15587,-14094,8723,13281,27909,-14853,23545,-23039,-22068,2,-1,49309,2020-11-02 14:55:56,2020-11-02 14:56:26,1,DF:DC:EF:28:D6:3E,2,2,8598.408858075436,-14748.226761118458,-15041.386455775917
1572,32222,13042,-31203,-4123,16903,21242,-10508,28674,-29749,2,-1,49335,2020-11-02 14:55:56,2020-11-02 14:56:26,1,DF:DC:EF:28:D6:3E,2,2,28584.4692746362,28909.54600307796,23003.1415937758
1573,-553,-29452,-25056,26347,-8441,18690,21233,-26621,-24886,2,-1,49360,2020-11-02 14:55:56,2020-11-02 14:56:26,1,DF:DC:EF:28:D6:3E,2,2,-35193.157823206544,-9269.41238323527,-13078.565880875492
1574,4057,19961,15907,-15134,31485,22794,-8467,-5884,14539,2,-1,49386,2020-11-02 14:55:56,2020-11-02 14:56:26,1,DF:DC:EF:28:D6:3E,2,2,-25762.2897675794,-1789.4392617622361,-1017.7190475457764
1575,-23826,-16908,-9931,-12574,7404,12816,-6935,-29435,22734,2,-1,49411,2020-11-02 14:55:56,2020-11-02 14:56:26,1,DF:DC:EF:28:D6:3E,2,2,746.5814587377354,17562.47872178417,25361.10128271932
1576,-17933,23277,-30941,13570,-28944,17933,26089,-5371,18642,2,-1,49437,2020-11-02 14:55:56,2020-11-02 14:56:26,1,DF:DC:EF:28:D6:3E,2,2,23205.154971918906,35713.78271543288,2608.2955898583714
1577,-17943,-22289,13070,-11502,24072,18445,3308,25863,-28973,2,-1,49463,2020-11-02 14:55:56,2020-11-02 14:56:26,1,DF:DC:EF:28:D6:3E,2,2,21894.527580704333,-4561.080351504045,-22122.429297997565
1578,-23,18674,25104,3851,-1535,21017,-2066,-26614,-2604,2,-1,49488,2020-11-02 14:55:56,2020-11-02 14:56:26,1,DF:DC:EF:28:D6:3E,2,2,19013.803645490094,18674.0,-16391.66300076803
1579,-10766,-11539,29967,-29955,-29712,26393,-25103,9996,31961,2,-1,49514,2020-11-02 14:55:56,2020-11-02 14:56:26,1,DF:DC:EF:28:D6:3E,2,2,-22924.90349338328,24136.24434003073,-6242.345310650286
1580,9973,-25622,-29421,19962,-30998,4117,29171,-27893,-14114,2,-1,49539,2020-11-02 14:55:56,2020-11-02 14:56:26,1,DF:DC:EF:28:D6:3E,2,2,-34659.138672923786,9527.978206965747,-18152.2613395308
1581,26618,10217,8468,-9985,-7957,-19440,8437,13578,21987,2,-1,49565,2020-11-02 14:55:56,2020-11-02 14:56:26,1,DF:DC:EF:28:D6:3E,2,2,-665.2489330954577,1716.3640946104197,-29685.410139523887
1582,-5891,14825,-8688,8456,13294,1547,10743,27912,-22042,2,-1,49591,2020-11-02 14:55:56,2020-11-02 14:56:26,1,DF:DC:EF:28:D6:3E,2,2,4179.470356353922,-14879.78420110877,-9544.102873963204
1583,3071,-24084,-9205,-18933,25842,20998,25593,-25850,-20248,2,-1,49616,2020-11-02 14:55:56,2020-11-02 14:56:26,1,DF:DC:EF:28:D6:3E,2,2,-14938.300423583294,-10994.102590799015,-18170.828563325267
1584,-20995,24047,-11765,31755,11507,-21500,27387,-5628,-5911,2,-1,49642,2020-11-02 14:55:56,2020-11-02 14:56:26,1,DF:DC:EF:28:D6:3E,2,2,-32062.303012261204,4363.3872317896885,-10508.712405209357
1585,-28925,7151,21255,18697,-32018,-2557,5117,-20734,-1046,2,-1,49667,2020-11-02 14:55:56,2020-11-02 14:56:26,1,DF:DC:EF:28:D6:3E,2,2,25636.027192855407,7151.0,-25124.186748374126
1586,-19699,-7442,-28683,-24572,-2581,30974,3582,-17665,28907,2,-1,49693,2020-11-02 14:55:56,2020-11-02 14:56:26,1,DF:DC:EF:28:D6:3E,2,2,-456.1813553453426,-24693.30416132849,25616.031741219253
1587,16142,-10514,17161,-2815,-4628,-7943,7166,-18436,-22,2,-1,49719,2020-11-02 14:55:56,2020-11-02 14:56:26,1,DF:DC:EF:28:D6:3E,2,2,-16040.421044860794,-20121.222014185932,1857.3094409457863
1588,7687,17137,-2310,-24829,6645,9206,-1026,17402,-12823,2,-1,49744,2020-11-02 14:55:56,2020-11-02 14:56:26,1,DF:DC:EF:28:D6:3E,2,2,18885.196075726617,84.73018093621744,1202.0931651908295
1589,11788,8177,-766,22787,-15624,16885,-15361,-7944,19176,2,-1,49770,2020-11-02 14:55:56,2020-11-02 14:56:26,1,DF:DC:EF:28:D6:3E,2,2,-11655.2911981542,5802.214985409508,6074.168037626103
1590,-14324,-24593,-29696,-3837,-23558,-17682,4865,-4105,-795,2,1,49795,2020-11-02 14:55:56,2020-11-02 14:56:26,1,DF:DC:EF:28:D6:3E,2,2,-14324.0,-24593.0,-29696.0
1591,-9724,-22542,29692,-5890,6394,6890,28418,18679,-27678,2,1,49821,2020-11-02 14:55:56,2020-11-02 14:56:26,1,DF:DC:EF:28:D6:3E,2,2,-34232.97486927381,-17284.362653740194,3696.8964353439806
1592,-26878,-29965,6398,1272,4602,-11286,-3582,-16138,-3106,2,1,49847,2020-11-02 14:55:56,2020-11-02 14:56:26,1,DF:DC:EF:28:D6:3E,2,2,5367.509735883382,-29965.0,-27102.603698449293
1593,2560,-26895,20224,-6156,16380,21225,-10750,27382,16347,2,1,49872,2020-11-02 14:55:56,2020-11-02 14:56:26,1,DF:DC:EF:28:D6:3E,2,2,9004.327535489556,-25649.81780785054,-19997.843210148883
1594,-12552,-28688,-3072,-18188,-8445,-27928,-28414,-5130,28631,2,1,49898,2020-11-02 14:55:56,2020-11-02 14:56:26,1,DF:DC:EF:28:D6:3E,2,2,24155.377470575877,-4277.216860757649,-19703.15678210083
1595,28399,-27918,-22780,28915,-27894,11754,-2047,-21768,-3885,2,1,49923,2020-11-02 14:55:56,2020-11-02 14:56:26,1,DF:DC:EF:28:D6:3E,2,2,-24900.083127352274,-27918.0,26559.696181450316
1596,-25111,26869,4620,30189,-4347,2285,22272,15866,-10032,2,1,49949,2020-11-02 14:55:56,2020-11-02 14:56:26,1,DF:DC:EF:28:D6:3E,2,2,-17669.950679972007,-22919.265555074442,23158.7994374349
1597,19173,9721,-25069,-13590,-18943,-14094,-18179,-14342,23758,2,1,49975,2020-11-02 14:55:56,2020-11-02 14:56:26,1,DF:DC:EF:28:D6:3E,2,2,9190.115704053555,30776.032070692432,7676.8583632771915
1598,21477,-1286,3091,-17426,-28157,-31494,6651,10747,-2612,2,1,50000,2020-11-02 14:55:56,2020-11-02 14:56:26,1,DF:DC:EF:28:D6:3E,2,2,12098.809380389315,-3295.815579387636,-17754.605522051716
1599,-14619,-10758,12304,4849,-6395,10241,-11784,5372,-31028,2,1,50026,2020-11-02 14:55:56,2020-11-02 14:56:26,1,DF:DC:EF:28:D6:3E,2,2,-19168.313434955246,-9574.973292465573,4661.951040914644
1600,-28696,24312,-16370,-5393,-29436,-3322,25846,18685,-5684,2,1,50051,2020-11-02 14:55:56,2020-11-02 14:56:26,1,DF:DC:EF:28:D6:3E,2,2,27322.30840892162,-28280.240558626916,11671.765811305666
1601,-26388,-12812,17677,3055,-5117,-14838,-16653,-22786,-6451,2,1,50103,2020-11-02 14:55:56,2020-11-02 14:56:26,1,DF:DC:EF:28:D6:3E,2,2,31799.391206025197,-9907.307617325634,-7974.596648222947
1602,-2322,-21263,1292,18672,-6138,4365,13041,-31744,-3378,2,1,50105,2020-11-02 14:55:56,2020-11-02 14:56:26,1,DF:DC:EF:28:D6:3E,2,2,-19714.457507283103,7673.717910043109,-3410.3277893206323
1603,6895,-29200,-11514,10739,30475,-31219,4847,3587,-28977,2,1,50128,2020-11-02 14:55:56,2020-11-02 14:56:26,1,DF:DC:EF:28:D6:3E,2,2,29956.43958893259,-1671.1529417238671,-11514.0
1604,-25114,29163,7691,8433,-24307,30480,-6676,11270,-22833,2,1,50154,2020-11-02 14:55:56,2020-11-02 14:56:26,1,DF:DC:EF:28:D6:3E,2,2,33551.442220927565,-17670.648771202774,10118.989223264798
1605,27626,9954,-31717,-5396,-9466,-32490,25834,-19447,22224,2,1,50180,2020-11-02 14:55:56,2020-11-02 14:56:26,1,DF:DC:EF:28:D6:3E,2,2,33225.30487273921,26082.135110107487,-9167.738282238983
1606,249,-20257,6695,20207,19710,-16875,-26648,-14324,12754,2,1,50205,2020-11-02 14:55:56,2020-11-02 14:56:26,1,DF:DC:EF:28:D6:3E,2,2,-14846.572833506756,12798.089244484314,8427.292672596233
1607,7422,-18461,8484,1271,-20488,-20722,25320,-30450,-10540,2,1,50231,2020-11-02 14:55:56,2020-11-02 14:56:26,1,DF:DC:EF:28:D6:3E,2,2,21059.814680765434,1418.4730424732943,-4727.049908726711
1608,8701,-32276,-31455,27135,23029,23305,-27415,9743,-25641,2,1,50256,2020-11-02 14:55:56,2020-11-02 14:56:26,1,DF:DC:EF:28:D6:3E,2,2,-34928.511097103175,-28254.29492729652,-9410.554324846482
1609,2555,19439,16410,23813,-9230,1799,-2581,-7154,32218,2,1,50282,2020-11-02 14:55:56,2020-11-02 14:56:26,1,DF:DC:EF:28:D6:3E,2,2,15115.156479439962,17431.683847666838,11016.31920548035
1610,23807,-1555,28694,-7673,-21006,21254,-15378,12046,18397,2,1,50307,2020-11-02 14:55:56,2020-11-02 14:56:26,1,DF:DC:EF:28:D6:3E,2,2,15511.069868790804,-29219.828534460856,-17266.882809071154
1611,-15358,16621,-18157,16137,11249,3075,30449,-8436,-23585,2,1,50333,2020-11-02 14:55:56,2020-11-02 14:56:26,1,DF:DC:EF:28:D6:3E,2,2,3433.336075776763,15448.910138148174,-24317.603355063435
1612,14084,24557,-16882,-31735,22257,-22529,-19213,-1782,15841,2,1,50359,2020-11-02 14:55:56,2020-11-02 14:56:26,1,DF:DC:EF:28:D6:3E,2,2,18411.440403823024,23915.016185893175,13247.56928968256
1613,-29692,25323,15120,5897,24306,-30467,27125,-6648,7394,2,-1,50384,2020-11-02 14:55:56,2020-11-02 14:56:26,1,DF:DC:EF:28:D6:3E,2,2,8837.951708950497,4307.8036515170115,-40679.44235471076
1614,9478,-21527,18704,-22772,-3598,-3336,6391,-23034,17890,2,-1,50410,2020-11-02 14:55:56,2020-11-02 14:56:26,1,DF:DC:EF:28:D6:3E,2,2,15995.906958409047,25366.473590062025,-1938.2484831947468
1615,20483,-16662,-7923,-24562,26611,-8204,-2824,16900,-32543,2,-1,50436,2020-11-02 14:55:56,2020-11-02 14:56:26,1,DF:DC:EF:28:D6:3E,2,2,11516.072549465385,-19808.627203375552,-15328.007807707429
1616,-9729,23532,22281,5391,-17166,5618,-1286,-13567,6624,2,-1,50461,2020-11-02 14:55:56,2020-11-02 14:56:26,1,DF:DC:EF:28:D6:3E,2,2,-28560.53223772544,-926.9980588214203,-18118.722330693934
1617,-1539,-28690,22277,20493,5106,29168,-2052,21759,15326,2,-1,50487,2020-11-02 14:55:56,2020-11-02 14:56:26,1,DF:DC:EF:28:D6:3E,2,2,24145.44903049671,16183.242873830604,-21836.87915436399
1618,-18181,19440,-15617,25355,-23052,-3858,-5122,11773,-6693,2,-1,50512,2020-11-02 14:55:56,2020-11-02 14:56:26,1,DF:DC:EF:28:D6:3E,2,2,12773.5428557096,16086.243237024626,23030.901663474444
1619,-13830,-19214,20734,-14583,20217,24558,-13312,-6917,15321,2,-1,50538,2020-11-02 14:55:56,2020-11-02 14:56:26,1,DF:DC:EF:28:D6:3E,2,2,-18207.767215718355,-24733.919337533538,-6859.730258734417
1620,-522,-18699,11514,-22008,-16132,2798,-20990,29435,27606,2,-1,50564,2020-11-02 14:55:56,2020-11-02 14:56:26,1,DF:DC:EF:28:D6:3E,2,2,9845.606741600626,-19407.434436686817,-2985.430869313648
1621,19442,6394,22519,14853,10494,-7441,13060,-27141,-15661,2,-1,50589,2020-11-02 14:55:56,2020-11-02 14:56:26,1,DF:DC:EF:28:D6:3E,2,2,-14629.949665211281,23631.889464789983,-12388.637298643163
1622,16366,-16899,-15627,25855,-3073,-2318,-6652,252,-29999,2,-1,50615,2020-11-02 14:55:56,2020-11-02 14:56:26,1,DF:DC:EF:28:D6:3E,2,2,26007.474229787793,9373.694314660555,5776.714038467222
1623,25834,12799,-22280,-29960,19457,-8200,27396,-29956,5072,2,-1,50640,2020-11-02 14:55:56,2020-11-02 14:56:26,1,DF:DC:EF:28:D6:3E,2,2,12004.672878275971,-25227.54429889401,-23389.467602596804
1624,30187,-7172,-18435,-9487,-8446,-25089,-18430,5629,-20273,2,-1,50666,2020-11-02 14:55:56,2020-11-02 14:56:26,1,DF:DC:EF:28:D6:3E,2,2,-29250.04990113655,-8713.647976582824,19262.624372634582
1625,-30227,22520,-3065,-5140,31236,-13053,-513,-12035,5584,2,1,50692,2020-11-02 14:55:56,2020-11-02 14:56:26,1,DF:DC:EF:28:D6:3E,2,2,15365.86704153119,22520.0,-26209.84326664289
1626,13042,-5389,-22512,4331,-30717,-18170,-14596,-25090,-6448,2,1,50717,2020-11-02 14:55:56,2020-11-02 14:56:26,1,DF:DC:EF:28:D6:3E,2,2,-14109.461880026214,-11761.537047378331,-19196.73307464669
1627,26104,-6416,23062,-23062,23298,-16890,28153,21503,-9519,2,1,50743,2020-11-02 14:55:56,2020-11-02 14:56:26,1,DF:DC:EF:28:D6:3E,2,2,3473.400360783953,34655.39715945811,6432.624165449784
1628,11771,-25361,-26595,-14614,-16124,518,5622,15616,-31534,2,1,50768,2020-11-02 14:55:56,2020-11-02 14:56:26,1,DF:DC:EF:28:D6:3E,2,2,16070.03341964044,-35080.65357040318,364.0851068061529
1629,-1279,-5394,7207,31725,25601,19976,8435,18689,14547,2,1,50794,2020-11-02 14:55:56,2020-11-02 14:56:26,1,DF:DC:EF:28:D6:3E,2,2,7675.414850434472,4805.123760245239,818.9740670232623
1630,31500,-2576,-12759,13297,-26119,1286,-16144,29185,-31788,2,1,50820,2020-11-02 14:55:56,2020-11-02 14:56:26,1,DF:DC:EF:28:D6:3E,2,2,10550.422697989103,-1454.8121181214738,32376.68852113698
1631,-32248,-4617,22822,-15365,-18181,1536,-29969,-7424,22997,2,1,50845,2020-11-02 14:55:56,2020-11-02 14:56:26,1,DF:DC:EF:28:D6:3E,2,2,-5039.030268061664,29650.23570525834,-26030.089772802967
1632,-13822,11770,-12001,-32506,5121,27903,5360,-21248,25301,2,1,50871,2020-11-02 14:55:56,2020-11-02 14:56:26,1,DF:DC:EF:28:D6:3E,2,2,-1143.680904574666,-19330.93226814286,9930.339200298462
1633,-5375,505,29211,2059,-5119,-4097,-23823,-8704,12245,2,1,50896,2020-11-02 14:55:56,2020-11-02 14:56:26,1,DF:DC:EF:28:D6:3E,2,2,15058.219018995342,21013.371109539577,-14632.718325339774
1634,-31745,-24329,7959,-19443,23041,29695,-23821,257,725,2,1,50922,2020-11-02 14:55:56,2020-11-02 14:56:26,1,DF:DC:EF:28:D6:3E,2,2,-31745.0,9879.104591835014,-23614.59748680007
1635,26110,17912,-15598,14606,-32256,-30465,-13067,7169,-8492,2,-1,50948,2020-11-02 14:55:56,2020-11-02 14:56:26,1,DF:DC:EF:28:D6:3E,2,2,-15038.774267104776,-16625.0469588173,-27263.758547936617
1636,-27651,-2056,11534,3598,-1794,-17410,-1545,-1024,-15404,2,-1,50973,2020-11-02 14:55:56,2020-11-02 14:56:26,1,DF:DC:EF:28:D6:3E,2,2,9637.360667811434,25998.58104509785,11534.0
1637,23805,-9479,-2036,-2804,-24322,-17409,-263,-15360,-19244,2,-1,50999,2020-11-02 14:55:56,2020-11-02 14:56:26,1,DF:DC:EF:28:D6:3E,2,2,6636.758427530588,10520.867015205438,22493.100204795337
1638,-27135,-29191,-24308,-13813,255,-12032,-9733,-24576,-10796,2,-1,51024,2020-11-02 14:55:56,2020-11-02 14:56:26,1,DF:DC:EF:28:D6:3E,2,2,-16226.729510167132,-41776.83308589141,13064.877983258766
1639,26115,4347,-31990,-23797,-12801,-27905,-25603,-30976,-9516,2,-1,51050,2020-11-02 14:55:56,2020-11-02 14:56:26,1,DF:DC:EF:28:D6:3E,2,2,34521.80781503941,-14214.961755758326,-18177.71661853634
1640,-18941,-7172,-31993,-17655,-13825,-15105,14847,-32256,-13868,2,-1,51076,2020-11-02 14:55:56,2020-11-02 14:56:26,1,DF:DC:EF:28:D6:3E,2,2,28691.804981771795,-14385.24271122897,20089.704652557964
1641,-6909,-1283,25096,27653,5117,29952,19200,13824,-12076,2,-1,51101,2020-11-02 14:55:56,2020-11-02 14:56:26,1,DF:DC:EF:28:D6:3E,2,2,6207.980278902996,19022.823549990746,16696.788644606753
1642,-30971,-22019,15881,259,-11014,13825,-7936,-32001,-3372,2,-1,51127,2020-11-02 14:55:56,2020-11-02 14:56:26,1,DF:DC:EF:28:D6:3E,2,2,17210.071646234737,1466.484236823635,37388.610844943345
1643,-20727,16635,12819,-4604,22265,-511,20225,-28674,10965,2,-1,51152,2020-11-02 14:55:56,2020-11-02 14:56:26,1,DF:DC:EF:28:D6:3E,2,2,6844.436742671453,-23168.7844045807,16941.653694065026
1644,13579,-13575,-7411,-15352,20986,-13059,28418,-27651,4821,2,-1,51178,2020-11-02 14:55:56,2020-11-02 14:56:26,1,DF:DC:EF:28:D6:3E,2,2,2565.3217346319184,3264.5488604964767,-20158.239807464743
1645,-4090,1530,21514,-29943,-18694,30200,-5117,-10244,7380,2,-1,51204,2020-11-02 14:55:56,2020-11-02 14:56:26,1,DF:DC:EF:28:D6:3E,2,2,-12262.742746381035,-16266.342230617876,8182.447480582863
1646,-23807,-25093,6662,31241,25595,18422,-28411,23804,-27182,2,-1,51229,2020-11-02 14:55:56,2020-11-02 14:56:26,1,DF:DC:EF:28:D6:3E,2,2,-30317.156418269275,17722.254304406142,-2757.874377152078
1647,-26881,-19204,14080,21511,-20228,20725,6407,15612,-5936,2,-1,51255,2020-11-02 14:55:56,2020-11-02 14:56:26,1,DF:DC:EF:28:D6:3E,2,2,-16858.32053553183,-14877.022136395382,28001.775266480297
1648,-22534,17150,8700,5633,-16900,12532,264,27132,4303,2,-1,51280,2020-11-02 14:55:56,2020-11-02 14:56:26,1,DF:DC:EF:28:D6:3E,2,2,8145.0236433616565,17150.0,-22740.486930782277
1649,23542,10240,-24320,-15368,3835,-4107,-22777,27132,16077,2,-1,51306,2020-11-02 14:55:56,2020-11-02 14:56:26,1,DF:DC:EF:28:D6:3E,2,2,25870.0693747263,-23919.50359547751,3023.6769491443156
1650,-29197,-13311,14342,-14092,13565,-23559,22790,20476,-6709,2,-1,51332,2020-11-02 14:55:56,2020-11-02 14:56:26,1,DF:DC:EF:28:D6:3E,2,2,23777.15011470005,-16387.001980422272,20036.311849156667
1651,-4620,3075,32010,30707,4350,5629,-24828,16124,13003,2,-1,51357,2020-11-02 14:55:56,2020-11-02 14:56:26,1,DF:DC:EF:28:D6:3E,2,2,30092.254660809645,-2709.6390563747655,11939.605965573108
1652,16119,25857,-24307,499,-24322,-9473,-20222,7164,-1590,2,-1,51383,2020-11-02 14:55:56,2020-11-02 14:56:26,1,DF:DC:EF:28:D6:3E,2,2,25887.601095903898,-29028.440020508908,-2533.503202104155
1653,5881,23806,-12529,2548,-7681,-29951,-15872,3324,7371,2,-1,51408,2020-11-02 14:55:56,2020-11-02 14:56:26,1,DF:DC:EF:28:D6:3E,2,2,21100.327327106774,-6559.412753451504,-16432.830827913032
1654,29689,-20741,-10221,-28937,-31229,-28927,10751,27388,23755,2,-1,51434,2020-11-02 14:55:56,2020-11-02 14:56:26,1,DF:DC:EF:28:D6:3E,2,2,-652.8427665561167,3230.60164302711,37486.41957224277
1655,19193,-1541,16915,14843,-18171,1025,12798,17405,-31541,2,-1,51460,2020-11-02 14:55:56,2020-11-02 14:56:26,1,DF:DC:EF:28:D6:3E,2,2,8406.333810995022,-23543.660345303342,5647.367918164429
1656,23288,1534,-29680,-6404,-26618,-15872,-24579,18174,-29493,2,-1,51485,2020-11-02 14:55:56,2020-11-02 14:56:26,1,DF:DC:EF:28:D6:3E,2,2,-26294.50397225181,-13238.385640834296,-23641.71538780099
1657,-6923,30975,19728,9213,-6904,-7679,12029,-28417,-25397,2,-1,51511,2020-11-02 14:55:56,2020-11-02 14:56:26,1,DF:DC:EF:28:D6:3E,2,2,10501.747385344544,35005.343189782056,-7804.600439483624
1658,-24076,-4097,-6896,-24836,-30200,15620,-17412,4353,-5173,2,-1,51536,2020-11-02 14:55:56,2020-11-02 14:56:26,1,DF:DC:EF:28:D6:3E,2,2,-24076.0,3082.8356829911804,7405.156929577947
1659,-15885,2048,7952,20731,8966,25350,11516,22018,-27444,2,-1,51562,2020-11-02 14:55:56,2020-11-02 14:56:26,1,DF:DC:EF:28:D6:3E,2,2,-4028.513116148718,17030.366827937232,3674.1693998661617
1660,-10765,7936,2065,10490,14341,5385,32763,28931,-23603,2,-1,51588,2020-11-02 14:55:56,2020-11-02 14:56:26,1,DF:DC:EF:28:D6:3E,2,2,-5609.062952017412,20.854035709058962,-12315.336938529143
1661,-14861,21504,-750,29178,21254,-25077,-6662,-19708,5071,2,-1,51613,2020-11-02 14:55:56,2020-11-02 14:56:26,1,DF:DC:EF:28:D6:3E,2,2,17323.029516269056,10987.557546782555,16217.893344531918
1662,-14094,-14594,-14312,29692,-18168,32526,-20998,25862,-11824,2,-1,51639,2020-11-02 14:55:56,2020-11-02 14:56:26,1,DF:DC:EF:28:D6:3E,2,2,12578.18377915616,-2381.2046818109047,-21273.88476703525
1663,-9226,-31237,1823,25596,-28923,-19696,-5382,5896,4563,2,-1,51665,2020-11-02 14:55:56,2020-11-02 14:56:26,1,DF:DC:EF:28:D6:3E,2,2,-3450.8274686346626,-31237.0,8748.382409435271
1664,-30979,6650,-32223,-259,-26882,2063,28155,-16632,-25387,2,1,51690,2020-11-02 14:55:56,2020-11-02 14:56:26,1,DF:DC:EF:28:D6:3E,2,2,22845.99804358143,17506.89242977505,-34839.80138928692
1665,-20992,2298,26142,8706,16124,11532,21500,-28152,-9769,2,1,51716,2020-11-02 14:55:56,2020-11-02 14:56:26,1,DF:DC:EF:28:D6:3E,2,2,-8054.966080129192,1506.301608030266,32591.37322841143
1666,-16126,20219,-25320,6919,25853,-14582,-12547,15368,-16679,2,1,51741,2020-11-02 14:55:56,2020-11-02 14:56:26,1,DF:DC:EF:28:D6:3E,2,2,-28408.908181150284,13469.612490231999,17929.35337143977
1667,-11773,11771,9749,18697,28414,-28919,-20993,-761,25307,2,1,51767,2020-11-02 14:55:56,2020-11-02 14:56:26,1,DF:DC:EF:28:D6:3E,2,2,-82.63281057681229,15627.607576393339,-11312.560464230439
1668,12037,-6406,-28399,-21496,-13060,9480,-32767,-31225,-15140,2,1,51793,2020-11-02 14:55:56,2020-11-02 14:56:26,1,DF:DC:EF:28:D6:3E,2,2,27355.198468237508,-1300.8363660732143,-15570.174935177762
1669,11015,24570,-22772,-8698,2297,17670,-3582,-30970,-12835,2,1,51818,2020-11-02 14:55:56,2020-11-02 14:56:26,1,DF:DC:EF:28:D6:3E,2,2,30128.412592657576,6790.122612228239,-17022.10617278306
1670,18439,-32007,19468,-2812,22262,-12541,-10237,2565,20190,2,1,51844,2020-11-02 14:55:56,2020-11-02 14:56:26,1,DF:DC:EF:28:D6:3E,2,2,-18125.81270680776,3504.686771740342,37451.567101387285
1671,-23288,7929,-6392,-12795,26359,10752,-24316,-30461,19422,2,1,51869,2020-11-02 14:55:56,2020-11-02 14:56:26,1,DF:DC:EF:28:D6:3E,2,2,-3074.457287522663,787.0020830356534,25218.762640313984
1672,26886,18681,17415,17414,3321,-21252,28677,28674,-18211,2,1,51895,2020-11-02 14:55:56,2020-11-02 14:56:26,1,DF:DC:EF:28:D6:3E,2,2,-16762.03636418141,-24610.507978974503,22101.493522897774
1673,-2300,16121,10501,8453,11513,26874,10758,-26623,-16420,2,1,51921,2020-11-02 14:55:56,2020-11-02 14:56:26,1,DF:DC:EF:28:D6:3E,2,2,-6799.435840267676,-14554.084383068863,-10834.848500306523
1674,-22780,23800,-21503,-5631,29432,-2825,-28154,-14080,26331,2,1,51946,2020-11-02 14:55:56,2020-11-02 14:56:26,1,DF:DC:EF:28:D6:3E,2,2,13405.399847669578,14424.426207674656,-34058.45845753224
1675,2308,-20234,15362,18430,29433,-13068,27142,9728,-23591,2,1,51972,2020-11-02 14:55:56,2020-11-02 14:56:26,1,DF:DC:EF:28:D6:3E,2,2,-22522.6726586634,-11943.220799860785,906.2876124436889
1676,-12799,14581,7170,-13828,20220,30705,-4859,-3073,32727,2,1,51997,2020-11-02 14:55:56,2020-11-02 14:56:26,1,DF:DC:EF:28:D6:3E,2,2,10351.48253711939,16409.350117652808,7170.0
1677,-19459,-20491,-6910,17404,-7170,8429,19717,18688,-6188,2,1,52023,2020-11-02 14:55:56,2020-11-02 14:56:26,1,DF:DC:EF:28:D6:3E,2,2,28600.21769185198,-5191.867243361537,-1163.5826167429632
1678,-1036,-28169,-28668,32506,13823,-2326,29956,-6400,-12591,2,1,52074,2020-11-02 14:55:56,2020-11-02 14:56:26,1,DF:DC:EF:28:D6:3E,2,2,-25418.48900654916,29720.169600528407,9329.095161898975
1679,4083,-24585,-24314,31478,-21763,-17682,3843,14849,-7218,2,1,52076,2020-11-02 14:55:56,2020-11-02 14:56:26,1,DF:DC:EF:28:D6:3E,2,2,-33550.96538617554,6750.228242873474,6405.532790077961
1680,19702,4599,4616,-782,-25602,-21263,4865,13569,-27956,2,1,52100,2020-11-02 14:55:56,2020-11-02 14:56:26,1,DF:DC:EF:28:D6:3E,2,2,-864.909099911099,-6034.533970914074,-19835.91170082119
1681,15090,6905,-18679,15603,-14336,7152,-7682,15361,16586,2,1,52125,2020-11-02 14:55:56,2020-11-02 14:56:26,1,DF:DC:EF:28:D6:3E,2,2,19530.639654246483,-13870.371637451759,-7103.454887232596
1682,2025,-27395,-22265,-14346,-7420,15345,4605,-27135,-13113,2,1,52151,2020-11-02 14:55:56,2020-11-02 14:56:26,1,DF:DC:EF:28:D6:3E,2,2,-17347.218694222676,27925.764797792646,13020.850165529764
1683,24033,30717,9476,-17931,-3833,-13829,-28677,-23806,14790,2,-1,52177,2020-11-02 14:55:56,2020-11-02 14:56:26,1,DF:DC:EF:28:D6:3E,2,2,-3246.3351565820712,7990.927692540785,-39198.471101099385
1684,19173,-7947,-26612,7913,-21502,-14330,-4872,-15101,31174,2,-1,52202,2020-11-02 14:55:56,2020-11-02 14:56:26,1,DF:DC:EF:28:D6:3E,2,2,-3019.729462838428,-17807.47795805021,28508.45917872135
1685,30699,-13067,8982,8932,-31239,-13818,-1548,-7421,-15161,2,-1,52228,2020-11-02 14:55:56,2020-11-02 14:56:26,1,DF:DC:EF:28:D6:3E,2,2,-15639.032822401314,-2771.935773975815,30685.313073925245
1686,21730,-8712,-15594,5867,-1796,8200,-29199,-7165,4809,2,-1,52253,2020-11-02 14:55:56,2020-11-02 14:56:26,1,DF:DC:EF:28:D6:3E,2,2,22492.728904104457,12482.200179341355,11381.41050702041
1687,5090,21236,7191,4848,-11008,-9454,19183,32005,-14902,2,-1,52279,2020-11-02 14:55:56,2020-11-02 14:56:26,1,DF:DC:EF:28:D6:3E,2,2,-22285.178221576873,4263.9262555897885,3711.609020283234
1688,-10006,-7189,-14821,16626,-17413,12568,-4371,-11769,-24371,2,-1,52305,2020-11-02 14:55:56,2020-11-02 14:56:26,1,DF:DC:EF:28:D6:3E,2,2,-6090.053312992587,18049.541320763303,-2930.7177883525746
1689,8433,-7444,5402,-29961,-22023,-7913,-11027,-2551,13265,2,-1,52330,2020-11-02 14:55:56,2020-11-02 14:56:26,1,DF:DC:EF:28:D6:3E,2,2,-3985.4888586158836,7450.204102130189,9182.623067209672
1690,-25615,-2576,-30443,26107,20727,29973,-18706,-28405,-5420,2,-1,52356,2020-11-02 14:55:56,2020-11-02 14:56:26,1,DF:DC:EF:28:D6:3E,2,2,39826.970189708874,-1745.8957341237906,-551.8546852286854
1691,25074,-5392,8981,18683,26866,-29163,9712,-30708,5081,2,-1,52382,2020-11-02 14:55:56,2020-11-02 14:56:26,1,DF:DC:EF:28:D6:3E,2,2,7414.84024348978,-10470.560947800728,-23954.644614393983
1692,27638,31727,19730,21244,-20242,-32237,1010,31756,-13859,2,-1,52407,2020-11-02 14:55:56,2020-11-02 14:56:26,1,DF:DC:EF:28:D6:3E,2,2,33460.07007901842,-3128.3293813867313,32099.404022329276
1693,-263,-14612,-31467,-12033,-18193,12049,-3597,-13045,8930,2,-1,52433,2020-11-02 14:55:56,2020-11-02 14:56:26,1,DF:DC:EF:28:D6:3E,2,2,27814.303676379244,16274.092134736595,12855.747282373775
1694,-9217,492,29715,-12026,4851,-29683,16374,-8438,-21787,2,-1,52458,2020-11-02 14:55:56,2020-11-02 14:56:26,1,DF:DC:EF:28:D6:3E,2,2,-8840.441518028196,26239.546453768253,-14195.392691534147
1695,31233,-1557,-14063,-26868,23032,15369,-12552,2314,-1817,2,-1,52484,2020-11-02 14:55:56,2020-11-02 14:56:26,1,DF:DC:EF:28:D6:3E,2,2,31233.0,-12139.50908894566,7268.049055930051
1696,-25853,-11540,-7152,15120,1019,-2299,-26629,27145,23785,2,-1,52510,2020-11-02 14:55:56,2020-11-02 14:56:26,1,DF:DC:EF:28:D6:3E,2,2,-3248.5138871958507,-23581.93632596769,-16912.709707279355
1697,-25340,15598,31758,25360,-24326,-10495,18174,-21752,490,2,-1,52535,2020-11-02 14:55:56,2020-11-02 14:56:26,1,DF:DC:EF:28:D6:3E,2,2,29212.616625342234,-19923.592177939012,25370.4015070307
1698,29444,-14096,8972,-31473,29945,-25859,-30464,-22009,-8727,2,-1,52561,2020-11-02 14:55:56,2020-11-02 14:56:26,1,DF:DC:EF:28:D6:3E,2,2,-25517.06223148934,16416.544276109547,15017.314843367807
1699,-1794,-4877,-9975,-6644,19961,5627,25858,-24570,5609,2,-1,52586,2020-11-02 14:55:56,2020-11-02 14:56:26,1,DF:DC:EF:28:D6:3E,2,2,8900.36274330574,-4361.2849517447485,-5316.664989188233
1700,20738,-31754,-17915,-23795,29176,-30213,11524,-31227,13032,2,-1,52612,2020-11-02 14:55:56,2020-11-02 14:56:26,1,DF:DC:EF:28:D6:3E,2,2,-20729.138586058518,-25604.995008719732,-25961.80712283753
1701,13571,2808,-23037,13324,-25351,-26119,-10747,-21244,6887,2,-1,52638,2020-11-02 14:55:56,2020-11-02 14:56:26,1,DF:DC:EF:28:D6:3E,2,2,8905.379918507355,-19200.694276804985,16576.72530374182
1702,-6397,18425,-8702,-1015,17657,31223,12039,3076,-21531,2,-1,52663,2020-11-02 14:55:56,2020-11-02 14:56:26,1,DF:DC:EF:28:D6:3E,2,2,6367.584731843412,659.9977939907058,20375.11486089642
1703,770,21242,10239,24838,17401,24565,3336,-31741,-9757,2,-1,52689,2020-11-02 14:55:56,2020-11-02 14:56:26,1,DF:DC:EF:28:D6:3E,2,2,23297.45744337558,3031.38728784625,2166.045425467357
1704,17153,-2822,32767,11522,-3333,-26891,21512,23299,1762,2,-1,52714,2020-11-02 14:55:56,2020-11-02 14:56:26,1,DF:DC:EF:28:D6:3E,2,2,13639.42031833437,-1830.3204786912115,34445.34108301282
1705,29954,-20231,1792,-15873,-23299,-18956,8712,-31997,20448,2,1,52740,2020-11-02 14:55:56,2020-11-02 14:56:26,1,DF:DC:EF:28:D6:3E,2,2,8585.581324915716,11340.666406641009,-33277.977999970826
1706,-17921,-12555,-28673,31228,22527,242,30471,-509,24286,2,1,52766,2020-11-02 14:55:56,2020-11-02 14:56:26,1,DF:DC:EF:28:D6:3E,2,2,-11789.775994117908,33862.61544967405,3905.8484246086164
1707,10750,4080,-24825,14073,-17665,16620,518,-17660,-12581,2,1,52791,2020-11-02 14:55:56,2020-11-02 14:56:26,1,DF:DC:EF:28:D6:3E,2,2,6680.853682026682,4793.699932018482,26093.603814749633
1708,19192,23020,-8949,-2056,-17922,2788,-5117,30213,-1577,2,1,52817,2020-11-02 14:55:56,2020-11-02 14:56:26,1,DF:DC:EF:28:D6:3E,2,2,14025.457997370664,23020.0,15865.18178162454
1709,21741,-30482,-18423,11515,22782,17118,-24319,-10491,-4398,2,1,52843,2020-11-02 14:55:56,2020-11-02 14:56:26,1,DF:DC:EF:28:D6:3E,2,2,21025.42553090868,33866.93722222258,12336.627514448515
1710,-804,24054,22790,17917,6401,-5410,-27905,6918,32205,2,1,52868,2020-11-02 14:55:56,2020-11-02 14:56:26,1,DF:DC:EF:28:D6:3E,2,2,-30949.71837078329,-11604.776573280611,2463.6406908144772
1711,-8230,19964,26625,26364,-12796,22251,-5635,-19450,17609,2,1,52894,2020-11-02 14:55:56,2020-11-02 14:56:26,1,DF:DC:EF:28:D6:3E,2,2,-7163.701750700244,-19144.648486009715,-27519.967888319567
1712,-21276,-20485,16381,10997,4866,25077,3324,8711,-314,2,1,52919,2020-11-02 14:55:56,2020-11-02 14:56:26,1,DF:DC:EF:28:D6:3E,2,2,2288.664342487611,-20485.0,26753.828745198804
1713,-793,-26890,22013,-15635,22276,-10247,11769,29703,-24123,2,1,52945,2020-11-02 14:55:56,2020-11-02 14:56:26,1,DF:DC:EF:28:D6:3E,2,2,-14240.898906635633,29991.455625360322,-10294.780512620293
1714,-22554,29940,-13567,-1300,-1271,-14598,-17163,26120,23748,2,1,52996,2020-11-02 14:55:56,2020-11-02 14:56:26,1,DF:DC:EF:28:D6:3E,2,2,-39076.20966733311,-7308.414486071757,-2964.2740653318547
1715,13783,-11271,7683,-22547,15368,31225,15602,20745,-26942,2,1,52998,2020-11-02 14:55:56,2020-11-02 14:56:26,1,DF:DC:EF:28:D6:3E,2,2,11896.717026383274,-10262.050728955142,11366.330007109309
1716,6354,13050,-510,-14360,16128,-13308,-12306,-1527,6082,2,1,53022,2020-11-02 14:55:56,2020-11-02 14:56:26,1,DF:DC:EF:28:D6:3E,2,2,8393.09614939654,2161.917439759799,-11654.096533436104
1717,1247,27374,29189,30691,3576,-15599,-20501,15371,11972,2,1,53050,2020-11-02 14:55:56,2020-11-02 14:56:26,1,DF:DC:EF:28:D6:3E,2,2,33508.819730301984,-17995.04456691879,12499.039055732694
1718,16871,-8473,30983,7910,8950,8725,14825,13,-25145,2,1,53073,2020-11-02 14:55:56,2020-11-02 14:56:26,1,DF:DC:EF:28:D6:3E,2,2,7625.1003957969515,28878.20582999646,-20597.954534234115
1719,-32534,-28186,-22519,-25367,247,13591,-22809,18447,11979,2,-1,53098,2020-11-02 14:55:56,2020-11-02 14:56:26,1,DF:DC:EF:28:D6:3E,2,2,-37429.583682292716,22368.49175406571,-21417.141616437537
1720,-9743,11494,12304,19694,-9736,-31466,4839,-10735,-13618,2,-1,53124,2020-11-02 14:55:56,2020-11-02 14:56:26,1,DF:DC:EF:28:D6:3E,2,2,16950.68959704069,9417.873907269193,-1550.5722335817436
1721,22774,26345,-12009,15091,16121,-28397,-32025,10516,21458,2,-1,53150,2020-11-02 14:55:56,2020-11-02 14:56:26,1,DF:DC:EF:28:D6:3E,2,2,-33068.84435350203,-14466.903898708984,-7354.61805326256
1722,-24331,21229,-21733,23289,9461,-1522,-26903,-28139,-27178,2,-1,53175,2020-11-02 14:55:56,2020-11-02 14:56:26,1,DF:DC:EF:28:D6:3E,2,2,-27316.278340967812,27693.438488453976,-1373.205478065387
1723,-5901,-2066,-16360,22271,18161,-14069,21997,-15595,-24101,2,-1,53227,2020-11-02 14:55:56,2020-11-02 14:56:26,1,DF:DC:EF:28:D6:3E,2,2,4552.779630580865,-11932.500472568836,-11984.464406368457
1724,-3851,-14098,-21996,-19708,-24336,-20213,-4879,6421,-18208,2,-1,53229,2020-11-02 14:55:56,2020-11-02 14:56:26,1,DF:DC:EF:28:D6:3E,2,2,18394.13859574184,16862.532841623048,-8643.984757380393
1725,4856,237,6420,18697,24562,17418,22518,-2797,-8220,2,-1,53252,2020-11-02 14:55:56,2020-11-02 14:56:26,1,DF:DC:EF:28:D6:3E,2,2,1663.910478866987,-4702.462001602308,-6322.306386264671
1726,-21767,28909,-28143,-16883,-13325,-2553,21498,32018,-15641,2,-1,53278,2020-11-02 14:55:56,2020-11-02 14:56:26,1,DF:DC:EF:28:D6:3E,2,2,-7096.8532479476125,43722.553441575896,-11812.45163061566
1727,17402,21742,18957,14096,-23563,18694,-7427,-3312,-29463,2,-1,53303,2020-11-02 14:55:56,2020-11-02 14:56:26,1,DF:DC:EF:28:D6:3E,2,2,-21624.97157835319,24544.36426355342,-8052.75133935096
1728,15868,2799,31240,-26097,-2315,-12541,-6400,27407,-31766,2,-1,53329,2020-11-02 14:55:56,2020-11-02 14:56:26,1,DF:DC:EF:28:D6:3E,2,2,-32718.01709868213,-12600.343924621131,2515.5745092536854
1729,11005,15599,-24826,9996,22516,24063,-8190,-17139,31466,2,-1,53355,2020-11-02 14:55:56,2020-11-02 14:56:26,1,DF:DC:EF:28:D6:3E,2,2,-6403.9167284310115,-22284.647442404224,21051.209962922996
1730,29435,23280,-22003,11024,-32011,3326,27140,4876,-18199,2,-1,53380,2020-11-02 14:55:56,2020-11-02 14:56:26,1,DF:DC:EF:28:D6:3E,2,2,-33637.74722466085,27395.954748787848,-3236.2415009065153
1731,-19457,-23570,-29691,22808,-6915,28157,14855,22283,4329,2,-1,53406,2020-11-02 14:55:56,2020-11-02 14:56:26,1,DF:DC:EF:28:D6:3E,2,2,17981.433001928955,36806.53083729746,11731.265273627188
1732,5117,26096,23813,-3044,17668,32507,779,-7157,-30744,2,-1,53431,2020-11-02 14:55:56,2020-11-02 14:56:26,1,DF:DC:EF:28:D6:3E,2,2,-29923.847678272185,-9161.263161579542,17172.02583890002
1733,-2307,-28175,-14079,-20962,32516,-14854,25359,-3572,15336,2,-1,53457,2020-11-02 14:55:56,2020-11-02 14:56:26,1,DF:DC:EF:28:D6:3E,2,2,-6097.358190621042,-5327.6256804479635,30525.55884343967
1734,-22788,4082,13313,27165,-12543,-19975,-22765,-1267,-12313,2,-1,53483,2020-11-02 14:55:56,2020-11-02 14:56:26,1,DF:DC:EF:28:D6:3E,2,2,7516.872348131205,21620.95346538953,-13755.821980142107
1735,31227,-14350,22526,7195,-25348,1273,24087,-13554,-7450,2,-1,53508,2020-11-02 14:55:56,2020-11-02 14:56:26,1,DF:DC:EF:28:D6:3E,2,2,17115.049830979184,22257.356671958772,30002.5640281012
1736,6651,31732,-11787,21780,-3084,32756,-30183,-26097,-22556,2,-1,53534,2020-11-02 14:55:56,2020-11-02 14:56:26,1,DF:DC:EF:28:D6:3E,2,2,-13123.726793316988,-22379.997223720296,-22737.46936931736
1737,19701,-17674,-20494,-6392,-21775,16621,7449,5393,-9248,2,1,53559,2020-11-02 14:55:56,2020-11-02 14:56:26,1,DF:DC:EF:28:D6:3E,2,2,17120.291001148238,-12419.759544450513,-25945.11364195642
1738,12015,-10761,-523,-5633,496,-21780,22,-20206,-9253,2,1,53585,2020-11-02 14:55:56,2020-11-02 14:56:26,1,DF:DC:EF:28:D6:3E,2,2,-15441.958015820988,4132.796759671854,2213.3229725613373
1739,493,25848,13813,-7428,26864,16364,22289,-30957,7638,2,1,53611,2020-11-02 14:55:56,2020-11-02 14:56:26,1,DF:DC:EF:28:D6:3E,2,2,18053.37690812536,-22852.436022148322,-3317.0577424554795
1740,12774,-4872,-6412,-9734,21749,-31766,8460,9492,15568,2,1,53636,2020-11-02 14:55:56,2020-11-02 14:56:26,1,DF:DC:EF:28:D6:3E,2,2,-2735.95456270008,-661.6959506606645,-14835.832133713295
1741,21216,25082,22776,13814,20727,-31763,-23546,20500,-15158,2,1,53662,2020-11-02 14:55:56,2020-11-02 14:56:26,1,DF:DC:EF:28:D6:3E,2,2,-22081.002803239553,32568.850008265596,-7047.757114318378
1742,18143,-14342,17150,-31505,502,-16398,22785,-32493,-20794,2,1,53687,2020-11-02 14:55:56,2020-11-02 14:56:26,1,DF:DC:EF:28:D6:3E,2,2,14606.595251919614,-9815.207127029833,-22788.001167283233
1743,-24350,-263,-30970,-16405,-22796,-5898,-21252,-6127,23748,2,1,53713,2020-11-02 14:55:56,2020-11-02 14:56:26,1,DF:DC:EF:28:D6:3E,2,2,22373.153385608828,32192.124670845027,-3904.060163572165
1744,23780,15612,-3321,-16660,23541,-24328,-9224,5136,16323,2,1,53739,2020-11-02 14:55:56,2020-11-02 14:56:26,1,DF:DC:EF:28:D6:3E,2,2,-15025.022543917727,19275.74397794843,-14931.388972608973
1745,-6437,12556,-9729,24041,-4109,22779,-23307,26638,-2622,2,1,53764,2020-11-02 14:55:56,2020-11-02 14:56:26,1,DF:DC:EF:28:D6:3E,2,2,-7796.678415450846,-844.2178267126783,-15239.443820136723
1746,-28968,11256,25353,-15139,12520,1549,19442,-26612,28869,2,1,53790,2020-11-02 14:55:56,2020-11-02 14:56:26,1,DF:DC:EF:28:D6:3E,2,2,-13792.63365832487,-5270.635129357706,37290.76066669094
1747,-3082,-25359,-17395,-1308,23530,27412,19440,-29429,-9782,2,1,53816,2020-11-02 14:55:56,2020-11-02 14:56:26,1,DF:DC:EF:28:D6:3E,2,2,29786.760840530605,4618.353939400902,6825.19710480604
1748,4086,6898,5645,-2577,15094,29711,12527,-19189,-18994,2,1,53841,2020-11-02 14:55:56,2020-11-02 14:56:26,1,DF:DC:EF:28:D6:3E,2,2,3423.264070905511,8572.444675442384,-3307.307120200201
1749,-24338,25581,-1771,-2830,13304,-14577,-31506,26124,-22831,2,-1,53867,2020-11-02 14:55:56,2020-11-02 14:56:26,1,DF:DC:EF:28:D6:3E,2,2,3516.876975022841,-8543.817835738755,-34124.727092421796
1750,14579,-24591,22547,-31239,-28679,8979,6639,-27379,4309,2,-1,53892,2020-11-02 14:55:56,2020-11-02 14:56:26,1,DF:DC:EF:28:D6:3E,2,2,-15970.175092332493,-32259.22029806707,-5470.643863479011
1751,-15627,-19725,-4847,-18690,-27143,3599,-32016,-32498,19160,2,-1,53918,2020-11-02 14:55:56,2020-11-02 14:56:26,1,DF:DC:EF:28:D6:3E,2,2,23783.684478693456,-2433.3751060023633,9229.691284731238
1752,10228,20469,8463,32257,-8198,-19698,24562,10255,10971,2,-1,53944,2020-11-02 14:55:56,2020-11-02 14:56:26,1,DF:DC:EF:28:D6:3E,2,2,-703.2196675291743,-14003.920808150118,-19965.219710743488
1753,28917,17397,-20977,32512,-17160,8463,-29452,-26865,19934,2,-1,53969,2020-11-02 14:55:56,2020-11-02 14:56:26,1,DF:DC:EF:28:D6:3E,2,2,7136.427271154384,-26320.722948522438,-28899.37674536681
1754,28407,20981,-10991,-32003,-19726,10510,-28426,6927,-11551,2,-1,53995,2020-11-02 14:55:56,2020-11-02 14:56:26,1,DF:DC:EF:28:D6:3E,2,2,-19369.798610835955,-29357.011464800198,-11442.85238178171
1755,-26630,-22284,20495,30972,-18963,31500,9720,31245,20965,2,-1,54020,2020-11-02 14:55:56,2020-11-02 14:56:26,1,DF:DC:EF:28:D6:3E,2,2,4322.384184231198,28965.946333086595,-27714.067348418117
1756,-1284,4340,-23280,-2818,6636,4362,17913,9739,17896,2,-1,54046,2020-11-02 14:55:56,2020-11-02 14:56:26,1,DF:DC:EF:28:D6:3E,2,2,-18880.014779621983,3712.797317257199,13863.723670148047
1757,1280,-27148,-5362,19461,10991,14088,-23814,-15608,-28950,2,-1,54074,2020-11-02 14:55:56,2020-11-02 14:56:26,1,DF:DC:EF:28:D6:3E,2,2,-16663.2126807972,20532.637637421158,8255.391135789716
1758,-12031,2805,-28661,15626,-2572,25605,24828,-5114,1260,2,-1,54097,2020-11-02 14:55:56,2020-11-02 14:56:26,1,DF:DC:EF:28:D6:3E,2,2,-12031.0,-23524.18667454296,16611.248818233245
1759,-18430,-26378,27912,-22005,-23815,-19454,15614,-16379,-17172,2,-1,54123,2020-11-02 14:55:56,2020-11-02 14:56:26,1,DF:DC:EF:28:D6:3E,2,2,-29759.895662781593,-30415.725686325844,-1943.1338385536164
1760,5891,-30728,-15100,26890,-13062,7169,-2817,-6652,1261,2,-1,54148,2020-11-02 14:55:56,2020-11-02 14:56:26,1,DF:DC:EF:28:D6:3E,2,2,15889.13275446845,-30728.0,-3201.459247105592
1761,13059,-1287,-20477,-6394,19194,5121,13569,2052,8429,2,-1,54174,2020-11-02 14:55:56,2020-11-02 14:56:26,1,DF:DC:EF:28:D6:3E,2,2,-9062.791376279929,21338.40310881916,7351.172983651182
1762,7687,-30471,-20477,-31228,7674,-4609,-1023,6403,9709,2,-1,54200,2020-11-02 14:55:56,2020-11-02 14:56:26,1,DF:DC:EF:28:D6:3E,2,2,18574.66030725773,-27467.886288091497,-17532.1577774802
1763,-31991,27640,1284,2,20218,27900,23810,12290,-16916,2,-1,54225,2020-11-02 14:55:56,2020-11-02 14:56:26,1,DF:DC:EF:28:D6:3E,2,2,-12851.571262439747,12997.995231615218,38143.56529016842
1764,-9974,18167,-3838,-770,29435,13816,17154,28929,-17429,2,-1,54251,2020-11-02 14:55:56,2020-11-02 14:56:26,1,DF:DC:EF:28:D6:3E,2,2,19424.920227423856,6880.35614193183,-4425.379364348373
1765,266,8182,24834,4093,-17667,-21261,-15615,1281,5354,2,-1,54276,2020-11-02 14:55:56,2020-11-02 14:56:26,1,DF:DC:EF:28:D6:3E,2,2,266.0,19176.57888116026,-17774.46208509946
1766,-12026,-14861,-19454,-25349,21248,27119,1025,-256,-13081,2,-1,54302,2020-11-02 14:55:56,2020-11-02 14:56:26,1,DF:DC:EF:28:D6:3E,2,2,-8508.487203740522,17119.568992932735,-19454.0
1767,-22271,-24849,28422,20986,9476,-13589,-513,25857,-5148,2,1,54328,2020-11-02 14:55:56,2020-11-02 14:56:26,1,DF:DC:EF:28:D6:3E,2,2,-6952.543441388432,-24849.0,-35432.60736518845
1768,18172,29931,-19956,-4103,32520,4073,-22530,23810,-29983,2,1,54353,2020-11-02 14:55:56,2020-11-02 14:56:26,1,DF:DC:EF:28:D6:3E,2,2,24411.059227371363,-31866.42244352478,3599.9429229624166
1769,-18440,-29208,-27377,-17155,-31223,-1053,22781,28419,29405,2,1,54379,2020-11-02 14:55:56,2020-11-02 14:56:26,1,DF:DC:EF:28:D6:3E,2,2,29918.23398694101,14417.933322880399,-28976.947161487224
1770,-18446,-29465,-22005,8452,11788,15071,-29188,29700,26840,2,1,54404,2020-11-02 14:55:56,2020-11-02 14:56:26,1,DF:DC:EF:28:D6:3E,2,2,-8558.246392901703,-29404.286956097872,-27473.723687950223
1771,747,-12824,26376,-11000,26639,16351,18172,-7419,-7982,2,1,54430,2020-11-02 14:55:56,2020-11-02 14:56:26,1,DF:DC:EF:28:D6:3E,2,2,20463.588832674905,-15261.888972819244,-14457.615227573366
1772,18919,28401,-19447,20998,-30454,-27935,-12037,12295,-28979,2,1,54456,2020-11-02 14:55:56,2020-11-02 14:56:26,1,DF:DC:EF:28:D6:3E,2,2,21483.266289119154,-31379.818237068946,-9823.820436027505
1773,23778,17660,2827,12288,24834,24294,-19206,16647,-824,2,1,54481,2020-11-02 14:55:56,2020-11-02 14:56:26,1,DF:DC:EF:28:D6:3E,2,2,-14706.130441855646,-17084.32122717862,-19419.48785714239
1774,20189,12289,31244,15357,-23811,-24848,31993,-29434,-5435,2,1,54507,2020-11-02 14:55:56,2020-11-02 14:56:26,1,DF:DC:EF:28:D6:3E,2,2,2925.378646220549,33446.55463473269,-20188.43532426618
1775,1252,-20741,-17655,26875,21755,-4870,-25096,-13563,-12092,2,1,54533,2020-11-02 14:55:56,2020-11-02 14:56:26,1,DF:DC:EF:28:D6:3E,2,2,23120.881798060916,-14165.221389129401,2868.2639134233177
1776,-28697,23033,1547,9466,4350,13305,-29193,11525,14276,2,1,54558,2020-11-02 14:55:56,2020-11-02 14:56:26,1,DF:DC:EF:28:D6:3E,2,2,-18085.533169976807,27382.14617683139,16720.097718264293
1777,-27937,-13823,17164,17152,23042,26357,-6154,-10236,-15934,2,1,54584,2020-11-02 14:55:56,2020-11-02 14:56:26,1,DF:DC:EF:28:D6:3E,2,2,19943.86920218653,26818.658120459935,-12212.93788832008
1778,-11810,-32511,27144,-15613,6146,15103,10999,7941,-13119,2,1,54609,2020-11-02 14:55:56,2020-11-02 14:56:26,1,DF:DC:EF:28:D6:3E,2,2,-29642.137138533057,32327.8623565808,3080.7431431985724
1779,-1048,8703,-19968,-22783,-10240,-24568,-10505,-15355,-30782,2,1,54635,2020-11-02 14:55:56,2020-11-02 14:56:26,1,DF:DC:EF:28:D6:3E,2,2,16398.634814077548,12778.60611544665,6584.340436277076
1780,-7188,-23814,19455,-17926,17406,15630,-3081,30470,22980,2,1,54661,2020-11-02 14:55:56,2020-11-02 14:56:26,1,DF:DC:EF:28:D6:3E,2,2,-4495.447379431567,31227.772373502285,-1374.0998680915718
1781,23535,19957,2562,757,22269,-8942,22263,12295,1991,2,1,54686,2020-11-02 14:55:56,2020-11-02 14:56:26,1,DF:DC:EF:28:D6:3E,2,2,-9539.438684058961,-20118.82971530447,-21516.82407976747
1782,-23057,-17935,-23032,-1293,-260,-31724,31478,5128,10442,2,1,54712,2020-11-02 14:55:56,2020-11-02 14:56:26,1,DF:DC:EF:28:D6:3E,2,2,10407.89858910425,-34083.66078538332,10664.999410494362
1783,23280,-8978,4619,4597,-26884,-9963,-3083,6921,-31539,2,1,54737,2020-11-02 14:55:56,2020-11-02 14:56:26,1,DF:DC:EF:28:D6:3E,2,2,13279.717797506717,13241.96156273447,-17093.788175522895
1784,-23051,23533,1034,-26124,12538,-30699,-19979,-3575,9937,2,1,54763,2020-11-02 14:55:56,2020-11-02 14:56:26,1,DF:DC:EF:28:D6:3E,2,2,7026.870443727016,-31905.597208335785,-4344.629391157716
1785,-31239,-6932,24585,-28684,10490,-23278,25077,31754,-26668,2,-1,54789,2020-11-02 14:55:56,2020-11-02 14:56:26,1,DF:DC:EF:28:D6:3E,2,2,-18502.249166265803,-13974.738370527088,-33026.102302038824
1786,-32261,13037,-14324,32501,-23301,-9201,-780,267,-31273,2,-1,54814,2020-11-02 14:55:56,2020-11-02 14:56:26,1,DF:DC:EF:28:D6:3E,2,2,-21652.72153401248,-27237.752113023427,-14324.0
1787,-9733,-4368,17169,-3847,16893,32015,-2572,-23285,8666,2,-1,54840,2020-11-02 14:55:56,2020-11-02 14:56:26,1,DF:DC:EF:28:D6:3E,2,2,14133.342447445952,13927.013648015061,-3856.448639775289
1788,8442,28145,12816,28157,-32002,-14067,-27659,23564,-31524,2,-1,54865,2020-11-02 14:55:56,2020-11-02 14:56:26,1,DF:DC:EF:28:D6:3E,2,2,22602.368207747168,-22639.679445825102,-2058.181476863604
1789,12544,4338,2826,7679,-2051,21773,-25098,269,-7970,2,-1,54891,2020-11-02 14:55:56,2020-11-02 14:56:26,1,DF:DC:EF:28:D6:3E,2,2,2591.882009827777,-13242.999906997306,1435.8123520852253
1790,12802,14578,32268,26621,3069,17675,25591,21773,-544,2,-1,54917,2020-11-02 14:55:56,2020-11-02 14:56:26,1,DF:DC:EF:28:D6:3E,2,2,-17207.285051076036,14891.686213646492,29996.33535759503
1791,-7162,2545,-24559,29950,-3843,-18936,1528,26893,-10526,2,-1,54942,2020-11-02 14:55:56,2020-11-02 14:56:26,1,DF:DC:EF:28:D6:3E,2,2,14713.139992273349,-18204.031876397523,10632.614213394065
1792,-10231,-5136,-751,-27389,-22784,27395,-14344,-32243,-10269,2,-1,54968,2020-11-02 14:55:56,2020-11-02 14:56:26,1,DF:DC:EF:28:D6:3E,2,2,2237.4086775032133,-792.642736603171,11224.151544858236
1793,-30455,1778,-21487,-15097,-1023,-3075,-26119,-24563,-18461,2,-1,54993,2020-11-02 14:55:56,2020-11-02 14:56:26,1,DF:DC:EF:28:D6:3E,2,2,-29107.652771542394,-19401.065279246868,12988.560126577608
1794,30216,-11022,2835,-29941,17153,-9992,31738,-30195,-21534,2,-1,55019,2020-11-02 14:55:56,2020-11-02 14:56:26,1,DF:DC:EF:28:D6:3E,2,2,-19340.062808444887,-2344.760730885881,-25748.639433575947
1795,-5627,755,29456,-29171,1792,19700,25083,11021,-12064,2,-1,55045,2020-11-02 14:55:56,2020-11-02 14:56:26,1,DF:DC:EF:28:D6:3E,2,2,28029.131222658318,8862.120782856147,-5976.596701557668
1796,-27646,-3086,-2033,15885,9726,18417,4348,-31732,24798,2,-1,55070,2020-11-02 14:55:56,2020-11-02 14:56:26,1,DF:DC:EF:28:D6:3E,2,2,4064.736031801801,9427.465020608597,25933.73527429039
1797,-20480,-13582,-19697,15628,7932,24047,-30212,-26357,-23333,2,-1,55098,2020-11-02 14:55:56,2020-11-02 14:56:26,1,DF:DC:EF:28:D6:3E,2,2,-10922.107673356417,-10356.336507830423,27664.54031984243
