id,accelerationx,accelerationy,accelerationz,angularvelocityx,angularvelocityy,angularvelocityz,pitch,roll,yaw,mdlcircle_id,hallsensor,timestamp,starttime,endtime,train_mode,blemac,training_id,training_handle_id,accelerationWorldx,accelerationWorldy,accelerationWorldz
9470,-29170,-19962,1791,22256,-22278,27898,-17144,25595,21497,9,1,63670,2020-11-02 14:27:28,2020-11-02 14:27:58,4,D7:F2:3B:06:4D:C8,9,9,-7236.962546394854,-9004.507266806535,-33453.299493235434
9471,25370,259,11269,488,-11010,10743,-11259,13307,2040,9,1,63696,2020-11-02 14:27:28,2020-11-02 14:27:58,4,D7:F2:3B:06:4D:C8,9,9,-5219.409470807269,9622.474825020035,-25511.959646759853
9472,-5347,-30983,-1778,-14872,26113,-15373,25858,30715,26358,9,1,63722,2020-11-02 14:27:28,2020-11-02 14:27:58,4,D7:F2:3B:06:4D:C8,9,9,30725.23985176993,6649.942845692151,1853.612203303756
9473,12570,-10762,22543,29165,-28416,-32017,-18177,-26885,8948,9,1,63747,2020-11-02 14:27:28,2020-11-02 14:27:58,4,D7:F2:3B:06:4D:C8,9,9,-24586.134129586608,-12683.54925401179,4081.9088528571483
9474,-16093,-25354,3085,31468,11779,-22297,-32515,24315,-8464,9,1,63773,2020-11-02 14:27:28,2020-11-02 14:27:58,4,D7:F2:3B:06:4D:C8,9,9,6725.97468726298,-29261.331683661163,3140.529032673454
9475,-19415,-14096,20242,16107,-16116,-1824,16635,-17669,16620,9,1,63798,2020-11-02 14:27:28,2020-11-02 14:27:58,4,D7:F2:3B:06:4D:C8,9,9,2156.5292160346344,25421.47460881588,18288.68544903429
9476,-10205,29157,-4323,9967,13592,-4132,12537,5629,29158,9,1,63824,2020-11-02 14:27:28,2020-11-02 14:27:58,4,D7:F2:3B:06:4D:C8,9,9,-10760.541265409947,7459.02626190086,28311.387848349696
9477,2836,-29479,-12255,20988,-10473,21723,16120,-15618,-5665,9,1,63850,2020-11-02 14:27:28,2020-11-02 14:27:58,4,D7:F2:3B:06:4D:C8,9,9,18556.380431272184,23411.03256032194,11611.359168910625
9478,6672,211,14125,-5367,23312,-30500,-9224,-16897,-14375,9,1,63875,2020-11-02 14:27:28,2020-11-02 14:27:58,4,D7:F2:3B:06:4D:C8,9,9,14887.501304944866,3694.333457528206,2964.7824877809558
9479,19974,-3118,-23771,3097,14341,-25123,-14597,-27137,14804,9,1,63901,2020-11-02 14:27:28,2020-11-02 14:27:58,4,D7:F2:3B:06:4D:C8,9,9,19899.3037475552,5341.810650032123,-23435.567207595785
9480,-15103,-7468,26652,8475,24067,8162,-15873,-27649,23247,9,1,63926,2020-11-02 14:27:28,2020-11-02 14:27:58,4,D7:F2:3B:06:4D:C8,9,9,16367.398266921393,-22880.192306057772,14240.990520669315
9481,21505,2778,28616,11259,27923,-31511,-20223,14081,-31797,9,1,63952,2020-11-02 14:27:28,2020-11-02 14:27:58,4,D7:F2:3B:06:4D:C8,9,9,-11182.013603984879,-33260.031730991934,-7602.014602308169
9482,-25892,17860,-1249,29453,24847,-15902,20736,9221,17351,9,1,63979,2020-11-02 14:27:28,2020-11-02 14:27:58,4,D7:F2:3B:06:4D:C8,9,9,13190.1252967936,15801.752603925715,23817.230617752608
9483,30169,-829,-2273,-11225,-6915,25852,-3325,-763,-9020,9,1,64003,2020-11-02 14:27:28,2020-11-02 14:27:58,4,D7:F2:3B:06:4D:C8,9,9,15602.800819330161,-25834.248752234114,-2273.0
9484,21988,32217,-9450,22828,20216,23050,18954,-14588,3269,9,1,64029,2020-11-02 14:27:28,2020-11-02 14:27:58,4,D7:F2:3B:06:4D:C8,9,9,-21791.191622541755,-30561.004186810806,14208.40327986922
9485,-31238,-25624,7935,18469,16903,20758,-14064,17155,28359,9,1,64054,2020-11-02 14:27:28,2020-11-02 14:27:58,4,D7:F2:3B:06:4D:C8,9,9,-6852.286243497624,-35285.96962166566,20082.64838351909
9486,13574,-783,32509,-4074,2330,26391,-25835,25602,1484,9,1,64080,2020-11-02 14:27:28,2020-11-02 14:27:58,4,D7:F2:3B:06:4D:C8,9,9,7657.428373373163,-24091.08936482923,24549.640525320763
9487,-25592,-21004,25344,-28912,-29929,-27118,-10216,-19199,12241,9,-1,64105,2020-11-02 14:27:28,2020-11-02 14:27:58,4,D7:F2:3B:06:4D:C8,9,9,-17774.056260722053,14860.554190256293,-34665.309304824375
9488,-1015,-1551,-2048,-19695,-25083,-6383,-30693,-4097,-5933,9,-1,64131,2020-11-02 14:27:28,2020-11-02 14:27:58,4,D7:F2:3B:06:4D:C8,9,9,733.9249845801203,1677.4688456134058,-2068.231705831215
9489,-24046,5363,18940,8721,9474,22288,9246,29181,2773,9,-1,64157,2020-11-02 14:27:28,2020-11-02 14:27:58,4,D7:F2:3B:06:4D:C8,9,9,-20961.36730315738,-13039.819185890727,-18875.372350801477
9490,-1775,6647,6396,-22765,-9216,15373,-13792,10491,-22059,9,-1,64182,2020-11-02 14:27:28,2020-11-02 14:27:58,4,D7:F2:3B:06:4D:C8,9,9,8632.163787488189,-1850.0819980689062,-3210.139396723911
9491,7433,29686,22254,18971,-11523,21777,-21468,-18440,28885,9,-1,64208,2020-11-02 14:27:28,2020-11-02 14:27:58,4,D7:F2:3B:06:4D:C8,9,9,-26207.99915223195,-3937.592229526022,27007.124039234266
9492,-14070,-24324,4317,32021,25342,21009,-6616,2550,-21548,9,-1,64233,2020-11-02 14:27:28,2020-11-02 14:27:58,4,D7:F2:3B:06:4D:C8,9,9,12587.18787899645,11400.073374506528,22800.425288900035
9493,17933,-2563,29651,-26868,8699,-6641,23340,-12813,2771,9,-1,64259,2020-11-02 14:27:28,2020-11-02 14:27:58,4,D7:F2:3B:06:4D:C8,9,9,8396.751856774807,24115.239388648817,23564.656723235108
9494,-30959,26365,24782,18944,-515,12302,-25810,5362,-4144,9,-1,64284,2020-11-02 14:27:28,2020-11-02 14:27:58,4,D7:F2:3B:06:4D:C8,9,9,-30959.0,-35988.393502790204,3754.5015765514945
9495,13079,9972,-6439,-10766,-28919,9997,3374,-7441,15568,9,-1,64310,2020-11-02 14:27:28,2020-11-02 14:27:58,4,D7:F2:3B:06:4D:C8,9,9,-14263.042912239893,7202.621660358248,7526.592462817525
9496,-12543,-1321,-10491,-29709,-16378,9749,-26581,-6676,-24880,9,-1,64336,2020-11-02 14:27:28,2020-11-02 14:27:58,4,D7:F2:3B:06:4D:C8,9,9,989.3902147628896,-14613.240120330309,-7389.674633466623
9497,28199,6863,-16397,29692,13317,13348,-14036,-14873,15054,9,-1,64361,2020-11-02 14:27:28,2020-11-02 14:27:58,4,D7:F2:3B:06:4D:C8,9,9,21258.444147730086,-3759.449255809659,25398.643127356878
9498,-983,-21527,-790,19960,-12288,-32224,-5582,-12830,-8250,9,-1,64387,2020-11-02 14:27:28,2020-11-02 14:27:58,4,D7:F2:3B:06:4D:C8,9,9,-17505.199719031894,-12579.776690470193,-565.0833696974025
9499,7703,-7954,-20746,-11277,10243,-9194,12866,20960,20034,9,-1,64413,2020-11-02 14:27:28,2020-11-02 14:27:58,4,D7:F2:3B:06:4D:C8,9,9,4224.649274980684,-23000.678260440363,-2473.8591437491104
9500,29458,-1048,26621,12779,-4338,24854,14284,12256,-10968,9,-1,64438,2020-11-02 14:27:28,2020-11-02 14:27:58,4,D7:F2:3B:06:4D:C8,9,9,-32536.360670842547,6677.9625068160985,-21779.342507394682
9501,-7388,-18702,28153,24542,7709,23570,28126,24546,-495,9,-1,64464,2020-11-02 14:27:28,2020-11-02 14:27:58,4,D7:F2:3B:06:4D:C8,9,9,8044.249613390055,33530.70364779537,-2814.377025417163
9502,-7870,9200,26357,23246,12590,-31226,29415,-4123,29953,9,-1,64489,2020-11-02 14:27:28,2020-11-02 14:27:58,4,D7:F2:3B:06:4D:C8,9,9,24506.279856429537,15456.387217702777,-1345.6191046466192
9503,8737,-29209,-24304,26825,-1488,2290,10988,14569,-26382,9,-1,64515,2020-11-02 14:27:28,2020-11-02 14:27:58,4,D7:F2:3B:06:4D:C8,9,9,21255.93911295385,-31754.258530117877,7748.379419519593
9504,-10760,15346,-21430,-31525,24348,-8731,-4882,11755,-24346,9,-1,64540,2020-11-02 14:27:28,2020-11-02 14:27:58,4,D7:F2:3B:06:4D:C8,9,9,-1803.678262912139,-21389.288204822347,18702.067019849594
9505,21486,24030,-15755,-249,30209,17636,-25613,12778,991,9,-1,64566,2020-11-02 14:27:28,2020-11-02 14:27:58,4,D7:F2:3B:06:4D:C8,9,9,16959.20537204751,-3783.632895776187,-31390.740613415215
9506,4077,9175,59,3356,-6905,-20501,-10244,-15895,-32040,9,-1,64591,2020-11-02 14:27:28,2020-11-02 14:27:58,4,D7:F2:3B:06:4D:C8,9,9,-3299.3768210980297,6497.404355897071,6906.799854373286
9507,14072,-3882,32285,26908,29457,26609,516,18156,-4652,9,1,64617,2020-11-02 14:27:28,2020-11-02 14:27:58,4,D7:F2:3B:06:4D:C8,9,9,-9375.114951948655,-3882.0,-33947.74850616383
9508,21249,28622,-14308,-15056,26886,-5897,9738,-8210,10452,9,1,64643,2020-11-02 14:27:28,2020-11-02 14:27:58,4,D7:F2:3B:06:4D:C8,9,9,-24376.218486431673,12941.67875571803,26716.48690014358
9509,-16124,17376,28141,-14545,12805,761,31506,-15889,16851,9,1,64668,2020-11-02 14:27:28,2020-11-02 14:27:58,4,D7:F2:3B:06:4D:C8,9,9,-35096.06606314186,-2.9787201932340395,-11049.469264123427
9510,-11252,-4366,-3361,25619,-18149,22269,-26603,-4111,-10027,9,1,64694,2020-11-02 14:27:28,2020-11-02 14:27:58,4,D7:F2:3B:06:4D:C8,9,9,-1537.7081832359868,12384.470660297799,-1107.3034847918148
9511,31516,5109,-13599,-14316,-31740,17920,-14570,17907,-32552,9,1,64719,2020-11-02 14:27:28,2020-11-02 14:27:58,4,D7:F2:3B:06:4D:C8,9,9,5086.518336927879,-33892.5823786577,-5450.97504250364
9512,-9969,24561,19377,6670,30198,-244,-5606,29425,16599,9,1,64745,2020-11-02 14:27:28,2020-11-02 14:27:58,4,D7:F2:3B:06:4D:C8,9,9,-13424.006427959837,-29688.043768092284,-4062.9939263958922
9513,13571,-8485,-31795,-19718,-1804,8475,-8678,-9235,27095,9,1,64771,2020-11-02 14:27:28,2020-11-02 14:27:58,4,D7:F2:3B:06:4D:C8,9,9,-34031.953293137216,8542.220372979336,5995.491402144113
9514,-19903,15586,-5646,-18704,26100,27172,13592,-19993,20184,9,1,64796,2020-11-02 14:27:28,2020-11-02 14:27:58,4,D7:F2:3B:06:4D:C8,9,9,-17007.58224972072,3790.2120264652895,-19165.24353650176
9515,-12489,12795,7158,29427,-27401,-7909,1811,28898,-17957,9,1,64822,2020-11-02 14:27:28,2020-11-02 14:27:58,4,D7:F2:3B:06:4D:C8,9,9,12108.123040336715,-11198.369297774765,-9945.551342722161
9516,-3552,25599,-5892,32243,9214,-24561,9733,20704,-21529,9,1,64847,2020-11-02 14:27:28,2020-11-02 14:27:58,4,D7:F2:3B:06:4D:C8,9,9,-3394.4027106825,-19462.939339906017,-17672.38499718841
9517,-25850,1012,-16889,-3854,-6402,17166,-31499,16864,30197,9,1,64873,2020-11-02 14:27:28,2020-11-02 14:27:58,4,D7:F2:3B:06:4D:C8,9,9,17871.387889686008,-2308.9770030384716,25095.160591154297
9518,-25058,24823,-17923,-9237,-18692,-14580,-11545,29153,-5376,9,1,64899,2020-11-02 14:27:28,2020-11-02 14:27:58,4,D7:F2:3B:06:4D:C8,9,9,7384.110301353902,-26627.35070460641,-28315.67995848476
9519,-32457,-19208,-14857,22488,19981,10496,-22045,24546,30464,9,1,64924,2020-11-02 14:27:28,2020-11-02 14:27:58,4,D7:F2:3B:06:4D:C8,9,9,18502.735585333678,-2903.3351207850556,-35949.32520973992
9520,24855,-16656,-12244,-22572,-32232,-23059,3820,-29726,-27408,9,1,64950,2020-11-02 14:27:28,2020-11-02 14:27:58,4,D7:F2:3B:06:4D:C8,9,9,15671.31267409731,7337.19615767978,-27307.22264556405
9521,13830,-26378,-9166,18149,17676,-25362,-10252,12259,25314,9,1,64975,2020-11-02 14:27:28,2020-11-02 14:27:58,4,D7:F2:3B:06:4D:C8,9,9,-23110.287487190362,6846.382172960084,-19751.582301202776
9522,-26614,-13331,-22170,-26112,-10752,7654,19199,12003,-19755,9,1,65003,2020-11-02 14:27:28,2020-11-02 14:27:58,4,D7:F2:3B:06:4D:C8,9,9,-26724.681459180276,-20300.767816724132,15849.280234660615
9523,24588,28659,-19959,5124,-17910,-30480,15114,21476,-53,9,-1,65026,2020-11-02 14:27:28,2020-11-02 14:27:58,4,D7:F2:3B:06:4D:C8,9,9,-19492.285794959156,6222.315153409227,-37491.376270007575
9524,11519,-27673,5939,-26601,13063,-25617,20750,32743,16329,9,-1,65052,2020-11-02 14:27:28,2020-11-02 14:27:58,4,D7:F2:3B:06:4D:C8,9,9,-29413.486471035467,450.93922396480775,8270.276805192396
9525,26129,25831,-15350,5413,-13051,-15885,-15852,29673,-11065,9,-1,65078,2020-11-02 14:27:28,2020-11-02 14:27:58,4,D7:F2:3B:06:4D:C8,9,9,-7926.006469109616,-33384.45861060254,20205.050030341394
9526,-6126,4590,4861,26137,29974,11258,24599,-11797,8906,9,-1,65103,2020-11-02 14:27:28,2020-11-02 14:27:58,4,D7:F2:3B:06:4D:C8,9,9,4074.0331316238326,7600.880723129135,-2802.528015059836
9527,26370,15848,12772,13079,-19692,-14340,-23017,3566,25294,9,-1,65129,2020-11-02 14:27:28,2020-11-02 14:27:58,4,D7:F2:3B:06:4D:C8,9,9,-32391.420244318928,-6867.7823062326015,3645.469619969994
9528,-239,-30216,-24385,-6126,6915,-13564,3098,2286,7888,9,-1,65154,2020-11-02 14:27:28,2020-11-02 14:27:58,4,D7:F2:3B:06:4D:C8,9,9,25296.755025852915,-16526.8860394808,-24385.0
9529,-16352,17909,10179,1029,-27139,-19947,-17125,-11029,26064,9,-1,65180,2020-11-02 14:27:28,2020-11-02 14:27:58,4,D7:F2:3B:06:4D:C8,9,9,-4147.320907221578,-7560.186416008779,-24847.042814945187
9530,-19398,-21780,16115,-10762,28671,-2532,-10728,28391,-5934,9,-1,65206,2020-11-02 14:27:28,2020-11-02 14:27:58,4,D7:F2:3B:06:4D:C8,9,9,-2695.294176732208,7515.2974538738645,-32351.19352482487
9531,-24785,22006,-2045,-12294,20985,282,27668,3299,-25642,9,-1,65231,2020-11-02 14:27:28,2020-11-02 14:27:58,4,D7:F2:3B:06:4D:C8,9,9,28257.739715271,-8343.667911030767,-15317.494507080184
9532,-6886,26879,-28415,-3334,27128,7957,523,-26913,28127,9,-1,65257,2020-11-02 14:27:28,2020-11-02 14:27:58,4,D7:F2:3B:06:4D:C8,9,9,31456.358176686554,-4700.955597981454,23784.62546952993
9533,26921,32762,-19472,7415,-10247,-12529,-16406,-17442,-4354,9,-1,65282,2020-11-02 14:27:28,2020-11-02 14:27:58,4,D7:F2:3B:06:4D:C8,9,9,-23591.09141865834,-31339.642154107154,25269.248194772532
9534,11295,-20478,-3584,-31513,-20477,23818,26080,19424,-22522,9,-1,65308,2020-11-02 14:27:28,2020-11-02 14:27:58,4,D7:F2:3B:06:4D:C8,9,9,10083.775672874077,-9343.415684861244,-19255.87226066484
9535,-17847,21264,-4858,-279,-10750,-13308,18144,-27167,-6910,9,-1,65334,2020-11-02 14:27:28,2020-11-02 14:27:58,4,D7:F2:3B:06:4D:C8,9,9,-7640.565311554202,-25793.57015506726,8401.593264107607
9536,-23013,-11514,-8938,9450,16649,14837,-24860,-30240,-2566,9,-1,65359,2020-11-02 14:27:28,2020-11-02 14:27:58,4,D7:F2:3B:06:4D:C8,9,9,-9281.52382496629,14290.35335368589,21253.172128258444
9537,24330,1538,-28905,-22289,19464,4337,31986,-25121,12266,9,-1,65385,2020-11-02 14:27:28,2020-11-02 14:27:58,4,D7:F2:3B:06:4D:C8,9,9,34471.74715094161,-9764.912064111797,-12089.603374044706
9538,-3832,2556,-22740,-8456,17416,3823,16131,-8480,18391,9,-1,65410,2020-11-02 14:27:28,2020-11-02 14:27:58,4,D7:F2:3B:06:4D:C8,9,9,9101.271517353873,-21109.375832087615,3144.2119437274596
9539,4606,28655,-10955,11027,19968,-22806,31246,227,-22580,9,1,65436,2020-11-02 14:27:28,2020-11-02 14:27:58,4,D7:F2:3B:06:4D:C8,9,9,-4895.301905690396,1702.8921591714043,-30585.494332221875
9540,-18669,-12293,43,4858,10517,-30991,-12014,23013,-16695,9,1,65462,2020-11-02 14:27:28,2020-11-02 14:27:58,4,D7:F2:3B:06:4D:C8,9,9,3123.82530667461,-5561.273893171084,-21423.473274390242
9541,26631,-18,-7918,-18395,19703,-20248,-18665,21224,-15161,9,1,65487,2020-11-02 14:27:28,2020-11-02 14:27:58,4,D7:F2:3B:06:4D:C8,9,9,9511.17122016315,23424.548787523378,-11520.995838974912
9542,-31478,16894,-18717,-32236,21000,1264,-25058,-5654,20677,9,1,65513,2020-11-02 14:27:28,2020-11-02 14:27:58,4,D7:F2:3B:06:4D:C8,9,9,30722.34829947868,-7533.344989036915,25019.669007436365
9543,-16617,9476,-24846,9214,31263,-2831,-12261,-17683,-311,9,1,2,2020-11-02 14:27:28,2020-11-02 14:27:58,4,D7:F2:3B:06:4D:C8,9,9,16207.543986616409,-26535.811290031612,-4050.829310366611
9544,1782,-18198,23026,-10485,14098,-32520,-24807,-6928,12750,9,1,28,2020-11-02 14:27:28,2020-11-02 14:27:58,4,D7:F2:3B:06:4D:C8,9,9,-5464.373380802423,25231.162120520603,-14073.680599018298
9545,8961,-6168,23506,-30703,18175,-504,-9957,-17680,2511,9,1,79,2020-11-02 14:27:28,2020-11-02 14:27:58,4,D7:F2:3B:06:4D:C8,9,9,-11396.035774996739,16447.032346299726,-16446.92301358418
9546,-25831,16096,-6450,4367,-7949,31259,-17634,14317,30414,9,1,81,2020-11-02 14:27:28,2020-11-02 14:27:58,4,D7:F2:3B:06:4D:C8,9,9,-12042.859836859883,-18673.453547169753,21776.040424545514
9547,19524,2546,12746,-26109,17396,-11487,26659,32231,-6454,9,1,104,2020-11-02 14:27:28,2020-11-02 14:27:58,4,D7:F2:3B:06:4D:C8,9,9,15023.80360020624,-8624.924998352964,15812.185242882028
9548,28463,30466,-5130,1272,-27397,-25574,-27609,-1566,-13627,9,1,130,2020-11-02 14:27:28,2020-11-02 14:27:58,4,D7:F2:3B:06:4D:C8,9,9,-26422.19797453955,-19209.870591244602,26409.93659708167
9549,16412,30730,-18705,-26392,13067,-5610,27940,11487,-31802,9,1,156,2020-11-02 14:27:28,2020-11-02 14:27:58,4,D7:F2:3B:06:4D:C8,9,9,28053.52924873696,-25880.25240410157,-10333.232852803385
9550,-30437,14075,18926,19937,-25843,-1012,1275,223,-18453,9,1,181,2020-11-02 14:27:28,2020-11-02 14:27:58,4,D7:F2:3B:06:4D:C8,9,9,32118.66573247039,-9638.874704333091,18926.0
9551,-8918,27377,19713,15821,-31203,-7935,-4876,-28190,10987,9,1,207,2020-11-02 14:27:28,2020-11-02 14:27:58,4,D7:F2:3B:06:4D:C8,9,9,-11826.73653994978,32250.731058174522,-6136.112044928279
9552,-1515,20469,24405,23770,5917,26610,10742,27622,9186,9,1,233,2020-11-02 14:27:28,2020-11-02 14:27:58,4,D7:F2:3B:06:4D:C8,9,9,-3925.4016618379464,-23652.98639072249,-21023.95461357203
9553,20226,22000,-20154,14859,-28669,4082,8699,4328,30171,9,1,258,2020-11-02 14:27:28,2020-11-02 14:27:58,4,D7:F2:3B:06:4D:C8,9,9,33398.15203777297,-11212.780285814926,7623.108993307233
9554,7421,8186,31254,3600,-7675,-778,27393,-32024,-27689,9,1,284,2020-11-02 14:27:28,2020-11-02 14:27:58,4,D7:F2:3B:06:4D:C8,9,9,1460.6423077252557,-29691.709108338197,-14668.445291669788
9555,24579,22017,28172,-27120,30982,-18444,-4091,5610,10453,9,1,309,2020-11-02 14:27:28,2020-11-02 14:27:58,4,D7:F2:3B:06:4D:C8,9,9,-5246.576296582451,32578.35120389212,28172.0
9556,-29447,32752,2558,-31702,-17418,-21260,32524,9963,-26414,9,1,335,2020-11-02 14:27:28,2020-11-02 14:27:58,4,D7:F2:3B:06:4D:C8,9,9,18387.468855204574,-39255.51123866856,8201.737833511143
9557,-260,20969,-11472,13070,10773,3831,19728,-7188,-3631,9,1,360,2020-11-02 14:27:28,2020-11-02 14:27:58,4,D7:F2:3B:06:4D:C8,9,9,-12187.262788050128,-19140.22392875194,7516.3687171559195
9558,-12819,27886,23560,-30945,-11263,21493,-1516,-11538,18641,9,1,386,2020-11-02 14:27:28,2020-11-02 14:27:58,4,D7:F2:3B:06:4D:C8,9,9,11992.183204622945,-29877.33451724273,-21460.70318352909
9559,-11746,5117,-13336,-5356,8971,246,-15336,8432,-9007,9,1,412,2020-11-02 14:27:28,2020-11-02 14:27:58,4,D7:F2:3B:06:4D:C8,9,9,-15017.067428462135,-2997.187521164514,10368.493324104395
9560,-10480,-2576,32457,-1520,15363,-9473,20507,18673,-28462,9,1,437,2020-11-02 14:27:28,2020-11-02 14:27:58,4,D7:F2:3B:06:4D:C8,9,9,-2247.7627964641697,5708.3459617505,33649.44834305309
9561,2303,26348,23758,-32253,32762,1040,-7652,-3857,32466,9,1,463,2020-11-02 14:27:28,2020-11-02 14:27:58,4,D7:F2:3B:06:4D:C8,9,9,33474.90526693965,7500.659829183331,-9334.575324903191
9562,32042,19946,15048,-21251,-29710,-30433,542,16107,18641,9,-1,491,2020-11-02 14:27:28,2020-11-02 14:27:58,4,D7:F2:3B:06:4D:C8,9,9,-3160.218497402362,-19697.149228036746,-35397.88574670989
9563,25663,-7169,-25882,9201,9464,-1252,9245,-8475,32208,9,-1,514,2020-11-02 14:27:28,2020-11-02 14:27:58,4,D7:F2:3B:06:4D:C8,9,9,25881.073906792655,-24368.652502118828,10779.649468424956
9564,49,-7927,-8963,13037,251,18963,-12774,994,21968,9,-1,540,2020-11-02 14:27:28,2020-11-02 14:27:58,4,D7:F2:3B:06:4D:C8,9,9,636.0969529199464,4809.602974322506,10937.924798419215
9565,-21988,19462,-12022,4846,28156,10247,-16105,6880,-7216,9,-1,565,2020-11-02 14:27:28,2020-11-02 14:27:58,4,D7:F2:3B:06:4D:C8,9,9,-28203.83222903838,8702.689275759496,11643.758798851708
9566,24865,8958,-13051,9700,-26362,-29945,-14582,-29985,-28966,9,-1,591,2020-11-02 14:27:28,2020-11-02 14:27:58,4,D7:F2:3B:06:4D:C8,9,9,16216.91496847076,-156.13873877594142,-24613.61167321128
9567,-20454,25599,-32481,-3363,-1007,-9730,30464,-17439,-11041,9,-1,616,2020-11-02 14:27:28,2020-11-02 14:27:58,4,D7:F2:3B:06:4D:C8,9,9,-6583.881982471958,-33953.594542844236,30536.800645467418
9568,17414,-6922,-20689,12256,5915,26358,-29442,-27675,24028,9,-1,642,2020-11-02 14:27:28,2020-11-02 14:27:58,4,D7:F2:3B:06:4D:C8,9,9,27155.12199032988,4093.0398867946296,-5004.255706437341
9569,-27162,-6152,23314,-9479,9744,-29964,-14849,10985,8152,9,-1,667,2020-11-02 14:27:28,2020-11-02 14:27:58,4,D7:F2:3B:06:4D:C8,9,9,-29789.95538472052,-2420.6588298945735,20636.44623004684
9570,25083,-17166,-4306,4876,-762,12784,12802,20459,10197,9,-1,693,2020-11-02 14:27:28,2020-11-02 14:27:58,4,D7:F2:3B:06:4D:C8,9,9,-23776.130839461977,-16560.937865972322,10139.083800037812
9571,254,14572,14909,1304,-26616,14835,16647,-6676,8658,9,-1,719,2020-11-02 14:27:28,2020-11-02 14:27:58,4,D7:F2:3B:06:4D:C8,9,9,13381.057563177059,-15474.73564788339,4020.6760773617602
9572,-7434,9964,18491,-28911,30994,18419,-2805,-18,25552,9,-1,744,2020-11-02 14:27:28,2020-11-02 14:27:58,4,D7:F2:3B:06:4D:C8,9,9,12399.966740748288,-886.8352881658911,18491.0
9573,7936,-31768,17676,1582,19968,4597,-6895,-17168,-15921,9,-1,770,2020-11-02 14:27:28,2020-11-02 14:27:58,4,D7:F2:3B:06:4D:C8,9,9,13020.854784988518,33955.11159872745,-7882.552441069206
9574,-21762,-14346,-8464,-31206,17427,-5642,9239,-19214,24272,9,-1,795,2020-11-02 14:27:28,2020-11-02 14:27:58,4,D7:F2:3B:06:4D:C8,9,9,-16093.60173395972,-17671.26782469215,13407.234341827865
9575,-15345,5114,23013,32536,-2035,23803,-32487,-23052,-6958,9,-1,821,2020-11-02 14:27:28,2020-11-02 14:27:58,4,D7:F2:3B:06:4D:C8,9,9,-7254.841305655369,-26859.662268053988,4140.774139678909
9576,-16881,12796,-6451,-9712,-11262,-26877,-21476,5109,-27693,9,-1,847,2020-11-02 14:27:28,2020-11-02 14:27:58,4,D7:F2:3B:06:4D:C8,9,9,21310.25621700901,-3900.2077597298994,4580.669972435412
9577,16139,18418,-9510,-8704,15102,782,-14563,-14349,-3885,9,-1,872,2020-11-02 14:27:28,2020-11-02 14:27:58,4,D7:F2:3B:06:4D:C8,9,9,4913.614444309471,-16312.010964637502,19997.620768036864
9578,17188,4330,-26390,26871,8695,18713,32285,12016,26323,9,-1,898,2020-11-02 14:27:28,2020-11-02 14:27:58,4,D7:F2:3B:06:4D:C8,9,9,-6629.654146503405,29160.25634736399,-10785.892622021052
9579,13108,-7,13546,-16140,-26126,19484,-12772,20203,26834,9,-1,923,2020-11-02 14:27:28,2020-11-02 14:27:58,4,D7:F2:3B:06:4D:C8,9,9,18325.610797552952,2369.1992984608432,3724.6090507304534
9580,13097,-23541,3067,-12308,8183,280,-13029,-8474,-7728,9,-1,949,2020-11-02 14:27:28,2020-11-02 14:27:58,4,D7:F2:3B:06:4D:C8,9,9,5261.722885859073,15098.47479842415,21896.732862091045
9581,5417,-29177,25869,-31514,2560,-28401,-8939,-5917,24275,9,-1,975,2020-11-02 14:27:28,2020-11-02 14:27:58,4,D7:F2:3B:06:4D:C8,9,9,23822.079972345215,18396.87048873416,25375.382578631823
9582,-30430,4355,32269,31201,-15355,12042,-30196,-2590,-22824,9,-1,1000,2020-11-02 14:27:28,2020-11-02 14:27:58,4,D7:F2:3B:06:4D:C8,9,9,25933.053267876254,33705.15574832601,13329.610278870816
9583,1048,-32248,-30689,26336,-9976,-28158,-28413,-12317,-4644,9,-1,1026,2020-11-02 14:27:28,2020-11-02 14:27:58,4,D7:F2:3B:06:4D:C8,9,9,3515.4099316951288,44304.21126411477,2761.392090382209
9584,-15089,13827,2102,26601,25874,22511,4610,-32026,-13607,9,-1,1051,2020-11-02 14:27:28,2020-11-02 14:27:58,4,D7:F2:3B:06:4D:C8,9,9,13515.228309703332,-3694.9401989529842,15065.466294235797
9585,774,27131,-9707,12278,-4594,-4365,-28157,21225,-555,9,-1,1077,2020-11-02 14:27:28,2020-11-02 14:27:58,4,D7:F2:3B:06:4D:C8,9,9,3026.730876554587,-10387.723255696596,-26717.975068555836
9586,5645,-32263,-15857,4,-14837,-13843,-19195,2540,-8750,9,-1,1102,2020-11-02 14:27:28,2020-11-02 14:27:58,4,D7:F2:3B:06:4D:C8,9,9,28043.70415607085,11298.164989942503,20251.26583862876
9587,-22009,-2584,-16118,-21989,-6398,12525,25610,-26642,-15921,9,-1,1128,2020-11-02 14:27:28,2020-11-02 14:27:58,4,D7:F2:3B:06:4D:C8,9,9,-19476.557979910798,-17303.643615891655,8491.800037058398
9588,12295,21731,-27338,17435,13839,21744,20750,-9231,17102,9,-1,1154,2020-11-02 14:27:28,2020-11-02 14:27:58,4,D7:F2:3B:06:4D:C8,9,9,23840.88091361759,-9666.932802144784,26625.78519896684
9589,17410,-24600,22776,-32478,-10744,-8462,30996,-269,1485,9,-1,1179,2020-11-02 14:27:28,2020-11-02 14:27:58,4,D7:F2:3B:06:4D:C8,9,9,17410.0,14862.369517332276,30050.227092823647
9590,29451,-29715,30716,-29680,22812,8182,-9450,-10762,17103,9,-1,1205,2020-11-02 14:27:28,2020-11-02 14:27:58,4,D7:F2:3B:06:4D:C8,9,9,-957.9518664301067,-21435.887047309756,47258.86537694892
9591,23276,31969,28371,25,-1524,-10499,31257,9721,-24367,9,-1,1230,2020-11-02 14:27:28,2020-11-02 14:27:58,4,D7:F2:3B:06:4D:C8,9,9,-23237.61465661993,-28590.124113376885,-31801.271142080906
9592,-4884,-30238,-54,20498,23556,-12266,18460,-12809,22483,9,-1,1256,2020-11-02 14:27:28,2020-11-02 14:27:58,4,D7:F2:3B:06:4D:C8,9,9,-10030.86685316309,-28815.83211936925,-2687.479384561173
9593,-10738,-5657,16824,17924,-19977,10530,3870,10483,980,9,-1,1282,2020-11-02 14:27:28,2020-11-02 14:27:58,4,D7:F2:3B:06:4D:C8,9,9,8355.141687995965,-5657.0,18125.761428792775
9594,-25539,6638,-28454,-32265,753,-27357,-21474,-6676,-28462,9,-1,1333,2020-11-02 14:27:28,2020-11-02 14:27:58,4,D7:F2:3B:06:4D:C8,9,9,32010.22559581763,-20865.222682806605,-6776.549321133491
9595,30545,-13571,19707,27636,-16908,-17889,15903,6631,6352,9,1,1335,2020-11-02 14:27:28,2020-11-02 14:27:58,4,D7:F2:3B:06:4D:C8,9,9,9904.449633790866,-7287.936108322328,-36801.124707442184
9596,-3026,-1267,24587,22512,2560,-31469,-14309,23011,26577,9,1,1358,2020-11-02 14:27:28,2020-11-02 14:27:58,4,D7:F2:3B:06:4D:C8,9,9,11534.377175184038,-21655.391402067562,3644.818295039101
9597,-19937,9219,-6666,1008,-14593,21516,13846,7649,-8236,9,1,1384,2020-11-02 14:27:28,2020-11-02 14:27:58,4,D7:F2:3B:06:4D:C8,9,9,1124.5109830440133,2366.592892303159,22804.477611449765
9598,-2274,-2048,1015,8671,26120,17929,-12792,-26400,29662,9,1,1410,2020-11-02 14:27:28,2020-11-02 14:27:58,4,D7:F2:3B:06:4D:C8,9,9,2433.0211845836616,-1966.6966334596118,779.8187400324167
9599,26920,-21764,-19929,-10023,-7925,-6911,-8195,11490,-21277,9,1,1435,2020-11-02 14:27:28,2020-11-02 14:27:58,4,D7:F2:3B:06:4D:C8,9,9,271.6032957377547,28855.919008004235,-27618.568153567343
9600,28166,-11014,-14538,9969,32006,6391,23294,-18717,6623,9,1,1461,2020-11-02 14:27:28,2020-11-02 14:27:58,4,D7:F2:3B:06:4D:C8,9,9,-13225.716427031999,-27636.788333240278,-13684.792713644225
9601,7961,-10501,-10958,22263,-19193,-15368,-8449,-10524,-9509,9,1,1486,2020-11-02 14:27:28,2020-11-02 14:27:58,4,D7:F2:3B:06:4D:C8,9,9,-11534.90554508535,-9602.522847687833,8274.285167045698
9602,28173,-8965,805,13831,22786,-30999,17927,-7195,30676,9,1,1512,2020-11-02 14:27:28,2020-11-02 14:27:58,4,D7:F2:3B:06:4D:C8,9,9,13211.882838609321,-13775.237739327007,22592.61286535671
9603,27914,9456,28444,9742,-3067,-13844,14094,24040,1487,9,1,1538,2020-11-02 14:27:28,2020-11-02 14:27:58,4,D7:F2:3B:06:4D:C8,9,9,-15794.85460233496,-29799.14049501947,23242.25165187721
9604,-7166,26860,-10454,9242,-31990,-9753,-14318,4076,-13620,9,1,1563,2020-11-02 14:27:28,2020-11-02 14:27:58,4,D7:F2:3B:06:4D:C8,9,9,-15825.344487542756,15123.39817540907,-20073.329855273983
9605,7689,-27409,-14602,-31461,3858,2800,23319,26351,-9524,9,1,1589,2020-11-02 14:27:28,2020-11-02 14:27:58,4,D7:F2:3B:06:4D:C8,9,9,-9323.589516779737,27226.272885801194,-13978.309957590787
9606,10493,-8722,-2572,15897,31763,23288,17689,30706,-30257,9,1,1614,2020-11-02 14:27:28,2020-11-02 14:27:58,4,D7:F2:3B:06:4D:C8,9,9,-8141.583903831855,4196.938603373888,10435.125054180044
9607,27651,12013,-1336,22296,12039,-10494,-26596,22003,7633,9,1,1640,2020-11-02 14:27:28,2020-11-02 14:27:58,4,D7:F2:3B:06:4D:C8,9,9,-8273.987426081976,-25547.64782881613,-13767.123464537668
9608,-24313,-274,-3899,-4088,-9728,5900,-29154,7922,9426,9,1,1665,2020-11-02 14:27:28,2020-11-02 14:27:58,4,D7:F2:3B:06:4D:C8,9,9,-10800.636925293664,-10044.93266647147,19719.14845357267
9609,-18927,11245,-12607,17406,20215,17179,-13793,-15634,27089,9,1,1691,2020-11-02 14:27:28,2020-11-02 14:27:58,4,D7:F2:3B:06:4D:C8,9,9,-20324.606484297237,1164.8104704061734,-15138.407803547074
9610,11064,32242,23258,-27406,11256,25890,12831,19945,-29232,9,1,1716,2020-11-02 14:27:28,2020-11-02 14:27:58,4,D7:F2:3B:06:4D:C8,9,9,30825.148374914475,-17650.79403195696,-21003.64067741447
9611,9791,-11768,-14592,-27668,-25860,-21737,-21989,-22044,28625,9,1,1742,2020-11-02 14:27:28,2020-11-02 14:27:58,4,D7:F2:3B:06:4D:C8,9,9,15079.99225594388,2786.7895715579684,-14563.777203889389
9612,-10200,15882,16917,6378,7177,-17907,-18671,-25374,30168,9,1,1768,2020-11-02 14:27:28,2020-11-02 14:27:58,4,D7:F2:3B:06:4D:C8,9,9,-14973.217234813874,3604.4558422135724,20131.405234622973
9613,-17908,17408,9976,11497,-14584,-12029,13577,5859,1246,9,1,1793,2020-11-02 14:27:28,2020-11-02 14:27:58,4,D7:F2:3B:06:4D:C8,9,9,150.60159518074852,-16315.435260625654,21378.479726488087
9614,10519,-7436,26370,20435,-24813,-31485,9984,21989,-17695,9,1,1819,2020-11-02 14:27:28,2020-11-02 14:27:58,4,D7:F2:3B:06:4D:C8,9,9,5494.796525426883,27255.46268121397,-9395.069035249779
9615,-3590,-27914,-12193,993,-23541,-22027,-26629,-11801,-28961,9,1,1844,2020-11-02 14:27:28,2020-11-02 14:27:58,4,D7:F2:3B:06:4D:C8,9,9,-22527.981320088176,20696.70548966155,2210.245351985132
9616,-16399,-31236,15384,-4613,24326,14071,32508,7913,-24100,9,1,1870,2020-11-02 14:27:28,2020-11-02 14:27:58,4,D7:F2:3B:06:4D:C8,9,9,-17542.246145326724,11297.282500889853,32340.738415686457
9617,-31740,17918,15627,-2291,-19199,-5906,16640,16362,-3880,9,1,1896,2020-11-02 14:27:28,2020-11-02 14:27:58,4,D7:F2:3B:06:4D:C8,9,9,22110.217494234905,-21666.109906256628,24787.162340365576
9618,28680,17395,-14617,-5856,17661,30190,25095,14571,-21548,9,-1,1921,2020-11-02 14:27:28,2020-11-02 14:27:58,4,D7:F2:3B:06:4D:C8,9,9,11899.959670820996,24355.37172887096,-24576.247512208756
9619,23059,31211,4892,2080,-2549,5108,-245,-5395,-23342,9,-1,1947,2020-11-02 14:27:28,2020-11-02 14:27:58,4,D7:F2:3B:06:4D:C8,9,9,-38692.930934549775,-2949.7623114686758,4892.0
9620,-779,-23830,8685,11808,6157,-22279,6674,-8465,-32303,9,-1,1972,2020-11-02 14:27:28,2020-11-02 14:27:58,4,D7:F2:3B:06:4D:C8,9,9,22901.399372762746,6264.946198242582,-8954.402375499316
9621,-27648,26095,3839,19996,10507,-20481,-18924,-19215,31443,9,-1,1998,2020-11-02 14:27:28,2020-11-02 14:27:58,4,D7:F2:3B:06:4D:C8,9,9,-16189.445152929797,-34434.06642807944,3506.5345951366535
9622,-18148,-28169,-7990,-28136,-28669,12550,-20968,20977,-30508,9,-1,2023,2020-11-02 14:27:28,2020-11-02 14:27:58,4,D7:F2:3B:06:4D:C8,9,9,-20088.22674271297,26427.426347198983,-9205.261973280512
9623,-2511,-15880,-31288,-24824,-29186,9731,-3046,26608,-11052,9,-1,2049,2020-11-02 14:27:28,2020-11-02 14:27:58,4,D7:F2:3B:06:4D:C8,9,9,317.96841362495616,-29886.16006034887,18550.870543862482
9624,8715,-14113,9695,13309,27381,-13034,-31716,9710,10451,9,-1,2075,2020-11-02 14:27:28,2020-11-02 14:27:58,4,D7:F2:3B:06:4D:C8,9,9,8833.219415611786,-10859.101214079295,-13159.603891380644
9625,-17601,-9489,-1563,754,28406,-2271,25115,-19736,-9774,9,-1,2100,2020-11-02 14:27:28,2020-11-02 14:27:58,4,D7:F2:3B:06:4D:C8,9,9,13013.0362049018,-10976.355843867808,-10604.706130709324
9626,-17321,14095,-14075,-29457,17146,-19949,-16105,10724,11220,9,-1,2126,2020-11-02 14:27:28,2020-11-02 14:27:58,4,D7:F2:3B:06:4D:C8,9,9,7484.68493026755,-22886.827633625257,10815.003622900611
9627,-13540,5636,-12285,3050,11785,-10488,-240,1251,15576,9,-1,2151,2020-11-02 14:27:28,2020-11-02 14:27:58,4,D7:F2:3B:06:4D:C8,9,9,509.82786925876553,-14657.290729999426,-12285.0
9628,31511,23807,-10488,-32550,-29936,-9473,-5114,-27420,-27939,9,-1,2177,2020-11-02 14:27:28,2020-11-02 14:27:58,4,D7:F2:3B:06:4D:C8,9,9,634.0718568255588,-37156.12971386707,-16992.189134030566
9629,9204,14578,4642,14544,31767,-16646,11776,-15385,-31267,9,-1,2203,2020-11-02 14:27:28,2020-11-02 14:27:58,4,D7:F2:3B:06:4D:C8,9,9,5857.658899085487,-16464.99310386547,3656.733284179643
9630,-32266,9974,-6834,21747,-8954,30451,6142,24298,21978,9,1,2228,2020-11-02 14:27:28,2020-11-02 14:27:58,4,D7:F2:3B:06:4D:C8,9,9,-18929.741663799738,-8553.825045966067,-27491.379478389365
9631,-2063,9724,11273,-9471,-2042,5109,-28672,23531,13527,9,1,2279,2020-11-02 14:27:28,2020-11-02 14:27:58,4,D7:F2:3B:06:4D:C8,9,9,10703.945539364895,-4040.515825964006,-9746.407325288881
9632,-8695,-28679,-20972,5393,4356,-6163,-3581,2797,11732,9,1,2281,2020-11-02 14:27:28,2020-11-02 14:27:58,4,D7:F2:3B:06:4D:C8,9,9,29696.13764771113,4028.333999086195,-20972.0
9633,29702,-13335,3063,3369,16890,30448,-6134,4846,-7984,9,1,2305,2020-11-02 14:27:28,2020-11-02 14:27:58,4,D7:F2:3B:06:4D:C8,9,9,12154.147375707202,-27493.623148902538,12875.961545287411
9634,7162,-3357,8763,-25829,-23538,-7695,-8177,29168,13007,9,1,2331,2020-11-02 14:27:28,2020-11-02 14:27:58,4,D7:F2:3B:06:4D:C8,9,9,-2884.5085129941945,-7057.939584306149,9012.156315929522
9635,-22285,15591,-12561,28972,-25350,14836,-26601,-22031,25549,9,1,2356,2020-11-02 14:27:28,2020-11-02 14:27:58,4,D7:F2:3B:06:4D:C8,9,9,-13093.162624307155,-14111.935467279916,-22954.337212404393
9636,-24827,17393,-5636,-26860,-13036,4858,24859,12019,-17202,9,1,2382,2020-11-02 14:27:28,2020-11-02 14:27:58,4,D7:F2:3B:06:4D:C8,9,9,-3901.48565521098,15236.059592293142,26519.837325712895
9637,-8976,11489,15599,-28652,2062,15873,4125,18676,-12335,9,1,2407,2020-11-02 14:27:28,2020-11-02 14:27:58,4,D7:F2:3B:06:4D:C8,9,9,5832.8885654791275,-14862.949548694247,-14176.19976212498
9638,-1029,20957,-25144,-16864,-12045,-15084,17441,-271,-3631,9,1,2433,2020-11-02 14:27:28,2020-11-02 14:27:58,4,D7:F2:3B:06:4D:C8,9,9,-1029.0,-17198.951268598234,27849.823343432236
9639,8472,17640,-11868,522,-10779,30492,-28888,20462,-21300,9,1,2459,2020-11-02 14:27:28,2020-11-02 14:27:58,4,D7:F2:3B:06:4D:C8,9,9,8722.54658247681,-15306.568939953846,-14608.899219412877
9640,28190,-28691,32478,21516,9965,-29411,17456,-23573,21956,9,1,2484,2020-11-02 14:27:28,2020-11-02 14:27:58,4,D7:F2:3B:06:4D:C8,9,9,42003.72163847473,-30048.858689852415,2328.846271184437
9641,-16580,5382,-8738,-28681,28178,31013,-5579,-18714,-5955,9,1,2510,2020-11-02 14:27:28,2020-11-02 14:27:58,4,D7:F2:3B:06:4D:C8,9,9,14063.61008797232,-11941.684794983952,6310.784701662094
9642,9000,-23540,-10516,14065,18444,18710,-16583,-543,21828,9,1,2535,2020-11-02 14:27:28,2020-11-02 14:27:58,4,D7:F2:3B:06:4D:C8,9,9,-8942.94393791117,1038.496283867329,25781.061560606297
9643,16399,-1026,-8992,-13346,19730,-16624,8513,15071,23353,9,1,2561,2020-11-02 14:27:28,2020-11-02 14:27:58,4,D7:F2:3B:06:4D:C8,9,9,13168.295782902736,4518.734802275483,-12530.481353910169
9644,1841,28407,-6150,24267,22562,-5881,-6414,21215,-19469,9,1,2587,2020-11-02 14:27:28,2020-11-02 14:27:58,4,D7:F2:3B:06:4D:C8,9,9,7043.752482834462,-9272.097183159847,26694.253965724583
9645,8206,10218,-15031,-20270,-748,-28170,10232,-2334,17126,9,1,2612,2020-11-02 14:27:28,2020-11-02 14:27:58,4,D7:F2:3B:06:4D:C8,9,9,-19935.88891121991,-99.26026566961991,476.8665632630773
9646,-11297,8693,-2531,-12044,-22775,249,-262,7653,-24609,9,1,2638,2020-11-02 14:27:28,2020-11-02 14:27:58,4,D7:F2:3B:06:4D:C8,9,9,-1197.0712894672724,-11913.30139622753,8138.592579222544
9647,-27128,30716,27672,12557,16130,-10519,15360,-25882,7130,9,1,2663,2020-11-02 14:27:28,2020-11-02 14:27:58,4,D7:F2:3B:06:4D:C8,9,9,48221.682189548366,4872.645824452364,9801.393445813756
9648,18190,-12812,-23577,3610,-10237,9196,15881,15848,-19245,9,1,2689,2020-11-02 14:27:28,2020-11-02 14:27:58,4,D7:F2:3B:06:4D:C8,9,9,12926.710410742318,-25198.13161253442,-15775.065584465876
9649,3335,-22557,9524,-15582,-18168,13548,14606,-20245,14033,9,1,2740,2020-11-02 14:27:28,2020-11-02 14:27:58,4,D7:F2:3B:06:4D:C8,9,9,-724.2848960243919,-164.08897212576994,24700.11206854369
9650,-3590,-30998,5862,-25560,23296,240,1304,21741,21197,9,1,2742,2020-11-02 14:27:28,2020-11-02 14:27:58,4,D7:F2:3B:06:4D:C8,9,9,36.96552008130584,31306.079118715454,-5296.7151861368875
9651,6144,18670,-7432,-21745,11545,15350,24345,4592,3792,9,1,2765,2020-11-02 14:27:28,2020-11-02 14:27:58,4,D7:F2:3B:06:4D:C8,9,9,6144.0,-17828.082546652156,-9271.623197140656
9652,774,20709,32205,-25580,-1019,9981,26139,-20751,-9775,9,1,2791,2020-11-02 14:27:28,2020-11-02 14:27:58,4,D7:F2:3B:06:4D:C8,9,9,11504.659215973474,2138.953848671692,36464.934865670184
9653,-26871,-24081,16818,-28153,-29693,7438,21277,-16912,-18222,9,-1,2817,2020-11-02 14:27:28,2020-11-02 14:27:58,4,D7:F2:3B:06:4D:C8,9,9,-26088.167008370674,-25402.430260764457,-16090.817412125396
9654,-22508,14056,18895,-25609,16117,-6631,-5092,21741,-5422,9,-1,2842,2020-11-02 14:27:28,2020-11-02 14:27:58,4,D7:F2:3B:06:4D:C8,9,9,24949.213665774016,14056.0,-15529.579081853924
9655,-6853,26099,-8471,2801,-19464,14880,3099,-2585,-8494,9,-1,2868,2020-11-02 14:27:28,2020-11-02 14:27:58,4,D7:F2:3B:06:4D:C8,9,9,18258.85953038693,19867.950539741094,-8471.0
9656,-13758,4614,-22518,-17427,-32509,-10733,20244,10980,15319,9,-1,2893,2020-11-02 14:27:28,2020-11-02 14:27:58,4,D7:F2:3B:06:4D:C8,9,9,-3676.9293608922617,11374.608740454209,23973.53437598618
9657,-2281,-18681,3835,6125,259,25608,-23028,19683,-25636,9,-1,2919,2020-11-02 14:27:28,2020-11-02 14:27:58,4,D7:F2:3B:06:4D:C8,9,9,-6985.314829790303,-6153.009208346041,16799.875041521005
9658,-11748,-14343,6394,-8487,-14584,-18941,5124,-29725,-11296,9,-1,2945,2020-11-02 14:27:28,2020-11-02 14:27:58,4,D7:F2:3B:06:4D:C8,9,9,-10556.967044689642,-10104.747814370636,13079.17839259442
9659,18166,3052,-13258,6604,-10988,28156,26364,8934,2017,9,-1,2970,2020-11-02 14:27:28,2020-11-02 14:27:58,4,D7:F2:3B:06:4D:C8,9,9,15163.728193742269,-12028.607813668255,-11851.867588328216
9660,23023,-783,18508,1265,5131,-7433,-14854,-7448,8157,9,-1,2996,2020-11-02 14:27:28,2020-11-02 14:27:58,4,D7:F2:3B:06:4D:C8,9,9,-4536.485411347836,24685.807847186363,15596.437831903173
9661,-30481,-514,248,5632,27140,7930,-24836,-17943,-24870,9,-1,3021,2020-11-02 14:27:28,2020-11-02 14:27:58,4,D7:F2:3B:06:4D:C8,9,9,-19887.38234695541,22799.174209550958,-3755.8940012402354
9662,-20222,9472,-13575,12050,8183,7150,-3328,1002,-1578,9,-1,3047,2020-11-02 14:27:28,2020-11-02 14:27:58,4,D7:F2:3B:06:4D:C8,9,9,-20222.0,9472.0,-13575.0
9663,15622,-18441,-3608,31000,-12,-1298,-32760,-30743,-10543,9,-1,3072,2020-11-02 14:27:28,2020-11-02 14:27:58,4,D7:F2:3B:06:4D:C8,9,9,-8788.399150810277,10408.927091543777,-20286.77663328906
9664,-5878,-11531,16932,-11756,14338,-17942,-25587,24043,-25907,9,-1,3098,2020-11-02 14:27:28,2020-11-02 14:27:58,4,D7:F2:3B:06:4D:C8,9,9,-8309.486357434842,17694.130102774572,8489.856617263384
9665,-21494,-16394,-21521,-18151,25092,24304,-21484,8173,-2359,9,-1,3124,2020-11-02 14:27:28,2020-11-02 14:27:58,4,D7:F2:3B:06:4D:C8,9,9,8261.571590831012,13192.8932958113,30848.058518080376
9666,-23043,16368,32263,17942,17163,12275,24599,-6161,22986,9,1,3149,2020-11-02 14:27:28,2020-11-02 14:27:58,4,D7:F2:3B:06:4D:C8,9,9,107.25332322925442,-20862.607852206867,-37477.09343491959
9667,23280,25827,24818,-14819,-10493,-23557,4891,-29199,-5942,9,1,3175,2020-11-02 14:27:28,2020-11-02 14:27:58,4,D7:F2:3B:06:4D:C8,9,9,38159.07059581792,-11628.213771033294,-15283.828995331514
9668,-32521,-21266,-2883,-23015,11513,32009,19232,-28688,18634,9,1,3200,2020-11-02 14:27:28,2020-11-02 14:27:58,4,D7:F2:3B:06:4D:C8,9,9,6243.684901472962,-22566.97738243317,31143.503603028803
9669,-23543,25321,-22834,-14328,-10502,8986,-23005,16621,-6712,9,1,3226,2020-11-02 14:27:28,2020-11-02 14:27:58,4,D7:F2:3B:06:4D:C8,9,9,22655.15847479408,-33932.37500501165,7221.853432549478
9670,12075,-535,-16417,3837,8447,-26077,26917,3560,15559,9,1,3252,2020-11-02 14:27:28,2020-11-02 14:27:58,4,D7:F2:3B:06:4D:C8,9,9,5954.545347015922,16004.62596715022,11135.756658707658
9671,-720,-6150,30950,-6927,-18943,10014,-20699,-14110,-32571,9,1,3277,2020-11-02 14:27:28,2020-11-02 14:27:58,4,D7:F2:3B:06:4D:C8,9,9,-2262.344969986809,29213.27204974775,11734.987489733528
9672,6707,29443,-29469,16358,-3828,24090,29977,-32546,-10546,9,1,3303,2020-11-02 14:27:28,2020-11-02 14:27:58,4,D7:F2:3B:06:4D:C8,9,9,-34682.035121961904,17170.484791581068,-16811.512448946538
9673,-8417,-15113,-6411,14550,27667,28169,-3850,28896,-7445,9,1,3328,2020-11-02 14:27:28,2020-11-02 14:27:58,4,D7:F2:3B:06:4D:C8,9,9,-10685.571688179072,-11329.586051788016,-9889.82389084438
9674,19995,16876,4379,28624,6169,5123,15859,1252,21992,9,1,3354,2020-11-02 14:27:28,2020-11-02 14:27:58,4,D7:F2:3B:06:4D:C8,9,9,-18241.915566100815,13716.27235962294,13522.996377870268
9675,-2525,13040,28231,20969,3081,27124,-8718,-2843,2787,9,1,3380,2020-11-02 14:27:28,2020-11-02 14:27:58,4,D7:F2:3B:06:4D:C8,9,9,-2525.0,30801.10944063227,4280.492755068484
9676,-17,-30473,-228,-6398,9984,-25616,10488,16357,-19236,9,1,3405,2020-11-02 14:27:28,2020-11-02 14:27:58,4,D7:F2:3B:06:4D:C8,9,9,20890.474728568093,19415.13780180802,10737.620395220869
9677,-32259,-27404,8743,2059,-1535,-18457,28671,-12315,-29483,9,1,3431,2020-11-02 14:27:28,2020-11-02 14:27:58,4,D7:F2:3B:06:4D:C8,9,9,-4195.060226656089,-12029.621348705212,-41300.7509120779
9678,-9744,25065,-5596,31503,19978,-32536,-30457,29415,11726,9,1,3456,2020-11-02 14:27:28,2020-11-02 14:27:58,4,D7:F2:3B:06:4D:C8,9,9,-1236.3100639589466,-27278.735202996406,-2976.091421740681
9679,26650,3296,29233,14872,-22259,9185,-32755,-17942,-27191,9,1,3482,2020-11-02 14:27:28,2020-11-02 14:27:58,4,D7:F2:3B:06:4D:C8,9,9,38809.0086065724,-3478.1518909896913,-7577.447815603502
9680,24068,-29723,-32510,-23516,25859,-8470,8214,1262,13509,9,-1,3533,2020-11-02 14:27:28,2020-11-02 14:27:58,4,D7:F2:3B:06:4D:C8,9,9,-20287.988035639202,17183.836111369455,-42576.270045218334
9681,25586,-22814,-512,19491,-15865,26607,32539,5617,-11836,9,-1,3535,2020-11-02 14:27:28,2020-11-02 14:27:58,4,D7:F2:3B:06:4D:C8,9,9,-16978.460215783107,-20367.88727799935,21731.663363207666
9682,17391,-19485,11502,-23017,7704,5632,12830,-18958,-21561,9,-1,3559,2020-11-02 14:27:28,2020-11-02 14:27:58,4,D7:F2:3B:06:4D:C8,9,9,13569.003560185045,4308.0890003219065,24733.188665212394
9683,16119,31206,12214,-26601,-17147,27152,-23264,32497,-31798,9,-1,3584,2020-11-02 14:27:28,2020-11-02 14:27:58,4,D7:F2:3B:06:4D:C8,9,9,25468.269457268972,-18398.810139607034,19891.441106632614
9684,-16881,-11031,-27190,22012,25596,24603,546,-10259,30154,9,-1,3610,2020-11-02 14:27:28,2020-11-02 14:27:58,4,D7:F2:3B:06:4D:C8,9,9,-6675.055770685291,-16322.679666302773,-28895.69139109682
9685,-23233,-24340,11232,-26382,14076,3878,19745,10472,-31543,9,-1,3635,2020-11-02 14:27:28,2020-11-02 14:27:58,4,D7:F2:3B:06:4D:C8,9,9,-28621.50830838525,-17395.69780723068,11686.088864652003
9686,-11688,24072,-23566,8687,12028,-32232,-29152,1763,-2361,9,-1,3661,2020-11-02 14:27:28,2020-11-02 14:27:58,4,D7:F2:3B:06:4D:C8,9,9,-11688.0,29426.3255851823,16398.44207706468
9687,7468,13834,-7411,23019,22533,-756,-32229,-21792,13002,9,-1,3687,2020-11-02 14:27:28,2020-11-02 14:27:58,4,D7:F2:3B:06:4D:C8,9,9,-6297.970666711266,-12745.601998975562,-9997.934594952829
9688,-12518,-10233,13066,29676,-15352,24837,-30707,25312,15317,9,-1,3712,2020-11-02 14:27:28,2020-11-02 14:27:58,4,D7:F2:3B:06:4D:C8,9,9,8704.115810897694,18064.271902978082,-5482.282149411634
9689,-25075,-1,11272,-14361,9487,18948,516,-4127,-32293,9,-1,3738,2020-11-02 14:27:28,2020-11-02 14:27:58,4,D7:F2:3B:06:4D:C8,9,9,-7111.870376215735,-24045.309849363657,11272.0
9690,9764,18940,-11740,-11301,-12520,-9993,29182,-1308,17884,9,-1,3763,2020-11-02 14:27:28,2020-11-02 14:27:58,4,D7:F2:3B:06:4D:C8,9,9,-8835.765968215805,7204.208699573537,-21492.21981945812
9691,30693,-14349,-29661,-25365,3099,-11788,31486,17385,31447,9,-1,3789,2020-11-02 14:27:28,2020-11-02 14:27:58,4,D7:F2:3B:06:4D:C8,9,9,-39582.744886305634,19191.607476306515,-9623.797625730773
9692,-23284,28396,-7337,8956,-9713,-14097,-29954,-15380,-21292,9,-1,3814,2020-11-02 14:27:28,2020-11-02 14:27:58,4,D7:F2:3B:06:4D:C8,9,9,15175.492599513727,-13079.829623079953,-31637.501835532214
9693,-18,-4130,-21673,31511,-11514,-14612,-20732,-9235,-2353,9,-1,3840,2020-11-02 14:27:28,2020-11-02 14:27:58,4,D7:F2:3B:06:4D:C8,9,9,-18554.84810732,1030.1750762783372,11892.539847589258
9694,18960,-28944,30750,24083,-31221,-11028,-16118,-30737,26829,9,-1,3866,2020-11-02 14:27:28,2020-11-02 14:27:58,4,D7:F2:3B:06:4D:C8,9,9,18285.44083372035,-40033.10340055349,-14345.47042230073
9695,-16390,25822,29968,-22993,17663,-17163,-13808,-10511,14284,9,1,3891,2020-11-02 14:27:28,2020-11-02 14:27:58,4,D7:F2:3B:06:4D:C8,9,9,-23911.055155311253,12587.33406477873,-33216.09956785
9696,14342,10988,20728,12066,-28144,-14092,12567,30707,6348,9,1,3917,2020-11-02 14:27:28,2020-11-02 14:27:58,4,D7:F2:3B:06:4D:C8,9,9,21198.344805791796,-10332.634827877666,14140.223725545842
9697,-20986,10723,-5684,3359,6418,-8699,-15078,-9484,2255,9,1,3942,2020-11-02 14:27:28,2020-11-02 14:27:58,4,D7:F2:3B:06:4D:C8,9,9,-5124.506083431362,-9630.789102372182,-21649.25217337782
9698,-2538,20982,-8011,20499,19205,5650,-23267,15603,19665,9,1,3968,2020-11-02 14:27:28,2020-11-02 14:27:58,4,D7:F2:3B:06:4D:C8,9,9,-18973.945005933783,10434.027500899643,-6479.380373328178
9699,27166,13810,-30781,19196,-14341,2329,-10978,-3857,-30255,9,1,3994,2020-11-02 14:27:28,2020-11-02 14:27:58,4,D7:F2:3B:06:4D:C8,9,9,25388.28462872305,20819.478893750253,-28251.75957712426
9700,-8653,-18195,-13319,-28431,-11271,-28385,-4836,1515,-20015,9,1,4019,2020-11-02 14:27:28,2020-11-02 14:27:58,4,D7:F2:3B:06:4D:C8,9,9,5998.72652643437,19234.024905387138,-13319.0
9701,6225,7168,-20486,24813,-29953,-11491,-25832,-6683,-13613,9,1,4045,2020-11-02 14:27:28,2020-11-02 14:27:58,4,D7:F2:3B:06:4D:C8,9,9,15026.266544170701,6836.065563990241,15404.108748913817
9702,1576,20489,16392,-27401,-24326,17681,-3567,2531,31960,9,1,4070,2020-11-02 14:27:28,2020-11-02 14:27:58,4,D7:F2:3B:06:4D:C8,9,9,20094.45106786309,4300.689861086937,16392.0
9703,-20963,-5368,24830,6384,14336,-32761,8716,29921,-22308,9,1,4096,2020-11-02 14:27:28,2020-11-02 14:27:58,4,D7:F2:3B:06:4D:C8,9,9,10976.856833372176,25599.306603336867,-17577.70771426138
9704,-2271,-17407,-32262,5344,11019,-15103,14852,-31,-3616,9,1,4121,2020-11-02 14:27:28,2020-11-02 14:27:58,4,D7:F2:3B:06:4D:C8,9,9,-2271.0,36579.621568026254,-2402.4110680707345
9705,-2527,-20226,22044,-2091,22549,-21262,32511,-21532,-24097,9,1,4147,2020-11-02 14:27:28,2020-11-02 14:27:58,4,D7:F2:3B:06:4D:C8,9,9,-10925.024420541598,-10912.81147256458,-25748.186891018802
9706,-26132,-11279,24877,22766,10258,-6927,19456,25320,-24103,9,1,4173,2020-11-02 14:27:28,2020-11-02 14:27:58,4,D7:F2:3B:06:4D:C8,9,9,-29928.941114294365,22940.351454450603,-2638.399689847207
9707,17411,17649,23105,3325,25098,-19475,31489,31466,8406,9,1,4198,2020-11-02 14:27:28,2020-11-02 14:27:58,4,D7:F2:3B:06:4D:C8,9,9,-14815.007953561548,27199.402603139286,13754.242413460945
9708,8950,-18973,-1457,-8683,-20734,32236,19975,-28181,17617,9,1,4224,2020-11-02 14:27:28,2020-11-02 14:27:58,4,D7:F2:3B:06:4D:C8,9,9,4037.209989752012,-19756.18064096331,-5966.099226485678
9709,8214,-1799,-22011,-11507,13321,-27413,14606,-15380,21197,9,1,4249,2020-11-02 14:27:28,2020-11-02 14:27:58,4,D7:F2:3B:06:4D:C8,9,9,7226.990802661126,-22003.264566074806,4337.8877778901115
9710,-15613,13035,7957,-12509,-1792,-13838,-28654,30447,22732,9,1,4275,2020-11-02 14:27:28,2020-11-02 14:27:58,4,D7:F2:3B:06:4D:C8,9,9,18948.393341590156,1271.3494791291087,-10785.773188524778
9711,773,28405,5362,-28902,-2799,-14346,30231,23793,-26932,9,1,4301,2020-11-02 14:27:28,2020-11-02 14:27:58,4,D7:F2:3B:06:4D:C8,9,9,-22380.690741887185,5719.609496699528,17394.92302717289
9712,4363,22252,29381,-16874,-20205,-5631,16665,6899,-6449,9,1,4326,2020-11-02 14:27:28,2020-11-02 14:27:58,4,D7:F2:3B:06:4D:C8,9,9,-25358.909152687203,-27091.094535544933,654.7957329769488
9713,26894,28919,29878,778,9216,4872,9243,-4622,30417,9,1,4352,2020-11-02 14:27:28,2020-11-02 14:27:58,4,D7:F2:3B:06:4D:C8,9,9,-1496.761071390949,-28488.77146865826,40477.65170438784
9714,-29145,20202,28114,759,4852,3611,796,-20753,32464,9,1,4377,2020-11-02 14:27:28,2020-11-02 14:27:58,4,D7:F2:3B:06:4D:C8,9,9,26431.372271107706,-18133.134224512876,-31945.591684329753
9715,2362,-1301,-20722,-19211,-17934,27430,27161,-14871,-2864,9,1,4403,2020-11-02 14:27:28,2020-11-02 14:27:58,4,D7:F2:3B:06:4D:C8,9,9,-14194.487732744288,-14832.07095702733,-3898.604638928946
9716,28499,-9452,-22500,20476,-17926,-2279,19989,18660,21972,9,1,4428,2020-11-02 14:27:28,2020-11-02 14:27:58,4,D7:F2:3B:06:4D:C8,9,9,23237.22951576461,-15971.683957267069,-24753.177190026647
9717,24365,22296,-17411,22011,18175,-2033,6416,-26655,-25127,9,1,4480,2020-11-02 14:27:28,2020-11-02 14:27:58,4,D7:F2:3B:06:4D:C8,9,9,-14422.081051917496,-24145.825181693588,-24553.827938368675
9718,29462,5135,30954,19174,-22770,-5373,-11514,7138,-31520,9,-1,4482,2020-11-02 14:27:28,2020-11-02 14:27:58,4,D7:F2:3B:06:4D:C8,9,9,-24614.902433894003,8480.690078722924,-34274.075610562126
9719,-3311,30724,-489,11480,1310,-19208,-23040,-3867,2529,9,-1,4505,2020-11-02 14:27:28,2020-11-02 14:27:58,4,D7:F2:3B:06:4D:C8,9,9,-3311.0,-19712.470187208037,23571.63159644309
9720,-21762,20982,-10178,20968,10259,5618,3327,-13335,24797,9,-1,4531,2020-11-02 14:27:28,2020-11-02 14:27:58,4,D7:F2:3B:06:4D:C8,9,9,3910.3507205275437,-27572.57355830016,-15552.58810020367
9721,-9508,17658,5863,19197,-1015,21492,2048,16108,15066,9,-1,4557,2020-11-02 14:27:28,2020-11-02 14:27:58,4,D7:F2:3B:06:4D:C8,9,9,-19921.51870429747,1097.1744975061288,6205.731031582685
9722,-25075,-2075,-29641,-24296,-15872,7917,-23039,19182,-4649,9,-1,4582,2020-11-02 14:27:28,2020-11-02 14:27:58,4,D7:F2:3B:06:4D:C8,9,9,27336.602749746802,23788.693276714297,-14087.524739603603
9723,30977,-28188,-30681,25376,-12804,-6929,-15095,-14611,5331,9,-1,4608,2020-11-02 14:27:28,2020-11-02 14:27:58,4,D7:F2:3B:06:4D:C8,9,9,-47807.16242744386,-16167.807323847892,12187.651987767444
9724,12791,-28184,20780,-3565,-31738,-1557,4112,4591,-5169,9,-1,4633,2020-11-02 14:27:28,2020-11-02 14:27:58,4,D7:F2:3B:06:4D:C8,9,9,12791.0,-28184.0,20780.0
9725,8172,9970,7402,-6115,-4604,8691,14357,-28175,3279,9,-1,4659,2020-11-02 14:27:28,2020-11-02 14:27:58,4,D7:F2:3B:06:4D:C8,9,9,-811.8278284054804,-10879.603513738704,-10096.893134072028
9726,16615,-4628,-16388,-22760,17158,26877,25880,12531,-23089,9,-1,4684,2020-11-02 14:27:28,2020-11-02 14:27:58,4,D7:F2:3B:06:4D:C8,9,9,3167.9104050609862,10678.501087588593,-21023.25167969683
9727,-25333,-24584,28349,-19693,-31234,25351,32540,20978,-16689,9,-1,4710,2020-11-02 14:27:28,2020-11-02 14:27:58,4,D7:F2:3B:06:4D:C8,9,9,6084.371820411099,-35272.38024116047,-27724.345937712933
9728,-5610,-16900,-16708,20226,18683,9483,12318,-26128,-28721,9,-1,4735,2020-11-02 14:27:28,2020-11-02 14:27:58,4,D7:F2:3B:06:4D:C8,9,9,-22078.64228990356,3714.5483453737543,9745.514312973082
9729,17171,26600,-14883,21235,-11792,-4838,-18146,23533,30669,9,-1,4761,2020-11-02 14:27:28,2020-11-02 14:27:58,4,D7:F2:3B:06:4D:C8,9,9,-32807.08440648548,10665.574348001395,5817.874747104101
9730,13632,-1550,-16904,23536,9718,7972,-484,-25369,-19508,9,-1,4787,2020-11-02 14:27:28,2020-11-02 14:27:58,4,D7:F2:3B:06:4D:C8,9,9,21267.52576587595,4597.28070982614,732.4601510408193
9731,-15797,-29937,-23798,-19723,-9988,32533,-14313,5347,976,9,-1,4812,2020-11-02 14:27:28,2020-11-02 14:27:58,4,D7:F2:3B:06:4D:C8,9,9,-15797.0,-9181.272317885772,37125.09948302933
9732,19748,-23541,-30213,16881,-2552,-22516,7950,-23583,9688,9,-1,4838,2020-11-02 14:27:28,2020-11-02 14:27:58,4,D7:F2:3B:06:4D:C8,9,9,-32439.393883283934,-27008.403031950824,8672.914397644574
9733,28175,-1026,-18961,26071,21019,-12798,5379,-5405,-13858,9,-1,4863,2020-11-02 14:27:28,2020-11-02 14:27:58,4,D7:F2:3B:06:4D:C8,9,9,-12657.876279638887,-25192.488346516213,-18961.0
9734,-1263,999,24637,6359,8727,11260,12797,-28440,-30499,9,-1,4889,2020-11-02 14:27:28,2020-11-02 14:27:58,4,D7:F2:3B:06:4D:C8,9,9,20109.01716878119,-12462.241612783091,7063.632315620684
9735,8950,495,5700,18168,8192,-7692,29180,-23575,-27174,9,-1,4940,2020-11-02 14:27:28,2020-11-02 14:27:58,4,D7:F2:3B:06:4D:C8,9,9,-983.9861413361996,-7437.689017524954,-7519.9786138158
9736,4366,29684,-2998,5380,-23286,-24329,24829,-2070,-9000,9,-1,4942,2020-11-02 14:27:28,2020-11-02 14:27:58,4,D7:F2:3B:06:4D:C8,9,9,-15877.105745167997,-15383.105393208189,-20505.301695371432
9737,-19960,-8981,6990,-32485,16642,-30478,-5374,14059,-26155,9,-1,4966,2020-11-02 14:27:28,2020-11-02 14:27:58,4,D7:F2:3B:06:4D:C8,9,9,-2787.0624946306734,16966.823352246414,15240.710251976081
9738,29179,25835,18742,-28648,-30459,19698,29962,-26645,7378,9,-1,4991,2020-11-02 14:27:28,2020-11-02 14:27:58,4,D7:F2:3B:06:4D:C8,9,9,-39550.87999413053,-14770.150959615843,-9364.526807054615
9739,4082,-2322,8436,13602,1,-10505,-4080,-12820,21968,9,-1,5017,2020-11-02 14:27:28,2020-11-02 14:27:58,4,D7:F2:3B:06:4D:C8,9,9,9603.459389971154,976.5323846437607,201.13738319073946
9740,11524,21239,-25859,24601,-24569,6906,-22252,7150,-14640,9,-1,5042,2020-11-02 14:27:28,2020-11-02 14:27:58,4,D7:F2:3B:06:4D:C8,9,9,-32943.64617329312,-12687.588390008252,2515.324164913367
9741,-6910,3325,-8511,30234,12546,-22532,32281,-30738,-30256,9,-1,5068,2020-11-02 14:27:28,2020-11-02 14:27:58,4,D7:F2:3B:06:4D:C8,9,9,4841.73998534002,-9078.988541378629,5036.900533053553
9742,3839,-528,-1335,2315,-17409,-13565,-5349,17390,-10544,9,-1,5094,2020-11-02 14:27:28,2020-11-02 14:27:58,4,D7:F2:3B:06:4D:C8,9,9,-2599.549829766613,3071.32828656833,779.8802720197643
9743,-12540,6626,-19246,2040,-6921,27920,-4580,7916,-5937,9,-1,5119,2020-11-02 14:27:28,2020-11-02 14:27:58,4,D7:F2:3B:06:4D:C8,9,9,-6835.341727855832,22908.918952972468,153.38797075280308
9744,-25544,24804,-24079,-23059,2553,-30944,11034,32487,18384,9,-1,5145,2020-11-02 14:27:28,2020-11-02 14:27:58,4,D7:F2:3B:06:4D:C8,9,9,9886.296397472595,-35412.98806367183,-22264.635926588988
9745,-13481,-29431,-7928,23017,-29184,-32492,-32495,-30749,-7723,9,-1,5170,2020-11-02 14:27:28,2020-11-02 14:27:58,4,D7:F2:3B:06:4D:C8,9,9,-18481.25885595508,27401.942946333736,4283.795030700307
9746,-26070,15118,-17656,-2577,21766,-4087,-1785,227,2013,9,-1,5196,2020-11-02 14:27:28,2020-11-02 14:27:58,4,D7:F2:3B:06:4D:C8,9,9,-26070.0,15118.0,-17656.0
9747,-3306,-5366,-7932,-7447,31497,6914,-18431,25316,20448,9,-1,5222,2020-11-02 14:27:28,2020-11-02 14:27:58,4,D7:F2:3B:06:4D:C8,9,9,3719.7355551556716,-4765.556264872748,-8129.775943163673
9748,2323,23806,-31716,-14118,-24300,-29441,19709,-15642,-6689,9,-1,5247,2020-11-02 14:27:28,2020-11-02 14:27:58,4,D7:F2:3B:06:4D:C8,9,9,-33664.17894267785,17093.080131060604,-12352.177490163689
9749,-11017,7926,5184,20471,-18679,-28685,12285,17897,-13349,9,-1,5273,2020-11-02 14:27:28,2020-11-02 14:27:58,4,D7:F2:3B:06:4D:C8,9,9,-12120.81795606648,-7231.223758193544,-3444.5313229572535
9750,-14067,-30218,2615,22525,3599,-20491,21503,-2326,-15144,9,-1,5298,2020-11-02 14:27:28,2020-11-02 14:27:58,4,D7:F2:3B:06:4D:C8,9,9,32720.552567627095,495.3775801169862,-6853.194782163233
9751,-11770,31475,-24006,-2804,-27385,-28178,-17149,-26644,5333,9,-1,5324,2020-11-02 14:27:28,2020-11-02 14:27:58,4,D7:F2:3B:06:4D:C8,9,9,-6405.932519449125,-34926.815708698625,21085.021555760082
9752,-14829,-18443,-7964,-28905,19199,-14868,31754,-20499,-30511,9,-1,5349,2020-11-02 14:27:28,2020-11-02 14:27:58,4,D7:F2:3B:06:4D:C8,9,9,15886.680919110533,8339.741736756649,-17364.64405447369
9753,18177,-32021,14095,-28638,-3070,-14094,16911,3824,-4657,9,1,5375,2020-11-02 14:27:28,2020-11-02 14:27:58,4,D7:F2:3B:06:4D:C8,9,9,18177.0,508.8906219680648,-34982.202565517124
9754,23310,26617,-29977,-232,32012,12789,-13548,-16399,-306,9,1,5401,2020-11-02 14:27:28,2020-11-02 14:27:58,4,D7:F2:3B:06:4D:C8,9,9,963.7991674266086,-38334.58931232875,26076.26643942645
9755,11778,14583,-11793,-15077,12041,11261,-28649,-12813,26576,9,1,5426,2020-11-02 14:27:28,2020-11-02 14:27:58,4,D7:F2:3B:06:4D:C8,9,9,21215.96844401749,934.8492321958784,6282.416883295537
9756,6142,-9481,4296,9237,15105,-15101,30491,-7949,-12848,9,1,5452,2020-11-02 14:27:28,2020-11-02 14:27:58,4,D7:F2:3B:06:4D:C8,9,9,3529.7919207959917,4276.1185498818395,10738.925465019292
9757,-31233,1517,9682,17924,-518,4371,14109,-2063,721,9,1,5477,2020-11-02 14:27:28,2020-11-02 14:27:58,4,D7:F2:3B:06:4D:C8,9,9,-31233.0,-9435.112437568265,-2649.7294749548737
9758,-19934,-11543,21477,10234,-17164,26657,28957,15085,27088,9,1,5503,2020-11-02 14:27:28,2020-11-02 14:27:58,4,D7:F2:3B:06:4D:C8,9,9,-2513.877271575064,-29409.01130002022,10984.407558841818
9759,16449,-2573,8433,1529,-11276,22307,-2788,14055,-6193,9,1,5528,2020-11-02 14:27:28,2020-11-02 14:27:58,4,D7:F2:3B:06:4D:C8,9,9,-1720.4868961616403,-2082.649259343346,-18466.399646457692
9760,26424,-5878,24317,757,-26885,29207,-17382,-19742,-16944,9,1,5554,2020-11-02 14:27:28,2020-11-02 14:27:58,4,D7:F2:3B:06:4D:C8,9,9,17932.888831885266,16954.44472897199,26740.483374005762
9761,-10722,-1785,30208,-1295,-26111,3598,-6383,28128,-22057,9,1,5580,2020-11-02 14:27:28,2020-11-02 14:27:58,4,D7:F2:3B:06:4D:C8,9,9,9866.681766445832,-23295.45906851972,-19764.63889643845
9762,5393,-15617,-14335,-31515,1035,12297,28419,-24864,-2590,9,1,5606,2020-11-02 14:27:28,2020-11-02 14:27:58,4,D7:F2:3B:06:4D:C8,9,9,12510.762199350187,-640.8113432121227,-17931.468233631094
9763,-22788,21759,15635,-25381,-17135,11783,-17415,-6942,-11033,9,1,5631,2020-11-02 14:27:28,2020-11-02 14:27:58,4,D7:F2:3B:06:4D:C8,9,9,-14488.772870410434,-13220.290481851282,-29197.596310058318
9764,17931,29952,-32188,2782,21526,24567,-1545,-1819,-29725,9,-1,5656,2020-11-02 14:27:28,2020-11-02 14:27:58,4,D7:F2:3B:06:4D:C8,9,9,-23635.353227169217,25690.720947979287,-32188.0
9765,-14338,-23811,22305,-29453,-19951,18170,18169,-13080,-4898,9,-1,5682,2020-11-02 14:27:28,2020-11-02 14:27:58,4,D7:F2:3B:06:4D:C8,9,9,29101.050427144342,20425.029556777867,-2449.9023738819833
9766,-27375,26876,-21732,-8696,-25080,-17427,20733,32746,20186,9,-1,5733,2020-11-02 14:27:28,2020-11-02 14:27:58,4,D7:F2:3B:06:4D:C8,9,9,35034.4220870217,18784.142768799724,-19071.83982917628
9767,18709,15084,-10507,27422,15105,-11538,-9980,-24085,-18987,9,-1,5735,2020-11-02 14:27:28,2020-11-02 14:27:58,4,D7:F2:3B:06:4D:C8,9,9,25772.175605006665,4372.139485525121,-2151.7776148597395
9768,-25331,13535,5684,297,-1785,-11792,-10998,24558,3283,9,-1,5759,2020-11-02 14:27:28,2020-11-02 14:27:58,4,D7:F2:3B:06:4D:C8,9,9,22852.704895275558,12095.912787573356,-13733.405069569164
9769,15885,-7451,8938,9261,-15612,-5392,-8429,-13073,-23088,9,-1,5784,2020-11-02 14:27:28,2020-11-02 14:27:58,4,D7:F2:3B:06:4D:C8,9,9,8272.448915598183,-14925.388776734017,9825.366598868495
9770,5873,-18976,-526,-3817,14873,27129,10519,-2574,-27950,9,-1,5810,2020-11-02 14:27:28,2020-11-02 14:27:58,4,D7:F2:3B:06:4D:C8,9,9,3585.5067148170983,10857.051400657248,-16251.952420601287
9771,-28678,14562,-10545,8982,775,6154,16153,-31245,-31275,9,-1,5836,2020-11-02 14:27:28,2020-11-02 14:27:58,4,D7:F2:3B:06:4D:C8,9,9,-895.8256825401368,9411.131536138426,32500.840797677873
9772,-28888,-25873,-23117,17163,-24585,8730,-7909,-7697,4054,9,-1,5861,2020-11-02 14:27:28,2020-11-02 14:27:58,4,D7:F2:3B:06:4D:C8,9,9,-23418.122254946284,-33431.52631553052,-19293.754436769937
9773,-4040,-29705,5070,22514,9976,16665,-6373,17643,31445,9,-1,5887,2020-11-02 14:27:28,2020-11-02 14:27:58,4,D7:F2:3B:06:4D:C8,9,9,-9054.630257628174,-10931.0211568543,-26887.543070463842
9774,-20175,-22282,-21488,21997,6648,-14313,-26344,4071,-2859,9,-1,5912,2020-11-02 14:27:28,2020-11-02 14:27:58,4,D7:F2:3B:06:4D:C8,9,9,-20175.0,30826.65917925976,-2817.5790753339643
9775,-1738,24580,31254,14833,-8710,28946,22548,-30493,-1833,9,-1,5938,2020-11-02 14:27:28,2020-11-02 14:27:58,4,D7:F2:3B:06:4D:C8,9,9,-26837.04788166708,-28744.58029834204,-6126.2977783711285
9776,18450,8710,10504,-28424,17143,17932,-26096,30689,13274,9,-1,5963,2020-11-02 14:27:28,2020-11-02 14:27:58,4,D7:F2:3B:06:4D:C8,9,9,10117.940202107546,10675.25202100334,17614.39457814659
9777,-21223,25860,-8189,2024,-3582,1547,9990,5856,20962,9,-1,5989,2020-11-02 14:27:28,2020-11-02 14:27:58,4,D7:F2:3B:06:4D:C8,9,9,-6033.782831643082,-20213.8259746685,27225.16766167633
9778,26378,-27394,26896,19412,4373,-22010,-16135,-9247,31209,9,-1,6015,2020-11-02 14:27:28,2020-11-02 14:27:58,4,D7:F2:3B:06:4D:C8,9,9,35152.27775276953,7572.4495386528215,29607.43678160441
9779,-8707,-12813,-6074,-18480,-29130,-2316,-6408,-10521,7650,9,-1,6040,2020-11-02 14:27:28,2020-11-02 14:27:58,4,D7:F2:3B:06:4D:C8,9,9,4174.59475712259,-15771.1483975073,-3274.4359571699533
9780,-5130,21239,9248,-27414,19232,-266,2297,22510,-30500,9,-1,6066,2020-11-02 14:27:28,2020-11-02 14:27:58,4,D7:F2:3B:06:4D:C8,9,9,-18555.767216363318,12146.223775313267,-8431.504967213801
9781,18688,3064,11532,-12777,22776,25832,7933,-530,11480,9,-1,6091,2020-11-02 14:27:28,2020-11-02 14:27:58,4,D7:F2:3B:06:4D:C8,9,9,-458.60165143254926,20342.248672245583,8809.033288722781
9782,-29427,27634,-10005,31519,27141,-21775,-765,25071,29140,9,-1,6117,2020-11-02 14:27:28,2020-11-02 14:27:58,4,D7:F2:3B:06:4D:C8,9,9,34102.926415970105,-17866.759254668243,-15730.722602685964
9783,11781,-16145,-4575,-13799,2065,22003,1800,26610,-27950,9,-1,6142,2020-11-02 14:27:28,2020-11-02 14:27:58,4,D7:F2:3B:06:4D:C8,9,9,14988.851348445874,7345.592834445188,11906.309762673725
9784,-14066,-4631,-22294,-23257,-26101,-4869,-17395,28404,29138,9,-1,6168,2020-11-02 14:27:28,2020-11-02 14:27:58,4,D7:F2:3B:06:4D:C8,9,9,-890.9228353107783,8083.041882924654,-25498.855727667615
9785,-11529,-20514,28899,-17377,-25078,-20481,19218,24566,15315,9,-1,6194,2020-11-02 14:27:28,2020-11-02 14:27:58,4,D7:F2:3B:06:4D:C8,9,9,-27816.485667862875,21778.322175843452,11867.689172486134
9786,21513,29423,13003,13337,14842,-6388,17174,-24331,7636,9,-1,6219,2020-11-02 14:27:28,2020-11-02 14:27:58,4,D7:F2:3B:06:4D:C8,9,9,21382.022539527894,-11244.688729317502,-30231.873817212865
9787,31785,-11011,24243,-1790,10736,-16616,30745,-16655,22995,9,-1,6245,2020-11-02 14:27:28,2020-11-02 14:27:58,4,D7:F2:3B:06:4D:C8,9,9,34238.556784935965,8855.021542796596,21646.27491651447
9788,2360,9719,17907,22509,-785,-17891,26136,-28948,29394,9,-1,6270,2020-11-02 14:27:28,2020-11-02 14:27:58,4,D7:F2:3B:06:4D:C8,9,9,1908.9144152651297,18926.722828727234,-7669.70786404073
9789,-5567,-4355,-29692,19952,-13584,10520,-8939,23783,28370,9,-1,6296,2020-11-02 14:27:28,2020-11-02 14:27:58,4,D7:F2:3B:06:4D:C8,9,9,-29191.109742535536,8025.88468940016,3877.713882134576
9790,-9934,2821,-10997,-16,-7940,-495,28433,3300,-15404,9,-1,6322,2020-11-02 14:27:28,2020-11-02 14:27:58,4,D7:F2:3B:06:4D:C8,9,9,-5110.356608389397,13263.711499011137,5053.179059373475
9791,31770,5890,27379,28903,-27382,-27897,2569,-27933,-22822,9,1,6347,2020-11-02 14:27:28,2020-11-02 14:27:58,4,D7:F2:3B:06:4D:C8,9,9,876.5011967428472,-5824.597826601921,-41939.723971557716
9792,6420,-24081,-22778,16849,29718,12797,20224,30950,-26403,9,1,6373,2020-11-02 14:27:28,2020-11-02 14:27:58,4,D7:F2:3B:06:4D:C8,9,9,-9661.017432741497,-30204.469413815863,11588.917749044846
9793,-11037,16874,29009,22492,-28652,4855,-29701,-6679,7387,9,1,6398,2020-11-02 14:27:28,2020-11-02 14:27:58,4,D7:F2:3B:06:4D:C8,9,9,5060.042555450864,-34745.43671200422,3901.2719757965506
9794,25322,24822,28703,14337,25600,32247,-28421,19947,-552,9,1,6424,2020-11-02 14:27:28,2020-11-02 14:27:58,4,D7:F2:3B:06:4D:C8,9,9,-25065.228705349033,-37947.24397990004,-3597.0211673671074
9795,-17403,-272,-1746,-3313,22526,5873,-2307,-27669,-2602,9,1,6449,2020-11-02 14:27:28,2020-11-02 14:27:58,4,D7:F2:3B:06:4D:C8,9,9,10053.982777081796,-272.0,14311.89558787174
9796,28675,9196,29497,-18664,-24571,18928,-23549,-9749,6867,9,1,6475,2020-11-02 14:27:28,2020-11-02 14:27:58,4,D7:F2:3B:06:4D:C8,9,9,37815.20764251343,6452.110302397844,17472.131913400997
9797,18709,-14358,-6090,-19692,-15347,-3857,-3320,-16659,9424,9,1,6501,2020-11-02 14:27:28,2020-11-02 14:27:58,4,D7:F2:3B:06:4D:C8,9,9,10867.203083948765,-9649.34604612735,19546.379793053773
9798,-17927,8935,-4096,-17110,26114,-9481,-2801,-28177,9422,9,1,6526,2020-11-02 14:27:28,2020-11-02 14:27:58,4,D7:F2:3B:06:4D:C8,9,9,-2862.2146433835887,12079.40324225309,16244.522604442584
9799,-16386,25068,27109,29730,-11252,7163,-10476,14577,17615,9,1,6552,2020-11-02 14:27:28,2020-11-02 14:27:58,4,D7:F2:3B:06:4D:C8,9,9,-6077.743111556629,-35856.881840689246,17582.62108824438
9800,20728,7928,-2382,-1772,-4604,255,-8936,2546,15824,9,1,6577,2020-11-02 14:27:28,2020-11-02 14:27:58,4,D7:F2:3B:06:4D:C8,9,9,-10698.301213936898,17899.46316048677,-7958.182060134912
9801,19476,-25860,-29493,-3842,-25352,31760,31258,12016,-6449,9,1,6603,2020-11-02 14:27:28,2020-11-02 14:27:58,4,D7:F2:3B:06:4D:C8,9,9,-26276.967361350355,-24996.658349806494,-24547.49035306008
9802,18729,12780,9186,-3341,-10512,14371,-2279,19947,1743,9,1,6629,2020-11-02 14:27:28,2020-11-02 14:27:58,4,D7:F2:3B:06:4D:C8,9,9,-17245.2410747918,12780.0,-11737.107704724944
9803,-30653,5623,-29963,-7695,32750,-19683,5656,19429,-12850,9,1,6680,2020-11-02 14:27:28,2020-11-02 14:27:58,4,D7:F2:3B:06:4D:C8,9,9,-5755.885883383064,-26088.897642341188,33988.896782698255
9804,23880,-31733,-27905,18677,-3081,-8944,-10987,9697,21711,9,1,6682,2020-11-02 14:27:28,2020-11-02 14:27:58,4,D7:F2:3B:06:4D:C8,9,9,-16724.488166663145,43421.360218050104,-13813.170757558884
9805,14880,-5629,-32502,-27919,2312,-13814,17930,21472,-6696,9,-1,6705,2020-11-02 14:27:28,2020-11-02 14:27:58,4,D7:F2:3B:06:4D:C8,9,9,2982.3837735736506,14158.297625641668,-33168.17812860505
9806,-22767,-27395,-14833,27616,-12784,18945,-27136,13026,-7458,9,-1,6731,2020-11-02 14:27:28,2020-11-02 14:27:58,4,D7:F2:3B:06:4D:C8,9,9,24210.48308354446,16212.77434565289,25295.03231621473
9807,-24087,-13325,-23740,-1573,1816,30207,-12037,-13595,-803,9,-1,6757,2020-11-02 14:27:28,2020-11-02 14:27:58,4,D7:F2:3B:06:4D:C8,9,9,-9976.917391397907,-16041.56431585101,-31055.693965288196
9808,24825,-12555,3124,16643,16646,23035,-16901,32488,-16677,9,-1,6782,2020-11-02 14:27:28,2020-11-02 14:27:58,4,D7:F2:3B:06:4D:C8,9,9,8440.246499186833,-938.7894763522772,26674.874682968137
9809,16921,3325,2091,18942,18191,16636,-29699,-19991,15322,9,-1,6808,2020-11-02 14:27:28,2020-11-02 14:27:58,4,D7:F2:3B:06:4D:C8,9,9,8158.843714952749,-15275.573778160628,-1355.8252036849976
9810,-31475,-7946,-12740,-25327,-31744,-16659,-2558,26090,21718,9,-1,6833,2020-11-02 14:27:28,2020-11-02 14:27:58,4,D7:F2:3B:06:4D:C8,9,9,-28791.37948934889,12130.435075851266,-15492.938810014624
9811,-27861,-9733,5617,19731,-13055,9968,20746,-22,26322,9,-1,6859,2020-11-02 14:27:28,2020-11-02 14:27:58,4,D7:F2:3B:06:4D:C8,9,9,24903.513295821205,15305.152227836452,-6934.3088918513895
9812,13309,-13589,-18670,-31450,-258,-3092,-8432,20461,29647,9,-1,6884,2020-11-02 14:27:28,2020-11-02 14:27:58,4,D7:F2:3B:06:4D:C8,9,9,-25789.08190441413,5913.179213062443,-3211.988188276193
9813,32013,-29203,10743,32287,23055,3576,19990,13039,-27697,9,-1,6910,2020-11-02 14:27:28,2020-11-02 14:27:58,4,D7:F2:3B:06:4D:C8,9,9,-3253.774257896809,-38143.4674160049,-22968.4190479628
9814,27663,-19735,32440,-25569,-3319,-31745,11034,31216,24785,9,-1,6935,2020-11-02 14:27:28,2020-11-02 14:27:58,4,D7:F2:3B:06:4D:C8,9,9,-33280.20593465631,19542.21145903542,26787.96853509447
9815,16130,-21002,-29256,21769,-7682,-20474,-9188,17136,-4911,9,-1,6961,2020-11-02 14:27:28,2020-11-02 14:27:58,4,D7:F2:3B:06:4D:C8,9,9,-5016.163796452443,-35965.504159382486,-15443.28499149713
9816,24600,12777,7377,16629,7415,-2536,-21475,31725,-8496,9,-1,6987,2020-11-02 14:27:28,2020-11-02 14:27:58,4,D7:F2:3B:06:4D:C8,9,9,-1279.5566560739426,-19491.647390215625,21006.434128128392
9817,-17863,29932,29964,25832,5115,31778,-25319,18152,-1327,9,-1,7012,2020-11-02 14:27:28,2020-11-02 14:27:58,4,D7:F2:3B:06:4D:C8,9,9,18117.02772326607,-42241.69082909639,-515.3167699991063
9818,11858,-4093,-12775,11503,-19208,20505,-22510,28131,16598,9,-1,7038,2020-11-02 14:27:28,2020-11-02 14:27:58,4,D7:F2:3B:06:4D:C8,9,9,5345.313049725899,-17084.620049752335,329.88506487945233
9819,-18923,23045,-24813,17914,-21256,-1013,20238,737,13529,9,-1,7063,2020-11-02 14:27:28,2020-11-02 14:27:58,4,D7:F2:3B:06:4D:C8,9,9,25435.795311433016,-9169.68859704577,27816.79440388649
9820,-16873,-24314,-29438,22249,14,26631,25858,24289,-5918,9,1,7089,2020-11-02 14:27:28,2020-11-02 14:27:58,4,D7:F2:3B:06:4D:C8,9,9,-14806.973692009296,11241.073394428557,-37374.54170990214
9821,-14308,-30465,-7428,-31788,-3044,-1279,-22533,32228,-29468,9,1,7140,2020-11-02 14:27:28,2020-11-02 14:27:58,4,D7:F2:3B:06:4D:C8,9,9,-32237.080407214748,-6349.231762212742,-10414.805607810442
9822,11004,12526,25179,3036,-19429,-25868,-5896,3817,-12065,9,1,7142,2020-11-02 14:27:28,2020-11-02 14:27:58,4,D7:F2:3B:06:4D:C8,9,9,20840.334014644304,-21639.387171115548,3064.0062037501793
9823,-5397,16372,15638,25089,-13816,9717,-10758,-278,-10277,9,1,7166,2020-11-02 14:27:28,2020-11-02 14:27:58,4,D7:F2:3B:06:4D:C8,9,9,15600.349306186788,16430.637481383317,-5327.315504108912
9824,-3316,1014,28159,18966,-17663,-25105,15103,14572,-28200,9,1,7191,2020-11-02 14:27:28,2020-11-02 14:27:58,4,D7:F2:3B:06:4D:C8,9,9,25212.037853061527,10627.115072385417,7508.056042283618
9825,-3311,-11545,-18984,-3035,-29441,-17168,21254,9709,1237,9,1,7217,2020-11-02 14:27:28,2020-11-02 14:27:58,4,D7:F2:3B:06:4D:C8,9,9,12654.729338695994,14108.485606260661,12060.284460255596
9826,-17664,-27927,-27630,-19419,13832,29933,-26356,28399,29650,9,1,7242,2020-11-02 14:27:28,2020-11-02 14:27:58,4,D7:F2:3B:06:4D:C8,9,9,41491.330206994004,-2193.7551433517438,-11358.172433327658
9827,-29949,11502,-16416,-27357,20489,-18442,28179,10993,18897,9,1,7268,2020-11-02 14:27:28,2020-11-02 14:27:58,4,D7:F2:3B:06:4D:C8,9,9,17146.456432507708,17699.296388976974,26295.581380590575
9828,22778,-15899,-6687,-18663,2575,-10751,27158,4339,6355,9,1,7294,2020-11-02 14:27:28,2020-11-02 14:27:58,4,D7:F2:3B:06:4D:C8,9,9,7820.668327037841,22047.670334951556,16403.317765615724
9829,-6646,18423,-843,-243,17411,-24824,-21480,24562,213,9,1,7319,2020-11-02 14:27:28,2020-11-02 14:27:58,4,D7:F2:3B:06:4D:C8,9,9,5680.091558182048,-18357.595931664473,-3875.838683485802
9830,18687,27371,22973,19188,-7684,2061,25624,26352,-22059,9,1,7345,2020-11-02 14:27:28,2020-11-02 14:27:58,4,D7:F2:3B:06:4D:C8,9,9,-14749.236220269882,-1592.4933954007247,37497.4443756409
9831,-27612,-22807,28909,-4633,6904,-31201,4372,20716,24791,9,-1,7370,2020-11-02 14:27:28,2020-11-02 14:27:58,4,D7:F2:3B:06:4D:C8,9,9,-37794.81222749212,-8867.535792367291,-24723.087421673223
9832,-5822,-14091,2057,14057,-30982,-16867,-9717,9192,-18468,9,-1,7396,2020-11-02 14:27:28,2020-11-02 14:27:58,4,D7:F2:3B:06:4D:C8,9,9,-8519.443884635124,4727.5408678796575,11905.992072863179
9833,26176,17675,-465,-2321,9475,4871,20739,27367,-18462,9,-1,7422,2020-11-02 14:27:28,2020-11-02 14:27:58,4,D7:F2:3B:06:4D:C8,9,9,16692.17857235052,19988.12820933756,17878.778794868682
9834,7432,-17660,-23794,-3343,779,-21246,17664,-25880,-6173,9,-1,7447,2020-11-02 14:27:28,2020-11-02 14:27:58,4,D7:F2:3B:06:4D:C8,9,9,23525.43085209038,1934.305079306554,-19392.710668797255
9835,-11245,16902,-22040,-19230,-30961,-29443,29181,25834,-32541,9,-1,7473,2020-11-02 14:27:28,2020-11-02 14:27:58,4,D7:F2:3B:06:4D:C8,9,9,22575.580029041896,18712.536325222107,6170.364626954206
9836,26420,-6672,-5816,17876,31514,14072,16889,-13843,-16416,9,-1,7498,2020-11-02 14:27:28,2020-11-02 14:27:58,4,D7:F2:3B:06:4D:C8,9,9,10529.007904940177,3626.110148160944,25541.126790553146
9837,17400,-10250,8011,3589,31489,14576,-14599,27375,-20260,9,-1,7524,2020-11-02 14:27:28,2020-11-02 14:27:58,4,D7:F2:3B:06:4D:C8,9,9,17374.792650838524,-9189.924078440532,9255.2956069953
9838,16651,-28684,-17856,-1015,4359,-11531,-9220,-32273,25306,9,-1,7549,2020-11-02 14:27:28,2020-11-02 14:27:58,4,D7:F2:3B:06:4D:C8,9,9,-35269.16741108301,5861.823201224688,-11857.033857022747
9839,-7185,-1558,-2740,22040,-32513,-5652,-21246,10223,-24874,9,-1,7575,2020-11-02 14:27:28,2020-11-02 14:27:58,4,D7:F2:3B:06:4D:C8,9,9,49.91575900893622,-1825.9427928260109,7630.3755041498
9840,-5363,15617,-18935,-11501,-13314,31468,266,-3346,10195,9,-1,7601,2020-11-02 14:27:28,2020-11-02 14:27:58,4,D7:F2:3B:06:4D:C8,9,9,-16038.893636115754,3925.0922192179905,-18935.0
9841,31978,-11796,-32245,-222,-7690,-30993,8976,-27664,5840,9,-1,7626,2020-11-02 14:27:28,2020-11-02 14:27:58,4,D7:F2:3B:06:4D:C8,9,9,-39944.97822335552,-23788.005564728417,-6325.1585741468225
9842,-8454,-27678,-7945,10010,21505,-18696,-18923,17905,-30002,9,-1,7652,2020-11-02 14:27:28,2020-11-02 14:27:58,4,D7:F2:3B:06:4D:C8,9,9,-22355.055753859673,17073.1541997353,-10460.578995155396
9843,14074,25571,-31559,11548,-27657,18694,-19430,-11024,-29491,9,-1,7679,2020-11-02 14:27:28,2020-11-02 14:27:58,4,D7:F2:3B:06:4D:C8,9,9,24106.763686369202,-23450.935385134162,26773.897215979097
9844,10758,3048,32682,3587,13813,-4849,23326,-16658,-12341,9,-1,7703,2020-11-02 14:27:28,2020-11-02 14:27:58,4,D7:F2:3B:06:4D:C8,9,9,13585.42799600911,-24963.10860454646,19632.04897515464
9845,-14541,-4370,-21785,-27158,-25097,-13024,-23267,24298,28618,9,-1,7728,2020-11-02 14:27:28,2020-11-02 14:27:58,4,D7:F2:3B:06:4D:C8,9,9,13834.494621959868,-13575.264332129642,-18150.558197140177
9846,9037,-7673,-6894,14060,-29189,1821,792,5349,1485,9,-1,7754,2020-11-02 14:27:28,2020-11-02 14:27:58,4,D7:F2:3B:06:4D:C8,9,9,9037.0,-7673.0,-6894.0
9847,15166,27662,23081,17909,21499,-16622,530,-20511,10705,9,-1,7780,2020-11-02 14:27:28,2020-11-02 14:27:58,4,D7:F2:3B:06:4D:C8,9,9,-33148.859177482416,-429.0249640188981,-20709.790771798933
9848,22785,5896,-25059,15098,-30986,8,-1777,-3105,18386,9,-1,7805,2020-11-02 14:27:28,2020-11-02 14:27:58,4,D7:F2:3B:06:4D:C8,9,9,-23389.022602562127,-2621.5763763121513,-25059.0
9849,16158,-9975,3339,1257,23561,-3067,-8446,-23585,9949,9,-1,7831,2020-11-02 14:27:28,2020-11-02 14:27:58,4,D7:F2:3B:06:4D:C8,9,9,634.299840969228,-3786.9521353044306,-18894.104033710082
9850,-4348,-22021,23324,22740,542,-17921,-10244,-20766,-11043,9,-1,7856,2020-11-02 14:27:28,2020-11-02 14:27:58,4,D7:F2:3B:06:4D:C8,9,9,6455.27012045218,4250.4902195247305,-31434.079302020633
9851,-27670,-28945,3394,-31759,6934,-28174,-25603,27879,-25897,9,-1,7882,2020-11-02 14:27:28,2020-11-02 14:27:58,4,D7:F2:3B:06:4D:C8,9,9,-36130.27659768597,16817.048614272157,-5172.151378286697
9852,3096,7156,-16841,-19976,533,-24329,-21761,1770,28628,9,-1,7933,2020-11-02 14:27:28,2020-11-02 14:27:58,4,D7:F2:3B:06:4D:C8,9,9,-9183.780250187348,3841.054164026531,15662.608857571693
9853,6673,-29450,-19197,-5866,29184,4329,8454,-30229,-15153,9,-1,7935,2020-11-02 14:27:28,2020-11-02 14:27:58,4,D7:F2:3B:06:4D:C8,9,9,13460.289042597837,28830.18576512604,-16370.621418811343
9854,26403,-2833,-6197,-11486,14334,27631,-22259,26349,30156,9,-1,7959,2020-11-02 14:27:28,2020-11-02 14:27:58,4,D7:F2:3B:06:4D:C8,9,9,-4447.499927009991,21839.15943670112,15710.441320904847
9855,13835,23273,-19961,27694,-4098,-16918,-5357,13040,-23862,9,-1,7984,2020-11-02 14:27:28,2020-11-02 14:27:58,4,D7:F2:3B:06:4D:C8,9,9,-1985.8329090042662,-33305.789277707154,-4273.422895815796
9856,19720,27373,-26157,-17885,28168,-22800,-16869,17906,201,9,-1,8010,2020-11-02 14:27:28,2020-11-02 14:27:58,4,D7:F2:3B:06:4D:C8,9,9,-21499.044189510852,-35175.680150284286,11082.003559932466
9857,4861,24556,21428,14876,5380,-12549,-2017,-13,-5687,9,-1,8036,2020-11-02 14:27:28,2020-11-02 14:27:58,4,D7:F2:3B:06:4D:C8,9,9,4861.0,24556.0,21428.0
9858,-25595,15600,14020,4358,-14082,14096,-16862,-9486,-22583,9,1,8061,2020-11-02 14:27:28,2020-11-02 14:27:58,4,D7:F2:3B:06:4D:C8,9,9,-2103.6208458477536,-6619.567610042658,-32353.987837560133
9859,28193,-12829,-29466,-23558,-16134,-17371,22819,26606,-30264,9,1,8087,2020-11-02 14:27:28,2020-11-02 14:27:58,4,D7:F2:3B:06:4D:C8,9,9,-27267.432833753126,-32745.102560938863,3452.3920591897877
9860,18747,12281,15856,252,6904,-4313,-31708,7144,18118,9,1,8112,2020-11-02 14:27:28,2020-11-02 14:27:58,4,D7:F2:3B:06:4D:C8,9,9,-21930.908638276705,14965.707370566342,-6982.016556707409
9861,22850,-25577,14072,-777,-6145,-12007,13350,483,-29757,9,1,8138,2020-11-02 14:27:28,2020-11-02 14:27:58,4,D7:F2:3B:06:4D:C8,9,9,8545.1380646861,21301.022407281984,-29113.11856981185
9862,-31967,27919,-24062,750,-12021,26638,-32225,8416,21192,9,1,8163,2020-11-02 14:27:28,2020-11-02 14:27:58,4,D7:F2:3B:06:4D:C8,9,9,-3891.3853371119426,-30751.79683411478,37676.56573563252
9863,7959,-30201,23027,-28708,-16361,-20986,8713,-9248,-23590,9,1,8189,2020-11-02 14:27:28,2020-11-02 14:27:58,4,D7:F2:3B:06:4D:C8,9,9,17067.89961675479,34846.501304450896,-311.384828280683
9864,-16844,-28424,-24778,11724,-21468,31227,-15362,-8219,-21283,9,1,8215,2020-11-02 14:27:28,2020-11-02 14:27:58,4,D7:F2:3B:06:4D:C8,9,9,37620.22464740132,16172.830016698583,5362.057695514988
9865,23297,14071,29763,-22540,19981,-30728,-19459,-26903,-8999,9,1,8240,2020-11-02 14:27:28,2020-11-02 14:27:58,4,D7:F2:3B:06:4D:C8,9,9,-29275.544385837617,27585.46721619295,2926.41732792772
9866,16401,-13325,-28099,-32503,-4598,7414,32255,28395,-24105,9,1,8266,2020-11-02 14:27:28,2020-11-02 14:27:58,4,D7:F2:3B:06:4D:C8,9,9,32637.733288194766,9216.480707632574,9270.225249393858
9867,-12796,-23063,27706,23838,5892,-9489,24581,28652,5332,9,1,8291,2020-11-02 14:27:28,2020-11-02 14:27:58,4,D7:F2:3B:06:4D:C8,9,9,-3000.9610516312023,36042.952762978945,-12456.39634453967
9868,-32243,-26900,29983,29211,-13560,15602,-17653,-20499,11217,9,1,8317,2020-11-02 14:27:28,2020-11-02 14:27:58,4,D7:F2:3B:06:4D:C8,9,9,-6749.045957397631,46608.85718683514,21077.62198166911
9869,16635,-6171,14317,30248,-13315,31990,-4334,-11538,-9522,9,1,8342,2020-11-02 14:27:28,2020-11-02 14:27:58,4,D7:F2:3B:06:4D:C8,9,9,-15966.89323110937,13445.57906306081,9168.188436399778
9870,-16907,13544,22239,-2274,-31740,-20739,3608,-10257,-25906,9,1,8368,2020-11-02 14:27:28,2020-11-02 14:27:58,4,D7:F2:3B:06:4D:C8,9,9,7952.772690486366,-29928.660805914507,-2210.9669599455465
9871,27146,11253,-11348,15634,-516,21255,18460,-5394,-27442,9,1,8394,2020-11-02 14:27:28,2020-11-02 14:27:58,4,D7:F2:3B:06:4D:C8,9,9,-10524.704245898802,26779.238088989114,12822.45830211954
9872,-14582,16627,-11314,8437,31993,14600,21789,14061,-24883,9,1,8419,2020-11-02 14:27:28,2020-11-02 14:27:58,4,D7:F2:3B:06:4D:C8,9,9,-769.2352469428752,23630.81674956697,7621.760025298999
9873,20784,4081,23548,16109,-12553,-7140,-19941,22249,-19252,9,1,8445,2020-11-02 14:27:28,2020-11-02 14:27:58,4,D7:F2:3B:06:4D:C8,9,9,23606.271544809708,4089.3064072722213,20716.154031580034
9874,-28337,26125,-3060,-15889,2553,-20457,27159,-7196,26830,9,-1,8470,2020-11-02 14:27:28,2020-11-02 14:27:58,4,D7:F2:3B:06:4D:C8,9,9,-14443.083256565262,12945.423946791601,-33446.64615296665
9875,21538,28433,23072,-4616,-25607,-29944,-1260,-18462,17615,9,-1,8496,2020-11-02 14:27:28,2020-11-02 14:27:58,4,D7:F2:3B:06:4D:C8,9,9,20319.945814994397,-31616.957729146074,-19801.664147972057
9876,27414,18192,-240,29167,-7674,13828,-21745,12770,-3886,9,-1,8522,2020-11-02 14:27:28,2020-11-02 14:27:58,4,D7:F2:3B:06:4D:C8,9,9,-13526.600481169931,-18043.81230008967,-23958.000273435722
9877,6664,-29178,30216,-22811,9232,28414,3337,-13597,27862,9,-1,8547,2020-11-02 14:27:28,2020-11-02 14:27:58,4,D7:F2:3B:06:4D:C8,9,9,-2310.2222010790174,41964.17925301078,-6514.7347607421125
9878,23812,6648,30272,-15900,-30954,-16907,-17149,29927,-298,9,-1,8573,2020-11-02 14:27:28,2020-11-02 14:27:58,4,D7:F2:3B:06:4D:C8,9,9,24631.41171258911,24759.707535501635,17545.702374124314
9879,23034,-18696,28178,10740,-4333,-18695,-13054,-18966,-31019,9,-1,8598,2020-11-02 14:27:28,2020-11-02 14:27:58,4,D7:F2:3B:06:4D:C8,9,9,-38710.04266036545,-13105.502324956831,-1970.7009015166368
9880,-25845,22779,-7682,21006,22018,13552,-7164,4333,22995,9,-1,8624,2020-11-02 14:27:28,2020-11-02 14:27:58,4,D7:F2:3B:06:4D:C8,9,9,21315.693441891446,15740.08150247511,-23318.469876618125
9881,-15853,-12308,20990,3612,-1539,-24588,3850,19950,-19504,9,-1,8650,2020-11-02 14:27:28,2020-11-02 14:27:58,4,D7:F2:3B:06:4D:C8,9,9,-20206.660489932696,9552.027860080087,-18542.767015870275
9882,20976,25829,-7664,11560,1788,29168,-19440,-24593,-16947,9,-1,8675,2020-11-02 14:27:28,2020-11-02 14:27:58,4,D7:F2:3B:06:4D:C8,9,9,-19770.527686762056,20845.454589734425,-18451.55741216158
9883,770,1010,-15387,-3811,20229,4859,3095,20208,-17204,9,-1,8701,2020-11-02 14:27:28,2020-11-02 14:27:58,4,D7:F2:3B:06:4D:C8,9,9,3046.879903894293,-585.8875551044545,15124.352138984956
9884,6660,-8717,28597,29979,-19713,-7424,27163,-24080,1229,9,-1,8727,2020-11-02 14:27:28,2020-11-02 14:27:58,4,D7:F2:3B:06:4D:C8,9,9,-13506.943506941238,27340.092401388927,2865.6452299287303
9885,15115,-18956,-13373,-6908,31740,260,3358,1264,-27700,9,-1,8752,2020-11-02 14:27:28,2020-11-02 14:27:58,4,D7:F2:3B:06:4D:C8,9,9,4466.124771703593,23829.538193669963,-13373.0
9886,-17135,8684,-21794,-26889,20979,-15595,16159,-32275,-28726,9,-1,8777,2020-11-02 14:27:28,2020-11-02 14:27:58,4,D7:F2:3B:06:4D:C8,9,9,-12301.708508229749,15536.09296246247,21243.735552869977
9887,19266,7421,-23056,12021,-19212,-27617,-1762,27624,-3384,9,-1,8803,2020-11-02 14:27:28,2020-11-02 14:27:58,4,D7:F2:3B:06:4D:C8,9,9,4855.7403322612445,7421.0,29650.96419723398
9888,29497,-4849,-7918,-2829,-1027,-493,-28388,25828,29897,9,-1,8829,2020-11-02 14:27:28,2020-11-02 14:27:58,4,D7:F2:3B:06:4D:C8,9,9,2993.130403052523,22180.237610529693,21339.136906884647
9889,-4832,-22512,23061,-8207,-21495,17677,17428,-29982,5328,9,-1,8880,2020-11-02 14:27:28,2020-11-02 14:27:58,4,D7:F2:3B:06:4D:C8,9,9,-26309.505334487614,19032.34257760063,-2743.71173110767
9890,-15095,3086,-18180,30188,21261,-21756,-20470,24803,26583,9,-1,8882,2020-11-02 14:27:28,2020-11-02 14:27:58,4,D7:F2:3B:06:4D:C8,9,9,-2015.246710820602,6265.700025062741,-22903.59371125971
9891,-13315,-13061,-18931,24276,-3043,19709,29698,-22554,-28966,9,-1,8905,2020-11-02 14:27:28,2020-11-02 14:27:58,4,D7:F2:3B:06:4D:C8,9,9,24413.227850139465,5471.753515059425,-8961.915331423834
9892,753,-22542,31815,18159,-23278,14580,-18945,-278,-13609,9,1,8931,2020-11-02 14:27:28,2020-11-02 14:27:58,4,D7:F2:3B:06:4D:C8,9,9,24061.399116919198,-11839.992952567825,-28315.484057657646
9893,-31739,26104,-8149,-7424,-15609,-18949,-17152,-26388,8406,9,1,8957,2020-11-02 14:27:28,2020-11-02 14:27:58,4,D7:F2:3B:06:4D:C8,9,9,18266.113244771408,-5372.098953149936,37318.61194855393
9894,-19961,-21766,-6103,-5101,-22020,-29708,-14076,-10772,-3629,9,1,8982,2020-11-02 14:27:28,2020-11-02 14:27:58,4,D7:F2:3B:06:4D:C8,9,9,-29576.293668246162,3508.4098483679663,-4730.834935350915
9895,26387,28413,32719,7456,-30219,-29198,4364,-32020,-3888,9,1,9008,2020-11-02 14:27:28,2020-11-02 14:27:58,4,D7:F2:3B:06:4D:C8,9,9,38860.03743052138,28413.0,-16021.991789364936
9896,6136,-8725,5375,32289,28924,-32521,18193,-20499,14031,9,1,9033,2020-11-02 14:27:28,2020-11-02 14:27:58,4,D7:F2:3B:06:4D:C8,9,9,-5021.386204962811,-7961.687181709734,7352.8201257210185
9897,11788,24565,11474,-8683,-18174,-772,-10986,-5651,-5939,9,1,9059,2020-11-02 14:27:28,2020-11-02 14:27:58,4,D7:F2:3B:06:4D:C8,9,9,25661.963627831024,2468.5558488931783,-14471.30608427494
9898,16907,-23053,12223,-749,22011,-1278,10266,-15891,-23603,9,1,9084,2020-11-02 14:27:28,2020-11-02 14:27:58,4,D7:F2:3B:06:4D:C8,9,9,14204.879586304769,18344.247852030952,20697.80552816747
9899,20509,9196,26321,27388,31226,-15095,2588,8940,-26164,9,1,9110,2020-11-02 14:27:28,2020-11-02 14:27:58,4,D7:F2:3B:06:4D:C8,9,9,-28679.75270518444,19137.199557720418,-3036.431434669843
9900,-5858,18918,-3340,-8204,-11018,-29155,-32229,-22552,-26933,9,1,9136,2020-11-02 14:27:28,2020-11-02 14:27:58,4,D7:F2:3B:06:4D:C8,9,9,-8689.89690180725,-3048.43890326531,-17848.11474887528
9901,19777,-2302,-8964,-4368,-19976,-28388,-9706,32227,18638,9,1,9161,2020-11-02 14:27:28,2020-11-02 14:27:58,4,D7:F2:3B:06:4D:C8,9,9,-7072.802860291909,9883.747448770599,18140.265297629117
9902,-7622,-28903,30221,-5389,20730,16397,-10737,28640,30931,9,-1,9187,2020-11-02 14:27:28,2020-11-02 14:27:58,4,D7:F2:3B:06:4D:C8,9,9,2097.3712951854177,27506.3693269371,-32338.642737447495
9903,-13283,16408,-3065,-9232,-9213,-19445,6916,-16929,16861,9,-1,9212,2020-11-02 14:27:28,2020-11-02 14:27:58,4,D7:F2:3B:06:4D:C8,9,9,-8108.790195764139,-9782.813146488523,-17134.726916469106
9904,24853,-23794,19217,10986,18698,-2816,-11012,7137,-28703,9,-1,9238,2020-11-02 14:27:28,2020-11-02 14:27:58,4,D7:F2:3B:06:4D:C8,9,9,7888.07204549782,38350.753718481465,-4485.213777448729
9905,-4546,19204,-28637,-19487,6937,-27139,22523,5860,-18466,9,-1,9264,2020-11-02 14:27:28,2020-11-02 14:27:58,4,D7:F2:3B:06:4D:C8,9,9,-25555.946940339392,11478.982754646859,20607.37809380605
9906,-11766,-5129,9265,-3591,-25585,22000,-7170,6375,216,9,-1,9289,2020-11-02 14:27:28,2020-11-02 14:27:58,4,D7:F2:3B:06:4D:C8,9,9,1486.8319612505852,5025.018147447472,14937.340638039535
9907,-7146,-27921,2102,-9224,-6890,-9995,-14335,-7191,8404,9,-1,9340,2020-11-02 14:27:28,2020-11-02 14:27:58,4,D7:F2:3B:06:4D:C8,9,9,-24616.84317455132,-13295.853407451663,7231.685508033535
9908,9218,32729,23401,-31465,3333,-26648,6407,14572,-16177,9,-1,9342,2020-11-02 14:27:28,2020-11-02 14:27:58,4,D7:F2:3B:06:4D:C8,9,9,-15434.967915070813,-28901.501117664084,-25104.397316135604
9909,16417,-26897,-7397,-4336,8459,9706,-5618,-21523,-2869,9,-1,9366,2020-11-02 14:27:28,2020-11-02 14:27:58,4,D7:F2:3B:06:4D:C8,9,9,-15208.842117070675,-26897.0,9639.741669672334
9910,-10516,4567,-9230,-20942,29688,-1046,-5355,-24080,-15927,9,-1,9391,2020-11-02 14:27:28,2020-11-02 14:27:58,4,D7:F2:3B:06:4D:C8,9,9,4199.191148282616,-1799.0916387336838,13991.665661229312
9911,13800,-28186,-28209,-20210,-22512,-12808,-23782,-24078,458,9,-1,9417,2020-11-02 14:27:28,2020-11-02 14:27:58,4,D7:F2:3B:06:4D:C8,9,9,-11209.410554883145,39772.24068780311,-8553.1434387325
9912,-28428,27369,-6478,-4344,-20482,-25071,32284,-20239,4811,9,-1,9443,2020-11-02 14:27:28,2020-11-02 14:27:58,4,D7:F2:3B:06:4D:C8,9,9,32106.48986075761,1551.6389026752286,23789.568187270095
9913,1046,-2329,-32545,-23809,-32524,23835,16668,-15891,-26933,9,-1,9468,2020-11-02 14:27:28,2020-11-02 14:27:58,4,D7:F2:3B:06:4D:C8,9,9,-16054.128196434447,-28168.998933972707,-3803.6625652511298
9914,-26042,-12288,6622,8182,-14347,-23777,8476,14824,203,9,-1,9494,2020-11-02 14:27:28,2020-11-02 14:27:58,4,D7:F2:3B:06:4D:C8,9,9,4688.523428378862,-12211.455595905592,26493.955769019627
9915,-25784,-20207,-20730,29940,24566,31763,17691,-1309,11978,9,-1,9519,2020-11-02 14:27:28,2020-11-02 14:27:58,4,D7:F2:3B:06:4D:C8,9,9,-10120.438318531009,-32987.653440789414,17670.932451661494
9916,-23014,-27634,26897,-4364,-3845,-17650,14106,-26399,-24119,9,-1,9545,2020-11-02 14:27:28,2020-11-02 14:27:58,4,D7:F2:3B:06:4D:C8,9,9,17940.64681513222,-948.4603676305596,41157.79848079487
9917,-2536,-14583,-16114,6896,-10499,-18937,15637,-2081,-20532,9,-1,9571,2020-11-02 14:27:28,2020-11-02 14:27:58,4,D7:F2:3B:06:4D:C8,9,9,5434.781084460615,-20155.84135366096,-6554.494251278264
9918,-20207,-12033,14087,-30748,-17399,-15102,11787,2784,-29229,9,-1,9596,2020-11-02 14:27:28,2020-11-02 14:27:58,4,D7:F2:3B:06:4D:C8,9,9,1749.3524969331065,-21590.052206884066,-16803.836423433022
9919,4106,-6402,23617,28386,275,-11529,-8446,-7198,-8490,9,-1,9622,2020-11-02 14:27:28,2020-11-02 14:27:58,4,D7:F2:3B:06:4D:C8,9,9,6759.859699676173,19851.440519315787,13260.171007523302
9920,-27899,10499,29200,20729,-10487,-7174,15875,-3356,-26412,9,-1,9647,2020-11-02 14:27:28,2020-11-02 14:27:58,4,D7:F2:3B:06:4D:C8,9,9,41636.79856148369,-902.9730099197477,-2604.773942933727
9921,13844,8448,32028,-25857,-28152,16881,25349,3815,29649,9,-1,9673,2020-11-02 14:27:28,2020-11-02 14:27:58,4,D7:F2:3B:06:4D:C8,9,9,21875.098514056775,-7966.074016598179,-27328.365369381143
9922,-30217,-21773,24283,-3817,20219,1513,-16628,-25624,-20277,9,-1,9699,2020-11-02 14:27:28,2020-11-02 14:27:58,4,D7:F2:3B:06:4D:C8,9,9,-22420.992570389903,-34652.06580635125,16532.63846186757
9923,-7675,19695,-9954,-30697,20227,2026,19473,6635,8137,9,-1,9724,2020-11-02 14:27:28,2020-11-02 14:27:58,4,D7:F2:3B:06:4D:C8,9,9,18728.276368954677,-4319.604923079289,13284.330753055008
9924,-28173,2284,13541,-5091,-29435,6388,-15849,12525,3783,9,-1,9750,2020-11-02 14:27:28,2020-11-02 14:27:58,4,D7:F2:3B:06:4D:C8,9,9,4711.712516534069,11362.317081972882,28826.9107205445
9925,18681,-16658,20938,-27113,-25344,18429,-22501,15086,11463,9,-1,9775,2020-11-02 14:27:28,2020-11-02 14:27:58,4,D7:F2:3B:06:4D:C8,9,9,-7492.976541784245,-30356.40389155533,-9338.769421986799
9926,-22522,5866,2764,-5627,20733,30985,19230,-30739,-22330,9,-1,9801,2020-11-02 14:27:28,2020-11-02 14:27:58,4,D7:F2:3B:06:4D:C8,9,9,7261.9550723666225,7295.165236583883,21055.514923598203
9927,-6885,-1043,-4643,-27905,-25099,24344,-17633,27626,18629,9,-1,9826,2020-11-02 14:27:28,2020-11-02 14:27:58,4,D7:F2:3B:06:4D:C8,9,9,-954.4156022103434,-245.10775575488844,-8311.289674071422
9928,-22467,1284,-29454,-5642,-11271,10781,3104,31717,-6205,9,1,9852,2020-11-02 14:27:28,2020-11-02 14:27:58,4,D7:F2:3B:06:4D:C8,9,9,12897.46383475328,-17710.162423199683,-29899.1376894906
9929,-29116,4375,21510,2551,21754,-9967,19745,-13087,15041,9,1,9878,2020-11-02 14:27:28,2020-11-02 14:27:58,4,D7:F2:3B:06:4D:C8,9,9,-6168.057754189846,31179.637692432225,-17870.294846746052
9930,15898,21523,-12786,-19978,-3,29451,-734,2016,8382,9,1,9903,2020-11-02 14:27:28,2020-11-02 14:27:58,4,D7:F2:3B:06:4D:C8,9,9,-9521.25394732867,25006.63224567591,-12786.0
9931,8733,17940,24075,26351,6916,17671,19228,-18722,-9022,9,1,9929,2020-11-02 14:27:28,2020-11-02 14:27:58,4,D7:F2:3B:06:4D:C8,9,9,-20850.77165904691,-6686.275779086102,22321.593837096232
9932,22045,31754,-10974,2532,-19951,-25602,-28407,-12065,-47,9,1,9954,2020-11-02 14:27:28,2020-11-02 14:27:58,4,D7:F2:3B:06:4D:C8,9,9,-37548.211796298616,-12450.64895339393,7059.769722848761
9933,25865,10489,-15554,10990,-10475,-26639,-251,-19997,-15919,9,1,9980,2020-11-02 14:27:28,2020-11-02 14:27:58,4,D7:F2:3B:06:4D:C8,9,9,19280.107258913253,16922.757308177166,19048.412300591794
9934,25596,9207,13302,-13065,-1258,-14856,-28922,28903,-5681,9,1,10006,2020-11-02 14:27:28,2020-11-02 14:27:58,4,D7:F2:3B:06:4D:C8,9,9,-4823.832893511908,-10143.932960009144,28119.36217836942
9935,-2275,18417,14366,26638,4104,31466,-26872,-5654,-9779,9,1,10031,2020-11-02 14:27:28,2020-11-02 14:27:58,4,D7:F2:3B:06:4D:C8,9,9,-20507.607104568167,-10464.184226680416,4547.787298759466
9936,-19184,2029,21455,-16614,-5887,6379,18960,-2324,-32055,9,1,10057,2020-11-02 14:27:28,2020-11-02 14:27:58,4,D7:F2:3B:06:4D:C8,9,9,-612.22560883489,-19824.64647949339,-20953.95651820909
9937,25614,11501,-12540,32284,-29429,-16401,-12014,-23568,30153,9,1,10082,2020-11-02 14:27:28,2020-11-02 14:27:58,4,D7:F2:3B:06:4D:C8,9,9,-21397.689423987104,15264.880314484346,-15960.072471610478
9938,12284,19191,-18484,31501,8210,25845,-30186,25587,-31031,9,1,10108,2020-11-02 14:27:28,2020-11-02 14:27:58,4,D7:F2:3B:06:4D:C8,9,9,-27319.511897444612,-10677.58055718176,694.9360620059829
9939,22770,7410,-22581,19730,-20738,-30206,27672,-20492,17610,9,1,10133,2020-11-02 14:27:28,2020-11-02 14:27:58,4,D7:F2:3B:06:4D:C8,9,9,26690.311711862327,18349.9566265714,-5847.128656577765
9940,27413,-11020,-44,-1784,4605,-20194,10778,-13071,-12854,9,1,10159,2020-11-02 14:27:28,2020-11-02 14:27:58,4,D7:F2:3B:06:4D:C8,9,9,-4150.990670432217,5148.715222039668,28795.39742765016
9941,581,-10742,-27707,-23811,-23820,15134,-16870,23276,13771,9,1,10185,2020-11-02 14:27:28,2020-11-02 14:27:58,4,D7:F2:3B:06:4D:C8,9,9,25709.570986333063,-6377.537981102594,-13481.50373653827
9942,3366,-24319,-15616,23796,8948,14615,2330,-1817,22986,9,1,10210,2020-11-02 14:27:28,2020-11-02 14:27:58,4,D7:F2:3B:06:4D:C8,9,9,-20604.844311220426,13348.562016575692,-15616.0
9943,-22240,-17917,-14836,15852,23042,-2539,-28909,-24860,31438,9,1,10236,2020-11-02 14:27:28,2020-11-02 14:27:58,4,D7:F2:3B:06:4D:C8,9,9,8300.417634767266,4176.634260229815,30812.370540818818
9944,3875,27392,-21243,14314,-19964,-3056,-10233,20195,24279,9,1,10261,2020-11-02 14:27:28,2020-11-02 14:27:58,4,D7:F2:3B:06:4D:C8,9,9,3364.9114057598363,8600.987658802971,33634.84384569826
9945,16159,11000,10501,22751,1037,-29177,-8963,28900,18653,9,1,10287,2020-11-02 14:27:28,2020-11-02 14:27:58,4,D7:F2:3B:06:4D:C8,9,9,-10024.459879162636,-13500.062235792908,14479.047128895494
9946,-26878,-1550,-17870,8669,-26865,3840,-22792,-9242,-12580,9,1,10313,2020-11-02 14:27:28,2020-11-02 14:27:58,4,D7:F2:3B:06:4D:C8,9,9,11417.221977451458,27319.627932832926,-12940.29582077529
9947,10758,17400,-17101,23043,-21249,-523,-16903,10472,28889,9,1,10338,2020-11-02 14:27:28,2020-11-02 14:27:58,4,D7:F2:3B:06:4D:C8,9,9,-22283.77875432167,-5014.393691572602,-13756.010516656315
9948,7677,-3079,-26620,10250,-14077,18676,-21250,12008,-30251,9,1,10364,2020-11-02 14:27:28,2020-11-02 14:27:58,4,D7:F2:3B:06:4D:C8,9,9,6682.64130949607,20093.334766189546,-18128.463065093383
9949,15388,14582,-23737,20999,23819,-24079,9986,-9495,28626,9,1,10389,2020-11-02 14:27:28,2020-11-02 14:27:58,4,D7:F2:3B:06:4D:C8,9,9,15339.309539727989,-24851.2442194809,12648.781782769714
9950,-22018,-9481,-31809,3349,9212,6894,10507,3562,-16180,9,1,10415,2020-11-02 14:27:28,2020-11-02 14:27:58,4,D7:F2:3B:06:4D:C8,9,9,28843.322131266963,11013.934983325324,-25164.462454323326
9951,-29693,23540,-28911,20244,-30200,-6930,19213,19693,11212,9,-1,10440,2020-11-02 14:27:28,2020-11-02 14:27:58,4,D7:F2:3B:06:4D:C8,9,9,34495.12679288797,18141.96495197123,-27433.68559315408
9952,-8450,31725,6627,-23525,6917,-26377,-3566,-10514,-28470,9,-1,10466,2020-11-02 14:27:28,2020-11-02 14:27:58,4,D7:F2:3B:06:4D:C8,9,9,-17380.31686828659,-28412.321687314885,-3529.846440638563
9953,30721,30713,19912,-23782,-7939,9473,-2282,28655,28618,9,-1,10492,2020-11-02 14:27:28,2020-11-02 14:27:58,4,D7:F2:3B:06:4D:C8,9,9,30028.30898381472,-12219.962952622762,35107.394078870035
9954,3605,19451,19410,-10491,-17154,-14323,-232,-15635,-13622,9,-1,10517,2020-11-02 14:27:28,2020-11-02 14:27:58,4,D7:F2:3B:06:4D:C8,9,9,25655.819839543117,9318.27572059543,-4799.3928736734515
9955,-27110,5870,22240,30203,10740,-20461,-29415,-25110,16842,9,-1,10543,2020-11-02 14:27:28,2020-11-02 14:27:58,4,D7:F2:3B:06:4D:C8,9,9,6744.185324641849,32509.93949721905,12714.023682298306
9956,-716,21491,-22804,-10506,-5899,31522,11288,-31003,-31286,9,-1,10568,2020-11-02 14:27:28,2020-11-02 14:27:58,4,D7:F2:3B:06:4D:C8,9,9,-28025.40241506902,13841.473101348012,2321.3347147930217
9957,-28076,-23535,32008,-8713,16378,-25581,-27376,18401,-11824,9,-1,10594,2020-11-02 14:27:28,2020-11-02 14:27:58,4,D7:F2:3B:06:4D:C8,9,9,-17330.54419982423,-16624.87128582105,42307.634742063055
9958,1820,14605,23320,-20995,24065,24581,13579,12256,-25643,9,-1,10620,2020-11-02 14:27:28,2020-11-02 14:27:58,4,D7:F2:3B:06:4D:C8,9,9,19017.364814775257,19720.61071798092,-3142.9561580786017
9959,3341,27402,22285,-17412,-9479,20738,-5113,-1057,31960,9,-1,10645,2020-11-02 14:27:28,2020-11-02 14:27:58,4,D7:F2:3B:06:4D:C8,9,9,27224.15833595196,4569.1452044137795,22285.0
9960,3867,28941,-27380,18682,-27919,-30977,7440,18398,-23345,9,-1,10671,2020-11-02 14:27:28,2020-11-02 14:27:58,4,D7:F2:3B:06:4D:C8,9,9,-27649.81715953596,-27156.868682619825,-10009.578632448678
9961,-474,-31988,292,-12041,22269,-15886,-19166,-7458,-13125,9,-1,10696,2020-11-02 14:27:28,2020-11-02 14:27:58,4,D7:F2:3B:06:4D:C8,9,9,30419.083416336955,-9729.96161723525,1883.9572811140358
9962,7435,-4349,19478,-519,-3321,-26895,-27362,18145,2495,9,-1,10722,2020-11-02 14:27:28,2020-11-02 14:27:58,4,D7:F2:3B:06:4D:C8,9,9,-9621.760736305374,-11898.302896471978,14813.42696735292
9963,-17607,-31236,-23515,-2315,23060,-30483,17687,21732,9157,9,-1,10748,2020-11-02 14:27:28,2020-11-02 14:27:58,4,D7:F2:3B:06:4D:C8,9,9,-17956.701323809597,35409.43516010289,-16198.090912510772
9964,7681,13285,-26180,-22250,-5120,-6430,12826,4329,-14397,9,-1,10773,2020-11-02 14:27:28,2020-11-02 14:27:58,4,D7:F2:3B:06:4D:C8,9,9,13422.710570503168,-14590.185950615385,22974.74049618337
9965,-8410,-17686,5129,26642,-12024,28380,-29157,31725,-23868,9,-1,10799,2020-11-02 14:27:28,2020-11-02 14:27:58,4,D7:F2:3B:06:4D:C8,9,9,-639.9267840382618,15940.598012809947,-12462.630769828254
9966,12808,9186,-20779,21013,13326,-538,6175,2546,709,9,-1,10850,2020-11-02 14:27:28,2020-11-02 14:27:58,4,D7:F2:3B:06:4D:C8,9,9,12808.0,22448.142575028014,-3497.1891471887393
9967,21205,-790,-20021,-17908,-7410,-5894,288,-13324,-27961,9,-1,10852,2020-11-02 14:27:28,2020-11-02 14:27:58,4,D7:F2:3B:06:4D:C8,9,9,-5533.728134946141,7615.677873985732,27613.32775034892
9968,-30997,3309,-29489,-9975,13565,8980,-31711,27123,29640,9,-1,10875,2020-11-02 14:27:28,2020-11-02 14:27:58,4,D7:F2:3B:06:4D:C8,9,9,34878.113566336644,-14908.979281368074,-20064.99792777117
9969,19756,17652,-27195,-2303,-25608,-3288,-3805,7406,-16442,9,1,10901,2020-11-02 14:27:28,2020-11-02 14:27:58,4,D7:F2:3B:06:4D:C8,9,9,21131.900880604546,3756.325790288658,-31317.621983948866
9970,829,1030,21734,-29961,-18957,25886,2086,-24856,21443,9,1,10927,2020-11-02 14:27:28,2020-11-02 14:27:58,4,D7:F2:3B:06:4D:C8,9,9,-15892.644378278508,1225.029590547223,-14833.679724460013
9971,11834,32013,7422,14072,26869,-26601,20779,16869,22204,9,1,10952,2020-11-02 14:27:28,2020-11-02 14:27:58,4,D7:F2:3B:06:4D:C8,9,9,12043.273977875026,31354.253369854796,-9582.909605792349
9972,-30427,7182,30987,30961,-7170,15375,-32722,9443,-24253,9,1,10978,2020-11-02 14:27:28,2020-11-02 14:27:58,4,D7:F2:3B:06:4D:C8,9,9,23069.11588969848,15632.616745525147,34073.66736580006
9973,-2024,29190,-22250,-9232,6662,14603,9005,2273,-27326,9,1,11003,2020-11-02 14:27:28,2020-11-02 14:27:58,4,D7:F2:3B:06:4D:C8,9,9,-24782.28692040514,-24078.6517868444,12540.81174097639
9974,-20705,17416,-7173,25310,16153,13320,-18149,28127,-2109,9,1,11029,2020-11-02 14:27:28,2020-11-02 14:27:58,4,D7:F2:3B:06:4D:C8,9,9,10019.501397984364,-18253.963138606785,-18704.77028648505
9975,-23294,-32524,-27833,-25639,-9178,14585,-9213,27620,32469,9,1,11080,2020-11-02 14:27:28,2020-11-02 14:27:58,4,D7:F2:3B:06:4D:C8,9,9,-37637.49345505553,-17280.93576054499,-25688.23167640328
9976,2041,31215,-13276,-29961,-9960,-1289,13826,5353,17364,9,1,11082,2020-11-02 14:27:28,2020-11-02 14:27:58,4,D7:F2:3B:06:4D:C8,9,9,-1890.9995833936357,1197.0280025357551,33908.48458036352
9977,-23790,13811,-22749,-29427,-6644,14830,-8956,19180,-14127,9,1,11106,2020-11-02 14:27:28,2020-11-02 14:27:58,4,D7:F2:3B:06:4D:C8,9,9,-19017.789781678937,-13486.391178433627,27030.82956185651
9978,16148,11506,-5122,-1253,5893,21996,32011,17646,19150,9,1,11131,2020-11-02 14:27:28,2020-11-02 14:27:58,4,D7:F2:3B:06:4D:C8,9,9,17803.384385941,-873.3608811392342,10082.537834182816
9979,12277,-22036,-9735,8225,14600,-3345,6417,11761,31180,9,1,11157,2020-11-02 14:27:28,2020-11-02 14:27:58,4,D7:F2:3B:06:4D:C8,9,9,-11150.507244735469,24600.073095337586,-1258.1104439396104
9980,32758,10991,727,11808,11270,-32258,-235,-18702,-17460,9,1,11182,2020-11-02 14:27:28,2020-11-02 14:27:58,4,D7:F2:3B:06:4D:C8,9,9,33758.24666722766,-6289.982984332697,3903.0846789966063
9981,-30196,3321,-12878,10254,14078,-17651,-19175,-26895,19405,9,1,11208,2020-11-02 14:27:28,2020-11-02 14:27:58,4,D7:F2:3B:06:4D:C8,9,9,-28020.344564543673,9150.91763513638,14825.361308217676
9982,-30180,2290,22489,-17412,26610,-6630,29978,-9747,717,9,1,11234,2020-11-02 14:27:28,2020-11-02 14:27:58,4,D7:F2:3B:06:4D:C8,9,9,-19826.484755989128,22214.83441761011,-23135.32483062851
9983,-447,-9731,-13079,-13839,-27404,-2530,-13800,23272,17613,9,1,11259,2020-11-02 14:27:28,2020-11-02 14:27:58,4,D7:F2:3B:06:4D:C8,9,9,11524.921209563487,6279.622549037324,-9679.614804059904
9984,-194,29192,8203,-4373,27643,13845,2580,15844,29647,9,1,11285,2020-11-02 14:27:28,2020-11-02 14:27:58,4,D7:F2:3B:06:4D:C8,9,9,30131.64500105285,1050.66585618918,-3237.2487993920267
9985,8988,-2297,-14559,-25365,-22014,28170,-21237,-7454,-9004,9,1,11310,2020-11-02 14:27:28,2020-11-02 14:27:58,4,D7:F2:3B:06:4D:C8,9,9,-3891.870199106367,6467.383867480563,15525.8212750231
9986,9751,9220,19228,30700,32518,-1274,19971,25059,-29990,9,1,11336,2020-11-02 14:27:28,2020-11-02 14:27:58,4,D7:F2:3B:06:4D:C8,9,9,13353.994373596943,3399.4063514357877,18971.590753749646
9987,14096,30725,-6624,-4378,-3569,30210,3582,6885,-31524,9,1,11362,2020-11-02 14:27:28,2020-11-02 14:27:58,4,D7:F2:3B:06:4D:C8,9,9,-28883.654132984902,10673.83340490764,-15440.337475922668
9988,-9727,-29703,-32198,-11539,-24295,14069,-29188,-7704,1498,9,-1,11387,2020-11-02 14:27:28,2020-11-02 14:27:58,4,D7:F2:3B:06:4D:C8,9,9,26397.489984722277,22449.825900789525,-28509.152592294413
9989,11277,32246,20256,-7429,-12009,-17416,5374,7916,-1322,9,-1,11413,2020-11-02 14:27:28,2020-11-02 14:27:58,4,D7:F2:3B:06:4D:C8,9,9,23137.825371543764,32246.0,1455.0952119863905
9990,-30446,-4878,-19901,-11764,19984,-21776,27649,-18,-557,9,-1,11438,2020-11-02 14:27:28,2020-11-02 14:27:58,4,D7:F2:3B:06:4D:C8,9,9,-30446.0,-11872.65287655038,16699.844270918817
9991,17933,28914,-21971,23065,23052,-6165,24839,9201,16081,9,-1,11464,2020-11-02 14:27:28,2020-11-02 14:27:58,4,D7:F2:3B:06:4D:C8,9,9,30906.271438274438,17840.256213556317,-19153.703819845578
9992,24555,28638,22787,9008,10501,4345,11790,25587,20176,9,-1,11489,2020-11-02 14:27:28,2020-11-02 14:27:58,4,D7:F2:3B:06:4D:C8,9,9,32900.961214652154,28277.779634145343,7760.436077609898
9993,-21776,28895,2013,18987,14341,-21505,-28652,19956,5329,9,-1,11515,2020-11-02 14:27:28,2020-11-02 14:27:58,4,D7:F2:3B:06:4D:C8,9,9,25548.82750366258,6266.104284063024,-24923.096121656745
9994,23050,-16661,-28490,19478,-11524,18442,-12775,8947,14033,9,-1,11541,2020-11-02 14:27:28,2020-11-02 14:27:58,4,D7:F2:3B:06:4D:C8,9,9,2612.151804490044,39883.12988261942,-4804.595166755409
9995,-241,14065,17608,28414,-1800,-8690,30491,29424,-9264,9,-1,11566,2020-11-02 14:27:28,2020-11-02 14:27:58,4,D7:F2:3B:06:4D:C8,9,9,21928.369807312036,4483.34257231431,-2640.114954512397
9996,-2013,7915,10725,25331,10998,-15073,6682,1772,-14384,9,-1,11592,2020-11-02 14:27:28,2020-11-02 14:27:58,4,D7:F2:3B:06:4D:C8,9,9,-3479.8984419942153,3806.398903188304,12454.9850751903
9997,2614,-32264,17902,15599,30966,1569,-7147,-25626,-8494,9,-1,11617,2020-11-02 14:27:28,2020-11-02 14:27:58,4,D7:F2:3B:06:4D:C8,9,9,12140.447007368548,-23290.91286326721,-26046.558706611704
9998,59,-17661,8966,26347,-11015,32530,29198,-10782,-15401,9,-1,11643,2020-11-02 14:27:28,2020-11-02 14:27:58,4,D7:F2:3B:06:4D:C8,9,9,10070.279564843706,13382.108471063919,10574.12882248796
9999,-9686,8961,-4062,7909,-12281,24587,6658,21218,-26400,9,-1,11669,2020-11-02 14:27:28,2020-11-02 14:27:58,4,D7:F2:3B:06:4D:C8,9,9,-13011.89770014136,2429.0492468765196,-3925.3278840505236
10000,28194,23302,22547,24803,-14578,27396,14075,1764,-25629,9,-1,11694,2020-11-02 14:27:28,2020-11-02 14:27:58,4,D7:F2:3B:06:4D:C8,9,9,4425.837192168767,41076.6619301293,11805.585916263615
10001,-24026,-4358,-14796,16098,5919,3831,2810,8936,-31265,9,-1,11720,2020-11-02 14:27:28,2020-11-02 14:27:58,4,D7:F2:3B:06:4D:C8,9,9,-3035.0218517267194,-25623.28184803499,12222.868963369525
10002,1784,32248,-19157,-515,12049,27376,15357,22251,31193,9,1,11746,2020-11-02 14:27:28,2020-11-02 14:27:58,4,D7:F2:3B:06:4D:C8,9,9,4827.176012268119,-2218.7963985413307,-37173.675138307255
10003,-21754,26356,-12232,26120,27662,16624,12800,-14867,-1067,9,1,11772,2020-11-02 14:27:28,2020-11-02 14:27:58,4,D7:F2:3B:06:4D:C8,9,9,-17367.46141479743,154.56010089525444,-31872.31512113191
10004,508,13285,17442,-14299,-12551,25581,-5882,22766,3794,9,1,11796,2020-11-02 14:27:28,2020-11-02 14:27:58,4,D7:F2:3B:06:4D:C8,9,9,-750.580280328847,21854.85305047757,1665.7371895989036
10005,-8452,-29475,20549,-25320,15877,15340,-13811,12271,-21810,9,1,11822,2020-11-02 14:27:28,2020-11-02 14:27:58,4,D7:F2:3B:06:4D:C8,9,9,-15542.990214759122,-33479.55449083177,90.64369436688776
10006,29169,30951,8924,-9691,7166,11505,-28907,-17680,972,9,1,11848,2020-11-02 14:27:28,2020-11-02 14:27:58,4,D7:F2:3B:06:4D:C8,9,9,-33422.71710705583,222.18807517846835,-27772.384694890097
10007,8683,-7455,-29730,-8687,-30964,-20745,27928,16883,-10804,9,1,11873,2020-11-02 14:27:28,2020-11-02 14:27:58,4,D7:F2:3B:06:4D:C8,9,9,-4465.661599477991,-25669.148877220723,-18330.22303186805
10008,-24328,-12819,-3121,-1783,-6,30732,-10982,-11534,-6708,9,1,11899,2020-11-02 14:27:28,2020-11-02 14:27:58,4,D7:F2:3B:06:4D:C8,9,9,-7039.058421968451,-6716.9855479771395,-25908.545842643915
10009,-15590,-32527,-14111,7928,14326,-16611,-2790,-4370,-4916,9,1,11924,2020-11-02 14:27:28,2020-11-02 14:27:58,4,D7:F2:3B:06:4D:C8,9,9,-15590.0,-32527.0,-14111.0
10010,30767,27898,2537,-5640,-17422,-28126,17945,10217,-31795,9,1,11950,2020-11-02 14:27:28,2020-11-02 14:27:58,4,D7:F2:3B:06:4D:C8,9,9,31883.339397985004,9154.81903660714,-25119.415185068952
10011,9286,-31730,-28940,-13581,-18952,-22761,28182,9188,719,9,1,11976,2020-11-02 14:27:28,2020-11-02 14:27:58,4,D7:F2:3B:06:4D:C8,9,9,41141.41951423359,-1161.7521242090334,15381.164726890334
10012,22826,-23800,1276,29675,-16127,-12019,-17649,-4895,20947,9,1,12001,2020-11-02 14:27:28,2020-11-02 14:27:58,4,D7:F2:3B:06:4D:C8,9,9,-25948.02451308605,-20283.08819501574,2095.4257661626716
10013,-1758,-18432,-25331,-24097,32015,-27134,-20988,-7710,11226,9,1,12027,2020-11-02 14:27:28,2020-11-02 14:27:58,4,D7:F2:3B:06:4D:C8,9,9,-25444.019045539208,-12470.00598992471,13475.518335911243
10014,-8169,-2060,-17381,9685,-25055,1276,-23554,-23578,24026,9,1,12052,2020-11-02 14:27:28,2020-11-02 14:27:58,4,D7:F2:3B:06:4D:C8,9,9,2634.973664740948,-19133.263121050277,-224.6733779936967
10015,19956,12779,31311,-5137,-5356,27633,-7172,-27925,-30506,9,1,12078,2020-11-02 14:27:28,2020-11-02 14:27:58,4,D7:F2:3B:06:4D:C8,9,9,-34262.78224668937,1397.463526955482,-19131.97183791511
10016,24816,-12811,-28139,-14330,13573,-16398,-21505,-14612,15315,9,1,12103,2020-11-02 14:27:28,2020-11-02 14:27:58,4,D7:F2:3B:06:4D:C8,9,9,7601.338012512707,-37543.707389427305,10220.009485151711
10017,-16376,-12808,9472,-10224,-12032,2544,12803,-2323,31696,9,1,12129,2020-11-02 14:27:28,2020-11-02 14:27:58,4,D7:F2:3B:06:4D:C8,9,9,-7793.26277980488,14772.121659937633,-15588.024278557863
10018,15866,-7950,22761,-228,8185,-1552,-23287,12270,-15924,9,1,12155,2020-11-02 14:27:28,2020-11-02 14:27:58,4,D7:F2:3B:06:4D:C8,9,9,-284.02090784414395,28285.341363726136,-5731.873433825173
10019,-30465,-4624,4618,-31712,19970,12777,-12274,8944,7882,9,1,12180,2020-11-02 14:27:28,2020-11-02 14:27:58,4,D7:F2:3B:06:4D:C8,9,9,-13008.321924551732,-8925.97888052081,26868.82927728194
10020,25591,-6419,-22818,9751,9737,15607,-18924,-8719,21192,9,1,12206,2020-11-02 14:27:28,2020-11-02 14:27:58,4,D7:F2:3B:06:4D:C8,9,9,5442.053153753011,-3942.1188444250924,34228.75578352441
10021,-30209,-30990,-10810,-4073,11771,10756,21784,21490,20936,9,1,12231,2020-11-02 14:27:28,2020-11-02 14:27:58,4,D7:F2:3B:06:4D:C8,9,9,-35036.3567046448,-27536.61660046853,-2002.0829312723436
10022,20,15089,-23344,11527,12533,28441,-5094,22511,-11321,9,1,12257,2020-11-02 14:27:28,2020-11-02 14:27:58,4,D7:F2:3B:06:4D:C8,9,9,10906.336944517023,10941.344959007529,23107.5624404796
10023,2604,29939,-29219,21240,-15630,-24030,11547,-10007,13511,9,1,12282,2020-11-02 14:27:28,2020-11-02 14:27:58,4,D7:F2:3B:06:4D:C8,9,9,375.46060607779145,-34726.076156002615,23469.835153677373
10024,-30660,0,-24599,-25610,25845,-21726,-14312,-7197,19144,9,1,12308,2020-11-02 14:27:28,2020-11-02 14:27:58,4,D7:F2:3B:06:4D:C8,9,9,28084.19540911942,18590.611124018535,-20268.53589329811
10025,3650,-26863,-31226,-28946,24579,22291,30475,-23840,-32557,9,1,12334,2020-11-02 14:27:28,2020-11-02 14:27:58,4,D7:F2:3B:06:4D:C8,9,9,38972.128993723214,-677.0946963969018,-13810.179197559657
10026,-31200,15880,-18158,20204,31243,-1527,-22531,27361,-22818,9,-1,12359,2020-11-02 14:27:28,2020-11-02 14:27:58,4,D7:F2:3B:06:4D:C8,9,9,-10980.425834982532,16903.138384882484,-33897.51503021955
10027,27675,22784,-23797,-19480,23567,-4862,-5384,-17437,9440,9,-1,12385,2020-11-02 14:27:28,2020-11-02 14:27:58,4,D7:F2:3B:06:4D:C8,9,9,-32160.83942962044,-7918.554447434617,27464.347664657624
10028,-27902,16379,31025,4579,-30439,-7686,11000,-5146,15836,9,-1,12411,2020-11-02 14:27:28,2020-11-02 14:27:58,4,D7:F2:3B:06:4D:C8,9,9,27303.098220541742,-18189.760093488585,30545.332299727575
10029,24068,25844,15162,-1792,-13815,16370,1019,18153,-3370,9,-1,12436,2020-11-02 14:27:28,2020-11-02 14:27:58,4,D7:F2:3B:06:4D:C8,9,9,-21687.477845975813,25844.0,-18406.742587440836
10030,-18670,20985,-26853,-24065,-22765,-23562,-20482,2539,24531,9,-1,12462,2020-11-02 14:27:28,2020-11-02 14:27:58,4,D7:F2:3B:06:4D:C8,9,9,-6386.939501831912,30185.923545243,23622.865142075447
10031,30727,26590,20054,-9189,27906,-2073,-4349,4077,4559,9,-1,12487,2020-11-02 14:27:28,2020-11-02 14:27:58,4,D7:F2:3B:06:4D:C8,9,9,30727.0,26590.0,20054.0
10032,20273,26612,-28667,-29426,28945,-10258,3595,20462,27595,9,-1,12513,2020-11-02 14:27:28,2020-11-02 14:27:58,4,D7:F2:3B:06:4D:C8,9,9,35903.03947772611,855.9861184645815,25519.18897664728
10033,-15370,-1822,-6911,-6615,11780,12781,-30960,-13583,-24631,9,-1,12538,2020-11-02 14:27:28,2020-11-02 14:27:58,4,D7:F2:3B:06:4D:C8,9,9,-11008.711266129725,3398.070332444936,-12433.016499415822
10034,2550,-5653,-4613,-32233,20753,-11533,8213,-28940,-7223,9,-1,12564,2020-11-02 14:27:28,2020-11-02 14:27:58,4,D7:F2:3B:06:4D:C8,9,9,-2668.866651562993,5687.835373051132,-4501.595002356747
10035,8703,-27419,21201,5915,-6652,-4862,2073,-22283,-17206,9,-1,12590,2020-11-02 14:27:28,2020-11-02 14:27:58,4,D7:F2:3B:06:4D:C8,9,9,7622.255490023283,28782.695681063033,-19760.66349028102
10036,-4845,-24080,-321,-8946,-30465,14355,-6373,-14349,-29237,9,-1,12615,2020-11-02 14:27:28,2020-11-02 14:27:58,4,D7:F2:3B:06:4D:C8,9,9,8125.340885575296,-19350.49991726408,-12765.596517404167
10037,-22760,-18958,-27955,-15874,-18184,-26595,-31460,-15633,-6453,9,-1,12641,2020-11-02 14:27:28,2020-11-02 14:27:58,4,D7:F2:3B:06:4D:C8,9,9,35976.67188386251,-16369.104921396698,-9830.405547748447
10038,17451,7158,-7713,8179,-16138,4896,28443,25578,-7733,9,-1,12666,2020-11-02 14:27:28,2020-11-02 14:27:58,4,D7:F2:3B:06:4D:C8,9,9,-14858.39330502156,3677.4008569059574,13452.494390666656
10039,6979,-2561,19457,5869,29949,-32486,-9194,-32539,8910,9,-1,12692,2020-11-02 14:27:28,2020-11-02 14:27:58,4,D7:F2:3B:06:4D:C8,9,9,-4979.770985706709,19985.948298458447,-3098.9937949695286
10040,-22744,-2046,-31215,10218,-21755,3856,-24819,23011,-29228,9,-1,12717,2020-11-02 14:27:28,2020-11-02 14:27:58,4,D7:F2:3B:06:4D:C8,9,9,-23766.335540747674,7652.865911494999,-29537.210689319865
10041,-20972,-17925,-30451,-13336,-28406,32523,29186,-29,-22820,9,-1,12743,2020-11-02 14:27:28,2020-11-02 14:27:58,4,D7:F2:3B:06:4D:C8,9,9,15923.844646172185,36901.31084069371,8550.920413796055
10042,22303,14589,1296,27609,19733,3075,7931,23014,20959,9,-1,12769,2020-11-02 14:27:28,2020-11-02 14:27:58,4,D7:F2:3B:06:4D:C8,9,9,23196.177234150364,-10167.116111288047,8396.99099091284
10043,-13297,2551,-25010,-3099,-32748,30456,-21256,-10007,732,9,-1,12796,2020-11-02 14:27:28,2020-11-02 14:27:58,4,D7:F2:3B:06:4D:C8,9,9,-27716.052139013787,-6054.882260405015,1994.1826997799908
10044,-22282,-12040,29740,6406,-13567,18164,5627,-11798,19416,9,1,12820,2020-11-02 14:27:28,2020-11-02 14:27:58,4,D7:F2:3B:06:4D:C8,9,9,19291.17400745234,9411.818170925551,-32637.172183441857
10045,-12797,28921,17179,-31989,7429,9459,29950,-25621,28117,9,1,12845,2020-11-02 14:27:28,2020-11-02 14:27:58,4,D7:F2:3B:06:4D:C8,9,9,24516.58663111271,-9367.398450658979,24627.105335904515
10046,30712,-24592,-10742,20508,-6663,-7441,-17916,-25877,-32303,9,1,12871,2020-11-02 14:27:28,2020-11-02 14:27:58,4,D7:F2:3B:06:4D:C8,9,9,-24558.668380686002,-2537.9446070584727,-32462.51094014442
10047,25598,8423,3380,12314,15362,24817,28426,25068,28622,9,1,12897,2020-11-02 14:27:28,2020-11-02 14:27:58,4,D7:F2:3B:06:4D:C8,9,9,4459.700116285679,9673.099773190872,24983.41747341016
10048,4849,10983,-18705,13095,-19718,29941,4883,-13076,-10806,9,1,12922,2020-11-02 14:27:28,2020-11-02 14:27:58,4,D7:F2:3B:06:4D:C8,9,9,17341.284219510413,-6679.940971612067,12193.209800292028
10049,19702,-15912,27101,-27868,-27651,-14848,-2536,4589,14794,9,1,12948,2020-11-02 14:27:28,2020-11-02 14:27:58,4,D7:F2:3B:06:4D:C8,9,9,6269.815681998447,24536.70636645771,27101.0
10050,-8950,29167,4788,-6639,-25603,3592,-9955,-9493,-26167,9,1,12973,2020-11-02 14:27:28,2020-11-02 14:27:58,4,D7:F2:3B:06:4D:C8,9,9,-23891.155054430386,-2611.629051438254,-19394.15986483686
10051,-2796,11500,-25118,4597,-9987,-15093,4382,3818,31945,9,1,12999,2020-11-02 14:27:28,2020-11-02 14:27:58,4,D7:F2:3B:06:4D:C8,9,9,10234.509688070912,5943.267404785237,-25118.0
10052,32041,-28429,9722,16112,-10495,-26081,20250,16102,24779,9,1,13050,2020-11-02 14:27:28,2020-11-02 14:27:58,4,D7:F2:3B:06:4D:C8,9,9,37082.04960342641,1975.479699172145,-23459.96767191256
10053,5709,-26859,28666,22516,31999,-26855,-4849,25314,4564,9,1,13052,2020-11-02 14:27:28,2020-11-02 14:27:58,4,D7:F2:3B:06:4D:C8,9,9,-25426.15176200743,-26859.0,-14416.762589963339
10054,4914,10780,4364,29689,-2052,-5116,-11000,8929,3546,9,1,13076,2020-11-02 14:27:28,2020-11-02 14:27:58,4,D7:F2:3B:06:4D:C8,9,9,-2993.8989326194196,9496.638234960206,-7762.133947282294
10055,-5861,2067,6922,-11279,-12022,16131,9988,-16927,17885,9,1,13101,2020-11-02 14:27:28,2020-11-02 14:27:58,4,D7:F2:3B:06:4D:C8,9,9,3182.1915663281725,4301.83703992391,-7609.582703218919
10056,-19437,-3833,272,28909,30734,-27141,-6399,-13597,-6180,9,1,13127,2020-11-02 14:27:28,2020-11-02 14:27:58,4,D7:F2:3B:06:4D:C8,9,9,1163.4356898309968,-5221.328829375864,-19077.394598087965
10057,-28920,-26120,23596,11753,-12263,32759,-30208,21735,-20518,9,1,13152,2020-11-02 14:27:28,2020-11-02 14:27:58,4,D7:F2:3B:06:4D:C8,9,9,-30018.578269835256,26060.61313642321,22251.32395187892
10058,26094,-24336,28431,29181,24081,10486,-26879,-10006,-28457,9,1,13178,2020-11-02 14:27:28,2020-11-02 14:27:58,4,D7:F2:3B:06:4D:C8,9,9,-25321.67426341558,37899.99024538696,1965.4630235775057
10059,29955,17643,-30691,29198,18184,-28177,-8445,-30739,12757,9,-1,13204,2020-11-02 14:27:28,2020-11-02 14:27:58,4,D7:F2:3B:06:4D:C8,9,9,23820.813860457267,-12897.304183379889,-37639.65099236201
10060,-8188,15848,-22524,-16356,19202,21485,-2551,-12562,-21807,9,-1,13229,2020-11-02 14:27:28,2020-11-02 14:27:58,4,D7:F2:3B:06:4D:C8,9,9,-21412.89215194063,-19060.535890791354,1927.9640155391544
10061,-13308,27366,29207,27167,19461,-27925,-22513,-8720,15823,9,-1,13255,2020-11-02 14:27:28,2020-11-02 14:27:58,4,D7:F2:3B:06:4D:C8,9,9,12401.640607657093,28099.8476177989,-28907.568958578857
10062,29162,21229,-26153,22043,27912,9463,30997,-7182,-2611,9,-1,13280,2020-11-02 14:27:28,2020-11-02 14:27:58,4,D7:F2:3B:06:4D:C8,9,9,39128.674632729686,-19056.88202006623,9531.745021728882
10063,1520,26860,-21303,22808,10751,-17914,-17640,24819,-24370,9,-1,13306,2020-11-02 14:27:28,2020-11-02 14:27:58,4,D7:F2:3B:06:4D:C8,9,9,31606.480957180873,8686.100732672787,-10157.254775047437
10064,-4331,-10260,-14387,-12287,2298,-30957,-10470,-11792,-24626,9,-1,13331,2020-11-02 14:27:28,2020-11-02 14:27:58,4,D7:F2:3B:06:4D:C8,9,9,12690.531517360625,12308.72380715034,-4296.121279266576
10065,-30925,-8971,-6429,21751,7412,30237,20506,23276,29134,9,-1,13357,2020-11-02 14:27:28,2020-11-02 14:27:58,4,D7:F2:3B:06:4D:C8,9,9,14025.777191239611,-12906.813768278555,-26736.833012394673
10066,583,12043,22518,-32269,9463,-22246,-18665,23783,26831,9,-1,13383,2020-11-02 14:27:28,2020-11-02 14:27:58,4,D7:F2:3B:06:4D:C8,9,9,-18237.37410583847,-7737.168656849686,16123.537729020733
10067,5446,2070,-22509,-1810,-7168,15117,-10990,27364,14290,9,-1,13408,2020-11-02 14:27:28,2020-11-02 14:27:58,4,D7:F2:3B:06:4D:C8,9,9,13308.312329106298,13747.624552702673,13209.486708759123
10068,27657,14,21529,18928,-21242,-22776,27404,10724,22230,9,-1,13434,2020-11-02 14:27:28,2020-11-02 14:27:58,4,D7:F2:3B:06:4D:C8,9,9,-5359.852671310997,-15684.631461286775,-30881.580290934813
10069,13,26119,-16887,16366,-22267,26885,-15867,-17436,-17702,9,-1,13459,2020-11-02 14:27:28,2020-11-02 14:27:58,4,D7:F2:3B:06:4D:C8,9,9,-6024.339333096552,25630.99229789326,16556.952268610366
10070,21015,27649,-251,-34,-18675,31488,-22528,-3099,2268,9,-1,13485,2020-11-02 14:27:28,2020-11-02 14:27:58,4,D7:F2:3B:06:4D:C8,9,9,21015.0,-27407.723660528743,-3653.338986200557
10071,-29425,15346,6472,25055,-1511,-24845,509,21481,-21799,9,-1,13511,2020-11-02 14:27:28,2020-11-02 14:27:58,4,D7:F2:3B:06:4D:C8,9,9,-27577.56625082851,-19432.214322481548,-2254.7752008364896
10072,5373,10480,-5845,-1796,20239,-5899,22782,24044,-8747,9,-1,13536,2020-11-02 14:27:28,2020-11-02 14:27:58,4,D7:F2:3B:06:4D:C8,9,9,-12904.691100968541,2422.0666798899915,-682.7112030353705
10073,15615,12275,-20484,13589,-9474,-7696,-24318,32749,-24366,9,-1,13562,2020-11-02 14:27:28,2020-11-02 14:27:58,4,D7:F2:3B:06:4D:C8,9,9,5659.804997087198,-17994.85382722479,21406.773440473466
10074,-6641,-23827,26866,-29409,19451,11250,-16376,-1043,-22577,9,-1,13587,2020-11-02 14:27:28,2020-11-02 14:27:58,4,D7:F2:3B:06:4D:C8,9,9,11421.266676013185,-33063.83251442506,10485.62887829999
10075,-25085,-30227,16621,16164,-18434,-13071,21007,7407,-19508,9,-1,13613,2020-11-02 14:27:28,2020-11-02 14:27:58,4,D7:F2:3B:06:4D:C8,9,9,34570.83302768753,-22929.781168267502,9913.073910100442
10076,6141,6378,25581,5400,-25083,508,3604,16368,-1589,9,-1,13638,2020-11-02 14:27:28,2020-11-02 14:27:58,4,D7:F2:3B:06:4D:C8,9,9,20705.179752391763,6378.0,-16229.447723848962
10077,-3827,31477,30125,25625,-23558,23044,-4584,-15377,18635,9,-1,13664,2020-11-02 14:27:28,2020-11-02 14:27:58,4,D7:F2:3B:06:4D:C8,9,9,21099.763047919456,-34802.888758953224,-16016.30470344455
10078,-7916,-13067,13269,12288,-32006,28680,-27622,28654,-7734,9,-1,13690,2020-11-02 14:27:28,2020-11-02 14:27:58,4,D7:F2:3B:06:4D:C8,9,9,7141.157767250911,-13899.493105857771,-12856.277188340497
10079,27166,17388,-12307,24053,-15627,-20711,-18406,5099,-14903,9,-1,13715,2020-11-02 14:27:28,2020-11-02 14:27:58,4,D7:F2:3B:06:4D:C8,9,9,-28536.916328392483,-16815.677790387344,9730.04295551671
10080,-5803,-25083,19717,12526,-12292,-21728,15637,-3099,9421,9,-1,13741,2020-11-02 14:27:28,2020-11-02 14:27:58,4,D7:F2:3B:06:4D:C8,9,9,3167.585254298323,-8930.13990095786,-31013.074533268584
10081,-31672,-20962,15915,-22026,-16641,-9974,19725,-23581,16339,9,-1,13766,2020-11-02 14:27:28,2020-11-02 14:27:58,4,D7:F2:3B:06:4D:C8,9,9,-19549.11431887796,-1755.001779296712,36201.6622698752
10082,-32490,6172,-491,21498,7172,-761,20745,28131,-24106,9,-1,13792,2020-11-02 14:27:28,2020-11-02 14:27:58,4,D7:F2:3B:06:4D:C8,9,9,-8638.231982623181,19243.48204904016,-25475.55910755748
10083,-23021,-25324,-16637,24559,-26611,27394,30468,-19740,-5927,9,-1,13820,2020-11-02 14:27:28,2020-11-02 14:27:58,4,D7:F2:3B:06:4D:C8,9,9,-8647.106435426871,-29355.40900348265,-22617.44235170389
10084,7437,22530,-31968,19933,-986,13561,8704,11497,-13863,9,-1,13843,2020-11-02 14:27:28,2020-11-02 14:27:58,4,D7:F2:3B:06:4D:C8,9,9,36179.0775551016,-14839.986094830678,-7464.050707703969
10085,-18446,25835,-10203,-30212,-26867,23282,-26881,32493,-15914,9,-1,13869,2020-11-02 14:27:28,2020-11-02 14:27:58,4,D7:F2:3B:06:4D:C8,9,9,4307.166787454045,31435.35313320515,-10250.377439672273
10086,25609,-24342,-4055,23566,-11513,17902,-19198,10479,-21805,9,-1,13894,2020-11-02 14:27:28,2020-11-02 14:27:58,4,D7:F2:3B:06:4D:C8,9,9,-16583.978635911917,-26127.96259280072,-17524.21448604254
10087,25349,-21527,17685,6942,6403,-10517,-5624,23536,-1585,9,-1,13920,2020-11-02 14:27:28,2020-11-02 14:27:58,4,D7:F2:3B:06:4D:C8,9,9,-29953.26427479241,-21527.0,7624.499018587696
10088,-32762,-10258,-27639,4632,-11002,4330,-3058,13810,10445,9,-1,13945,2020-11-02 14:27:28,2020-11-02 14:27:58,4,D7:F2:3B:06:4D:C8,9,9,2419.2681506092413,-15217.880726200521,41292.28471298945
10089,-24082,-30995,-26900,29722,19457,-7181,8724,29684,18123,9,1,13971,2020-11-02 14:27:28,2020-11-02 14:27:58,4,D7:F2:3B:06:4D:C8,9,9,-32625.700259326877,-1297.7476514278278,-34613.903024966305
10090,11253,24037,19178,1052,-6657,-29185,3352,11509,9163,9,1,13997,2020-11-02 14:27:28,2020-11-02 14:27:58,4,D7:F2:3B:06:4D:C8,9,9,-13334.55488937374,23720.71861635095,-18213.187975370492
10091,-18948,32501,-5180,9998,-31235,27400,-15845,14068,-5430,9,1,14022,2020-11-02 14:27:28,2020-11-02 14:27:58,4,D7:F2:3B:06:4D:C8,9,9,-17027.26693910134,-18235.349005575707,28630.723571531264
10092,20226,12022,-11046,6404,-24848,-17390,-19171,-16399,-10039,9,1,14048,2020-11-02 14:27:28,2020-11-02 14:27:58,4,D7:F2:3B:06:4D:C8,9,9,-20413.374315113622,6879.039279795526,14546.705594672963
10093,5165,25587,17651,9983,32753,-23260,-30945,-21268,28615,9,1,14073,2020-11-02 14:27:28,2020-11-02 14:27:58,4,D7:F2:3B:06:4D:C8,9,9,-1249.3102258978379,13344.315859357703,-28518.3809709661
10094,9054,30229,-9733,-11269,29690,-23010,-10209,-17690,30150,9,1,14099,2020-11-02 14:27:28,2020-11-02 14:27:58,4,D7:F2:3B:06:4D:C8,9,9,6494.473099301778,6751.176226602765,31666.103087051924
10095,13110,12825,27661,21245,18950,15119,19742,-21021,-21305,9,1,14124,2020-11-02 14:27:28,2020-11-02 14:27:58,4,D7:F2:3B:06:4D:C8,9,9,6933.369045563803,17756.307717280924,27168.46657298213
10096,-32759,-6381,-25612,4341,-10999,-14589,-7914,15331,19406,9,1,14150,2020-11-02 14:27:28,2020-11-02 14:27:58,4,D7:F2:3B:06:4D:C8,9,9,-2344.617127372281,25586.35176684543,33311.93719658583
10097,23827,-7159,-17688,-22822,8468,13825,21006,9188,14803,9,1,14176,2020-11-02 14:27:28,2020-11-02 14:27:58,4,D7:F2:3B:06:4D:C8,9,9,-19849.768025803227,20343.434719982568,-11134.357957044836
10098,-30426,8176,17458,15567,-18150,-15627,2565,9704,24789,9,1,14201,2020-11-02 14:27:28,2020-11-02 14:27:58,4,D7:F2:3B:06:4D:C8,9,9,7330.733681079022,-4020.6656560791153,35035.19383961104
