id,accelerationx,accelerationy,accelerationz,angularvelocityx,angularvelocityy,angularvelocityz,pitch,roll,yaw,mdlcircle_id,hallsensor,timestamp,starttime,endtime,train_mode,blemac,training_id,training_handle_id,accelerationWorldx,accelerationWorldy,accelerationWorldz
5899,-11268,-28413,-12531,-1538,-25858,-3586,-30462,-2044,19684,6,1,64678,2020-11-02 15:00:37,2020-11-02 15:01:07,2,DF:DC:EF:28:D6:3E,6,6,10596.881945591593,-5507.131109104645,-30800.486262043443
5900,-11013,-31485,1038,16639,-20994,-15362,24322,-13820,5348,6,1,64705,2020-11-02 15:00:37,2020-11-02 15:01:07,2,DF:DC:EF:28:D6:3E,6,6,-16466.705192955327,21365.530393020454,-19647.660652434362
5901,-32260,6915,27150,16383,22526,-20993,16130,-29180,-3357,6,1,64729,2020-11-02 15:00:37,2020-11-02 15:01:07,2,DF:DC:EF:28:D6:3E,6,6,-13955.723188675922,-27565.08051304075,29513.580799195384
5902,26877,-2301,4878,27391,-13058,-513,9474,22788,-5149,6,1,64754,2020-11-02 15:00:37,2020-11-02 15:01:07,2,DF:DC:EF:28:D6:3E,6,6,-26509.33324351447,-5347.931069695509,-4485.253421835163
5903,-13572,26626,2061,-30977,-21250,-25089,4866,13060,-8477,6,1,64780,2020-11-02 15:00:37,2020-11-02 15:01:07,2,DF:DC:EF:28:D6:3E,6,6,26469.16409395471,8056.538673889085,11483.306046754491
5904,13818,1538,-1524,10239,13311,7424,-767,6148,-10781,6,1,64806,2020-11-02 15:00:37,2020-11-02 15:01:07,2,DF:DC:EF:28:D6:3E,6,6,4635.1392416891695,-4372.2470860645135,-12450.86678221856
5905,23808,10755,-23540,-17666,-7169,18177,-9727,3844,-2333,6,1,64831,2020-11-02 15:00:37,2020-11-02 15:01:07,2,DF:DC:EF:28:D6:3E,6,6,23808.0,-13997.275682766041,-21768.736721744935
5906,-17662,26883,3596,-2562,-11266,18689,-18943,-7677,10724,6,1,64857,2020-11-02 15:00:37,2020-11-02 15:01:07,2,DF:DC:EF:28:D6:3E,6,6,20155.225026181502,-16928.418749989512,-18835.304398097487
5907,-14080,16896,12813,-26369,-23043,23295,-25087,-27901,11236,6,1,64882,2020-11-02 15:00:37,2020-11-02 15:01:07,2,DF:DC:EF:28:D6:3E,6,6,24229.40233512307,-652.4753687343127,7772.034699866419
5908,26615,-31486,29455,-11265,766,13822,-29183,18947,-6173,6,1,64908,2020-11-02 15:00:37,2020-11-02 15:01:07,2,DF:DC:EF:28:D6:3E,6,6,-47184.23226709571,4678.233433481842,17862.97296943084
5909,-510,-22269,20236,-12801,-21250,-11521,-31743,2307,-16925,6,1,64934,2020-11-02 15:00:37,2020-11-02 15:01:07,2,DF:DC:EF:28:D6:3E,6,6,-23176.408757101584,11167.731137479677,-15614.096687439584
5910,7672,-14336,3856,-11009,-11010,25857,-32255,-9470,-8477,6,1,64959,2020-11-02 15:00:37,2020-11-02 15:01:07,2,DF:DC:EF:28:D6:3E,6,6,1459.1409200280846,-16642.56795351508,-380.8617703740874
5911,-27387,-26109,16396,-20736,18174,13313,-27135,-23550,4580,6,1,64985,2020-11-02 15:00:37,2020-11-02 15:01:07,2,DF:DC:EF:28:D6:3E,6,6,-5163.351252581288,4657.447584059253,40647.31789238015
5912,-17673,19203,-25841,17665,-15361,12544,-14591,-31230,9700,6,1,65010,2020-11-02 15:00:37,2020-11-02 15:01:07,2,DF:DC:EF:28:D6:3E,6,6,20312.709283418844,-26644.096957630903,15044.379610993394
5913,-12028,258,-29173,31488,11263,6400,-3583,24834,10212,6,1,65036,2020-11-02 15:00:37,2020-11-02 15:01:07,2,DF:DC:EF:28:D6:3E,6,6,15959.672911907415,25333.228331131882,9965.924937890391
5914,29436,-8187,-4339,-25090,-12288,17151,-10239,25602,6628,6,1,65062,2020-11-02 15:00:37,2020-11-02 15:01:07,2,DF:DC:EF:28:D6:3E,6,6,-5459.588421129465,-23447.39729778111,19306.590590569747
5915,-26885,-23297,-2290,-28930,13824,-2562,-25855,32002,-2077,6,1,65087,2020-11-02 15:00:37,2020-11-02 15:01:07,2,DF:DC:EF:28:D6:3E,6,6,7845.394466082995,16961.01314951472,-30357.393705875722
5916,-27132,-27900,-31731,31999,13824,-3074,29697,-31742,-13085,6,1,65113,2020-11-02 15:00:37,2020-11-02 15:01:07,2,DF:DC:EF:28:D6:3E,6,6,-38745.735064872664,7474.29432507389,31053.417261629438
5917,-10506,6147,-21744,2816,-3585,-23553,28673,-28670,-19741,6,1,65138,2020-11-02 15:00:37,2020-11-02 15:01:07,2,DF:DC:EF:28:D6:3E,6,6,11705.15313213582,20968.855167959944,6652.795209411647
5918,1538,-3328,-17140,28160,27136,26112,-32767,-26622,-17949,6,1,65164,2020-11-02 15:00:37,2020-11-02 15:01:07,2,DF:DC:EF:28:D6:3E,6,6,9215.206837780963,-14334.941224318361,4100.006223440754
5919,-30209,17926,-15348,7424,25344,28672,-28415,-23550,-13085,6,1,65190,2020-11-02 15:00:37,2020-11-02 15:01:07,2,DF:DC:EF:28:D6:3E,6,6,-15741.932992773343,-34152.09984989533,7437.195875719133
5920,-24073,-256,32271,-26113,26112,24832,-28927,-20222,-8733,6,1,65215,2020-11-02 15:00:37,2020-11-02 15:01:07,2,DF:DC:EF:28:D6:3E,6,6,-13903.523478386769,-35755.263273278724,-12216.607104449002
5921,-6140,-25598,-5364,-20737,-3584,-28928,-31743,-12286,-3613,6,1,65241,2020-11-02 15:00:37,2020-11-02 15:01:07,2,DF:DC:EF:28:D6:3E,6,6,26258.804689875742,-2117.514814194591,5265.074289183987
5922,13054,-25088,-27891,256,513,-10240,-31487,-3838,3556,6,1,65267,2020-11-02 15:00:37,2020-11-02 15:01:07,2,DF:DC:EF:28:D6:3E,6,6,13054.0,19628.840035728175,-31969.11421750366
5923,16643,-11517,-6644,23808,31234,-27135,-26879,12291,16612,6,1,65292,2020-11-02 15:00:37,2020-11-02 15:01:07,2,DF:DC:EF:28:D6:3E,6,6,-6880.267328330858,-15138.887117490689,-13313.507889905559
5924,29692,3585,-25074,-32256,5380,-23550,-17919,-23037,-24604,6,-1,65318,2020-11-02 15:00:37,2020-11-02 15:01:07,2,DF:DC:EF:28:D6:3E,6,6,6020.60454699271,3872.381764599995,-38365.733999989156
5925,-6915,15618,27152,-28928,-10492,-3069,-5119,22532,15333,6,-1,65345,2020-11-02 15:00:37,2020-11-02 15:01:07,2,DF:DC:EF:28:D6:3E,6,6,-18644.810304016457,3209.631591044938,-25904.431411961312
5926,-9218,-26620,-500,25601,-30203,-20220,19202,8197,1510,6,-1,65369,2020-11-02 15:00:37,2020-11-02 15:01:07,2,DF:DC:EF:28:D6:3E,6,6,-7725.063874211319,26424.160263533788,5994.419613810581
5927,-30727,-29437,4108,10240,23808,11524,-26366,28933,-15386,6,-1,65394,2020-11-02 15:00:37,2020-11-02 15:01:07,2,DF:DC:EF:28:D6:3E,6,6,8334.655575139735,-20554.479807310283,-36545.971574096446
5928,24826,20484,-24820,255,29949,6915,-21246,14597,21223,6,-1,65420,2020-11-02 15:00:37,2020-11-02 15:01:07,2,DF:DC:EF:28:D6:3E,6,6,-5933.173655163242,24867.758593106468,-31596.66066109924
5929,22782,16388,-25845,-32003,22522,8961,29186,-29948,-29721,6,-1,65446,2020-11-02 15:00:37,2020-11-02 15:01:07,2,DF:DC:EF:28:D6:3E,6,6,14872.046548875627,-20706.233804371193,-28383.51997351266
5930,-13313,-26109,27404,-28932,-21002,-12545,-1535,20227,30951,6,-1,65471,2020-11-02 15:00:37,2020-11-02 15:01:07,2,DF:DC:EF:28:D6:3E,6,6,-20200.95814178871,-23752.939981696385,-25251.023709537592
5931,-27905,23810,19212,-9221,3320,32767,25857,-511,20199,6,-1,65497,2020-11-02 15:00:37,2020-11-02 15:01:07,2,DF:DC:EF:28:D6:3E,6,6,27770.18612897382,-2924.6320829506894,-30577.268657313485
5932,22783,-15871,26638,16635,-22526,29183,-19712,-23807,13287,6,-1,65523,2020-11-02 15:00:37,2020-11-02 15:01:07,2,DF:DC:EF:28:D6:3E,6,6,-3907.9209349924786,-38250.59291545117,-1468.696558954416
5933,-7941,-23039,-20979,17148,-13308,28672,4096,-31998,13287,6,-1,12,2020-11-02 15:00:37,2020-11-02 15:01:07,2,DF:DC:EF:28:D6:3E,6,6,30258.438975323574,-10753.225321026102,1663.8686762669586
5934,16636,-32254,-4851,-24836,31233,-6399,-26881,-5630,27111,6,-1,38,2020-11-02 15:00:37,2020-11-02 15:01:07,2,DF:DC:EF:28:D6:3E,6,6,7859.775498611021,-28770.3756938962,-21239.082478852535
5935,9213,15617,1293,16636,-2303,25602,6655,11779,-15897,6,-1,63,2020-11-02 15:00:37,2020-11-02 15:01:07,2,DF:DC:EF:28:D6:3E,6,6,3041.695316877168,-11015.519042742251,-14136.772503590428
5936,-19456,-21248,-5106,20476,5378,-11775,-27906,22787,5352,6,-1,89,2020-11-02 15:00:37,2020-11-02 15:01:07,2,DF:DC:EF:28:D6:3E,6,6,17462.996798943608,17752.853197152308,15361.140001980462
5937,-16644,-10241,-19185,14846,14593,28673,14078,-17917,18408,6,-1,115,2020-11-02 15:00:37,2020-11-02 15:01:07,2,DF:DC:EF:28:D6:3E,6,6,-19561.35614770306,-19137.652269652237,-1033.7568711231243
5938,29950,-15361,-17651,1023,-13824,29440,3582,-5885,26600,6,-1,140,2020-11-02 15:00:37,2020-11-02 15:01:07,2,DF:DC:EF:28:D6:3E,6,6,-31910.98035687683,-13446.638628850977,15665.179994117963
5939,-32004,-21504,13069,-26113,-16128,2047,-1795,2820,22760,6,-1,166,2020-11-02 15:00:37,2020-11-02 15:01:07,2,DF:DC:EF:28:D6:3E,6,6,34718.364514520035,16772.39390894799,13069.0
5940,-774,-18175,-8182,-12802,11516,-29699,-11267,-20221,5352,6,-1,191,2020-11-02 15:00:37,2020-11-02 15:01:07,2,DF:DC:EF:28:D6:3E,6,6,-768.1410702680427,-16704.91000685165,-10873.397167360123
5941,-6,-11775,-10743,15100,12279,6141,25341,-25086,-15129,6,-1,217,2020-11-02 15:00:37,2020-11-02 15:01:07,2,DF:DC:EF:28:D6:3E,6,6,-5414.06599216175,-10787.828501021182,-10410.252430420345
5942,25851,22786,28682,14330,24310,-12548,-25348,6913,32743,6,-1,243,2020-11-02 15:00:37,2020-11-02 15:01:07,2,DF:DC:EF:28:D6:3E,6,6,-31493.957920186233,-22562.795777951826,-22565.105410876724
5943,504,16642,-8948,13561,-11790,19966,-23301,22783,27111,6,-1,268,2020-11-02 15:00:37,2020-11-02 15:01:07,2,DF:DC:EF:28:D6:3E,6,6,-4482.613102287972,1091.7503151679066,-18330.06123897372
5944,-11531,14595,26384,-14599,-29712,-31741,-28166,-7172,10984,6,-1,294,2020-11-02 15:00:37,2020-11-02 15:01:07,2,DF:DC:EF:28:D6:3E,6,6,24282.333655263043,-16795.27621819053,-13052.984754804682
5945,20477,11264,32273,17150,18937,10505,-8711,-8965,-26391,6,-1,319,2020-11-02 15:00:37,2020-11-02 15:01:07,2,DF:DC:EF:28:D6:3E,6,6,-28012.42314807323,-18424.23936151811,21530.984820086094
5946,9979,13312,14360,13317,29700,2315,-4359,-30212,6379,6,-1,345,2020-11-02 15:00:37,2020-11-02 15:01:07,2,DF:DC:EF:28:D6:3E,6,6,-2232.2017574404945,21161.610573742408,-5495.7163536115295
5947,-25347,-14849,30742,1037,-10229,-25330,25851,31486,-21012,6,1,371,2020-11-02 15:00:37,2020-11-02 15:01:07,2,DF:DC:EF:28:D6:3E,6,6,3363.209450171551,-32825.46120686451,-26818.12246878796
5948,-1536,-32767,31505,18956,30985,-15089,23805,30464,-15378,6,1,396,2020-11-02 15:00:37,2020-11-02 15:01:07,2,DF:DC:EF:28:D6:3E,6,6,43015.092073006854,-14772.407388378477,-280.0783863912329
5949,-5375,-23807,-6121,-3831,9980,17939,5631,8961,22769,6,1,422,2020-11-02 15:00:37,2020-11-02 15:01:07,2,DF:DC:EF:28:D6:3E,6,6,11333.804697862575,22432.062329712287,1215.7161291235602
5950,14866,-7940,-23276,-13303,32001,16658,-6144,2560,-27404,6,1,448,2020-11-02 15:00:37,2020-11-02 15:01:07,2,DF:DC:EF:28:D6:3E,6,6,8352.410060513543,26857.072592792763,-5894.796852012123
5951,-30444,-12812,-13288,12804,-5632,-23549,-23039,26368,-6411,6,1,473,2020-11-02 15:00:37,2020-11-02 15:01:07,2,DF:DC:EF:28:D6:3E,6,6,26674.016169514747,-7430.168228389399,-22379.564014660755
5952,29970,8692,2578,-14846,3325,-13570,4610,0,-3083,6,1,499,2020-11-02 15:00:37,2020-11-02 15:01:07,2,DF:DC:EF:28:D6:3E,6,6,29970.0,8692.0,2578.0
5953,-1521,-27662,-21492,-17407,-9989,5628,21250,20735,29429,6,1,524,2020-11-02 15:00:37,2020-11-02 15:01:07,2,DF:DC:EF:28:D6:3E,6,6,30291.268208557485,4833.535553664284,-16984.750612496427
5954,-21745,7661,15116,-8959,-29443,2038,29954,-12802,22004,6,1,575,2020-11-02 15:00:37,2020-11-02 15:01:07,2,DF:DC:EF:28:D6:3E,6,6,-14064.01302963714,-14831.952521829546,-18499.895240038273
5955,-28925,5351,-5115,-25083,-23809,-11031,4355,-3074,-17423,6,1,577,2020-11-02 15:00:37,2020-11-02 15:01:07,2,DF:DC:EF:28:D6:3E,6,6,29390.666127296234,-1215.5536161773239,-5115.0
5956,21227,6384,1534,-1533,-24578,-7452,-7421,30463,-19219,6,1,601,2020-11-02 15:00:37,2020-11-02 15:01:07,2,DF:DC:EF:28:D6:3E,6,6,-9605.032158721478,-6157.186693781285,19066.372236160943
5957,-11296,-22275,21749,-24067,-10241,21233,-5629,7168,-22550,6,1,627,2020-11-02 15:00:37,2020-11-02 15:01:07,2,DF:DC:EF:28:D6:3E,6,6,-15219.275279319543,20330.715453937744,21256.291094716173
5958,21474,-31222,17648,32755,-2816,-1545,-20990,-28928,12009,6,1,652,2020-11-02 15:00:37,2020-11-02 15:01:07,2,DF:DC:EF:28:D6:3E,6,6,-27691.697185679957,-19752.74569891797,-24298.08240027353
5959,-30503,32016,26870,-29719,31492,31998,-8705,24065,29416,6,1,678,2020-11-02 15:00:37,2020-11-02 15:01:07,2,DF:DC:EF:28:D6:3E,6,6,46591.889834885485,-16813.838513058286,-14964.7853666764
5960,5332,4105,-11002,30949,-17658,-29684,15100,-26878,25833,6,1,703,2020-11-02 15:00:37,2020-11-02 15:01:07,2,DF:DC:EF:28:D6:3E,6,6,4445.0504393823085,-7545.062942861722,-9467.777182612714
5961,10975,-1802,5657,4580,13829,-30184,31992,-24572,12780,6,1,729,2020-11-02 15:00:37,2020-11-02 15:01:07,2,DF:DC:EF:28:D6:3E,6,6,-2532.0725123590632,-6274.391907445667,-10484.278372112025
5962,-3347,-19223,-32735,-26137,-27647,32283,27893,-17914,-5649,6,-1,755,2020-11-02 15:00:37,2020-11-02 15:01:07,2,DF:DC:EF:28:D6:3E,6,6,-1759.0592079608218,-12208.938360043818,-36057.64687030393
5963,-1540,-1056,29221,9964,21764,-5350,23795,6665,-29453,6,-1,780,2020-11-02 15:00:37,2020-11-02 15:01:07,2,DF:DC:EF:28:D6:3E,6,6,-26472.390938048524,-9096.189171738506,-8592.173041499655
5964,-4086,21208,-19160,14317,27142,-2540,-27919,-10997,13558,6,-1,806,2020-11-02 15:00:37,2020-11-02 15:01:07,2,DF:DC:EF:28:D6:3E,6,6,10344.652978757547,-24136.259972927706,12000.390379830584
5965,30487,-1575,32291,27119,15372,-20729,-6674,25358,29942,6,-1,833,2020-11-02 15:00:37,2020-11-02 15:01:07,2,DF:DC:EF:28:D6:3E,6,6,15557.145345803196,40198.65779259594,10802.296763342465
5966,-17897,23519,-12769,19456,4604,-5375,18670,24078,11511,6,-1,857,2020-11-02 15:00:37,2020-11-02 15:01:07,2,DF:DC:EF:28:D6:3E,6,6,19691.56107196082,8593.568465849849,-23976.787411410816
5967,-4334,3044,26129,2829,-4614,-8964,-8209,29197,-28425,6,-1,883,2020-11-02 15:00:37,2020-11-02 15:01:07,2,DF:DC:EF:28:D6:3E,6,6,-9837.459536133822,-24763.435517484737,-877.9431908188944
5968,13072,9962,-19450,-10484,-17160,-26889,-13583,-4597,24823,6,-1,908,2020-11-02 15:00:37,2020-11-02 15:01:07,2,DF:DC:EF:28:D6:3E,6,6,-25066.555321514774,4377.091782163228,-964.3649951955222
5969,-10995,21742,26112,3337,-19472,-4879,2803,13833,-12042,6,-1,934,2020-11-02 15:00:37,2020-11-02 15:01:07,2,DF:DC:EF:28:D6:3E,6,6,7985.037081001365,-34798.35735215862,-868.7009879706129
5970,22272,20714,30462,-22012,-24330,-29972,27379,13062,25077,6,-1,960,2020-11-02 15:00:37,2020-11-02 15:01:07,2,DF:DC:EF:28:D6:3E,6,6,34410.35160228934,25285.485515329652,-5442.163986952075
5971,7158,-32535,21760,16900,-8452,20970,27123,-14333,4851,6,-1,985,2020-11-02 15:00:37,2020-11-02 15:01:07,2,DF:DC:EF:28:D6:3E,6,6,-12434.821233352184,37734.31750269813,2181.121844405553
5972,10217,-21777,1540,5640,-12540,19689,-8973,16898,-2833,6,1,1011,2020-11-02 15:00:37,2020-11-02 15:01:07,2,DF:DC:EF:28:D6:3E,6,6,13167.437792185214,-10470.29799828632,-17262.324867062784
5973,5861,1532,16125,5640,18439,-6675,-7436,-13567,-14868,6,1,1036,2020-11-02 15:00:37,2020-11-02 15:01:07,2,DF:DC:EF:28:D6:3E,6,6,16914.62762101291,2364.4649495559843,2240.2339040350953
5974,17383,10242,-20984,3589,-21496,-32271,31477,-7167,2794,6,1,1062,2020-11-02 15:00:37,2020-11-02 15:01:07,2,DF:DC:EF:28:D6:3E,6,6,22665.160376952605,-17216.798876016932,6104.74000673244
5975,2537,10245,771,-18424,21513,-17163,32758,28418,-11545,6,1,1088,2020-11-02 15:00:37,2020-11-02 15:01:07,2,DF:DC:EF:28:D6:3E,6,6,979.7340200318608,-6619.250323522365,8198.565813881187
5976,4071,-32253,-13307,13063,1037,1787,-29705,-14845,7654,6,1,1113,2020-11-02 15:00:37,2020-11-02 15:01:07,2,DF:DC:EF:28:D6:3E,6,6,13095.093538836363,27078.52613726155,18143.242445681237
5977,16872,20483,-11001,3072,4363,13570,-2569,-22011,23525,6,1,1139,2020-11-02 15:00:37,2020-11-02 15:01:07,2,DF:DC:EF:28:D6:3E,6,6,25404.738815652905,-1922.5006281058895,13271.88423108758
5978,12018,-7173,1806,-16651,17412,9476,6391,3335,-28443,6,1,1164,2020-11-02 15:00:37,2020-11-02 15:01:07,2,DF:DC:EF:28:D6:3E,6,6,-3772.3238554627605,12621.846036803192,-5060.0854096291805
5979,14069,3579,-20714,-9485,19709,-26363,31221,24071,14822,6,1,1190,2020-11-02 15:00:37,2020-11-02 15:01:07,2,DF:DC:EF:28:D6:3E,6,6,18033.910047853096,5886.726141682983,16731.41780360437
5980,32253,-24584,-29159,9717,27388,17416,12788,26631,-28185,6,1,1216,2020-11-02 15:00:37,2020-11-02 15:01:07,2,DF:DC:EF:28:D6:3E,6,6,-19083.92363790838,-34119.50450856381,31089.22026478914
5981,-26622,-17929,15902,-4360,-9219,-15353,22259,-23033,-5144,6,1,1241,2020-11-02 15:00:37,2020-11-02 15:01:07,2,DF:DC:EF:28:D6:3E,6,6,3572.2474899047847,15505.485103381377,32091.626767424663
5982,-17914,27894,-29921,-30722,16637,7686,14835,-12281,6378,6,-1,1267,2020-11-02 15:00:37,2020-11-02 15:01:07,2,DF:DC:EF:28:D6:3E,6,6,-27676.876331154705,-14233.142908804588,-32025.943116284878
5983,-24568,24565,-13029,26371,21755,-29950,-10253,-30969,1003,6,-1,1292,2020-11-02 15:00:37,2020-11-02 15:01:07,2,DF:DC:EF:28:D6:3E,6,6,-33541.124010201376,2309.0006825887704,15698.477823664856
5984,2312,-6923,23061,-5116,-11784,3583,-17420,-22010,-28693,6,-1,1318,2020-11-02 15:00:37,2020-11-02 15:01:07,2,DF:DC:EF:28:D6:3E,6,6,-9467.359073905931,3629.6911596848386,21960.816201840877
5985,-31483,30709,7186,22021,1527,-13571,-25867,17669,-5397,6,-1,1344,2020-11-02 15:00:37,2020-11-02 15:01:07,2,DF:DC:EF:28:D6:3E,6,6,33784.80178011558,-25511.12468438343,-13915.10876767197
5986,23559,7669,27147,22281,-5642,-30214,-11786,-20221,-789,6,-1,1369,2020-11-02 15:00:37,2020-11-02 15:01:07,2,DF:DC:EF:28:D6:3E,6,6,-20744.89445586713,21493.267156556743,21412.34391541039
5987,26114,30708,-757,2574,-9990,-18442,30968,19458,14059,6,-1,1395,2020-11-02 15:00:37,2020-11-02 15:01:07,2,DF:DC:EF:28:D6:3E,6,6,5239.86616033682,-30636.75705809601,25679.3346600912
5988,12539,-26889,11260,-1266,1280,-17416,-20742,-21503,2026,6,-1,1420,2020-11-02 15:00:37,2020-11-02 15:01:07,2,DF:DC:EF:28:D6:3E,6,6,-11375.897241142186,28208.91953184348,9048.660829368777
5989,-1796,-13831,-26119,-15867,14849,-3335,3068,-22271,6377,6,-1,1446,2020-11-02 15:00:37,2020-11-02 15:01:07,2,DF:DC:EF:28:D6:3E,6,6,14590.564579788976,-2875.174207605326,25604.162484231514
5990,23035,-5384,-2310,23807,-2049,-24586,10748,-31231,-5657,6,-1,1472,2020-11-02 15:00:37,2020-11-02 15:01:07,2,DF:DC:EF:28:D6:3E,6,6,992.9396206173708,-965.1896398878237,-23727.98476206653
5991,-5133,-519,4093,13819,-2560,-9740,-31237,19713,16358,6,-1,1497,2020-11-02 15:00:37,2020-11-02 15:01:07,2,DF:DC:EF:28:D6:3E,6,6,1549.0869405523943,6400.425829444817,67.6598284482759
5992,-29968,28922,-29180,27383,-19453,-21255,20986,-31999,-8220,6,-1,1523,2020-11-02 15:00:37,2020-11-02 15:01:07,2,DF:DC:EF:28:D6:3E,6,6,-8139.617754921004,-32695.453621864,38089.23001668995
5993,29172,8186,-2548,32757,-10239,5629,-18952,-7935,12004,6,-1,1548,2020-11-02 15:00:37,2020-11-02 15:01:07,2,DF:DC:EF:28:D6:3E,6,6,1615.5885057021578,16808.014076712316,25286.142856855095
5994,-4361,-6406,-28400,23542,-14593,19709,9719,-10751,-14621,6,-1,1574,2020-11-02 15:00:37,2020-11-02 15:01:07,2,DF:DC:EF:28:D6:3E,6,6,12302.590930456541,-22227.45509144823,-14872.849543900475
5995,31736,11004,27157,-31241,-24576,11006,-14603,-16383,28643,6,-1,1600,2020-11-02 15:00:37,2020-11-02 15:01:07,2,DF:DC:EF:28:D6:3E,6,6,11191.19870739902,-17815.492956709608,37724.3905610275
5996,-13829,-26116,14874,-11271,17665,-19201,-18956,-8447,16867,6,-1,1625,2020-11-02 15:00:37,2020-11-02 15:01:07,2,DF:DC:EF:28:D6:3E,6,6,-26174.628773864235,-9979.988033471487,-17601.45506491336
5997,25854,-5893,8991,27390,9987,26112,13300,12546,7651,6,1,1651,2020-11-02 15:00:37,2020-11-02 15:01:07,2,DF:DC:EF:28:D6:3E,6,6,-5468.110379467947,-19108.554545732823,-19722.012018318732
5998,16637,-6404,10527,-24059,-8188,29952,-21260,-13822,-9758,6,1,1676,2020-11-02 15:00:37,2020-11-02 15:01:07,2,DF:DC:EF:28:D6:3E,6,6,7520.278908011591,2771.385126544964,19088.832956105027
5999,1533,-3,-26342,29194,4356,8448,4342,28931,-26910,6,1,1702,2020-11-02 15:00:37,2020-11-02 15:01:07,2,DF:DC:EF:28:D6:3E,6,6,-16792.99613082473,19447.877971652386,-6002.198376413715
6000,10492,-18945,28180,-1526,-1792,-31745,-14345,-17661,26594,6,1,1728,2020-11-02 15:00:37,2020-11-02 15:01:07,2,DF:DC:EF:28:D6:3E,6,6,32655.559142363174,-13453.95928456893,-3963.9532879163053
6001,-260,-1537,24080,21257,-25602,-11264,23801,-22269,30946,6,1,1753,2020-11-02 15:00:37,2020-11-02 15:01:07,2,DF:DC:EF:28:D6:3E,6,6,19095.150305720366,3235.0141217703335,14393.967049909967
6002,-7682,5887,-24562,30472,-25603,26113,-15622,26883,-16414,6,1,1779,2020-11-02 15:00:37,2020-11-02 15:01:07,2,DF:DC:EF:28:D6:3E,6,6,-23092.392067883426,9098.151915040053,-8995.932264863262
6003,27647,13310,15117,29191,22269,-20479,2044,4099,4323,6,1,1805,2020-11-02 15:00:37,2020-11-02 15:01:07,2,DF:DC:EF:28:D6:3E,6,6,27647.0,13310.0,15117.0
6004,-28671,24061,9483,-6651,-23044,25601,4349,-23294,24803,6,1,1830,2020-11-02 15:00:37,2020-11-02 15:01:07,2,DF:DC:EF:28:D6:3E,6,6,1268.6984479026733,-35341.652716372395,15499.781886323977
6005,-13311,29692,-28660,774,-13829,6145,-3843,6146,-25117,6,1,1857,2020-11-02 15:00:37,2020-11-02 15:01:07,2,DF:DC:EF:28:D6:3E,6,6,-2006.3637334885698,-43102.35428103285,-4284.243807402976
6006,27648,-29188,-16629,-15355,252,-24320,-10754,28929,-14621,6,1,1881,2020-11-02 15:00:37,2020-11-02 15:01:07,2,DF:DC:EF:28:D6:3E,6,6,-24111.55927539321,18836.105950529924,30930.70821901127
6007,31489,-28676,-14070,1542,-30724,-5120,-15361,-9728,-4893,6,1,1907,2020-11-02 15:00:37,2020-11-02 15:01:07,2,DF:DC:EF:28:D6:3E,6,6,-9854.756689735106,-860.3881106114859,43749.03998815562
6008,-1535,4349,-14073,17667,-21509,14080,29952,14848,996,6,1,1933,2020-11-02 15:00:37,2020-11-02 15:01:07,2,DF:DC:EF:28:D6:3E,6,6,-6783.209006998824,-12261.294472754777,4792.503356259981
6009,-15614,19964,-7927,-255,3836,-5121,-15872,-29185,228,6,1,1958,2020-11-02 15:00:37,2020-11-02 15:01:07,2,DF:DC:EF:28:D6:3E,6,6,-18673.363231776122,-15515.95614727433,10759.006991819064
6010,25346,24828,-32501,-27388,-10754,-26626,16641,13823,-8221,6,-1,1984,2020-11-02 15:00:37,2020-11-02 15:01:07,2,DF:DC:EF:28:D6:3E,6,6,28211.344058509236,-8362.06954353025,-38070.463096232226
6011,-16129,-18178,-30455,6660,29950,21501,-2815,5375,-31517,6,-1,2009,2020-11-02 15:00:37,2020-11-02 15:01:07,2,DF:DC:EF:28:D6:3E,6,6,12856.138075490155,-20622.900833392287,-30455.0
6012,3070,9216,21769,20993,-13316,-19716,21506,-18434,227,6,-1,2035,2020-11-02 15:00:37,2020-11-02 15:01:07,2,DF:DC:EF:28:D6:3E,6,6,-181.5142935322724,-12195.812304124955,20481.16529408905
6013,-30213,13826,14857,-30208,21501,-20484,31234,22782,29154,6,-1,2061,2020-11-02 15:00:37,2020-11-02 15:01:07,2,DF:DC:EF:28:D6:3E,6,6,25544.855504521707,-22304.45591763081,13216.871697628409
6014,-21000,15620,17161,-13569,25598,26365,-29438,9726,-2591,6,-1,2086,2020-11-02 15:00:37,2020-11-02 15:01:07,2,DF:DC:EF:28:D6:3E,6,6,5353.757323147028,-12025.296140558523,28393.9052660376
6015,-26888,-5628,13578,2814,3839,10494,27138,2814,-24607,6,-1,2112,2020-11-02 15:00:37,2020-11-02 15:01:07,2,DF:DC:EF:28:D6:3E,6,6,7014.315842255925,-29470.22153502828,-4615.888640493104
6016,3065,-13819,25868,9981,-12800,-29443,5122,9726,19169,6,-1,2137,2020-11-02 15:00:37,2020-11-02 15:01:07,2,DF:DC:EF:28:D6:3E,6,6,-21238.652877478788,16986.18820142173,11397.431479760837
6017,7927,-507,-18162,28156,-29183,15358,-23551,28670,-1824,6,-1,2163,2020-11-02 15:00:37,2020-11-02 15:01:07,2,DF:DC:EF:28:D6:3E,6,6,-8767.317677428566,14076.444235560442,10860.040535200857
6018,23797,27397,17168,-15109,-20735,19712,3841,-15874,-6688,6,-1,2189,2020-11-02 15:00:37,2020-11-02 15:01:07,2,DF:DC:EF:28:D6:3E,6,6,9268.580753576714,36271.83895509619,14494.141976329405
6019,6902,24837,14866,-9476,-20478,6402,-32256,11007,8673,6,-1,2214,2020-11-02 15:00:37,2020-11-02 15:01:07,2,DF:DC:EF:28:D6:3E,6,6,20827.42228451043,19092.31343625317,9338.853122013712
6020,-12040,30215,10513,-25090,8195,8707,15104,-20737,-29215,6,-1,2240,2020-11-02 15:00:37,2020-11-02 15:01:07,2,DF:DC:EF:28:D6:3E,6,6,23680.611224881326,2025.622227264736,-24567.386930816134
6021,8187,18183,21522,-2051,-9212,26117,1536,20992,13538,6,-1,2265,2020-11-02 15:00:37,2020-11-02 15:01:07,2,DF:DC:EF:28:D6:3E,6,6,-14424.771318838684,-12175.011587904097,-22461.96801782092
6022,5376,5379,-6121,-5380,-27645,2056,-20225,3073,20451,6,-1,2291,2020-11-02 15:00:37,2020-11-02 15:01:07,2,DF:DC:EF:28:D6:3E,6,6,-4448.812841611429,6885.690281513818,5300.6595483373
6023,-23801,25344,17175,-11521,-1793,6151,-31489,13313,31716,6,-1,2317,2020-11-02 15:00:37,2020-11-02 15:01:07,2,DF:DC:EF:28:D6:3E,6,6,1435.5723007296383,-37569.31893745358,9501.156179395723
6024,22794,-30723,-6378,19459,9218,28165,-7937,20481,26853,6,-1,2342,2020-11-02 15:00:37,2020-11-02 15:01:07,2,DF:DC:EF:28:D6:3E,6,6,-3941.1571160307712,29043.245491169702,-25398.921648889165
6025,22539,-21764,28693,-13307,-30207,-28157,-22784,-28671,6118,6,-1,2368,2020-11-02 15:00:37,2020-11-02 15:01:07,2,DF:DC:EF:28:D6:3E,6,6,-31209.38685313715,-1233.4583732994724,-28799.639211152757
6026,-12535,-20227,-31984,8454,4606,1,-26367,25857,25830,6,-1,2394,2020-11-02 15:00:37,2020-11-02 15:01:07,2,DF:DC:EF:28:D6:3E,6,6,25738.491548979477,-27458.182603685706,-13145.808110791962
6027,-30970,-28673,-1524,-14332,5116,-7681,25090,-11776,23782,6,1,2419,2020-11-02 15:00:37,2020-11-02 15:01:07,2,DF:DC:EF:28:D6:3E,6,6,18376.34539849541,-5631.9565715145345,-37605.7894475275
6028,-3579,-22018,3853,-1533,-32002,30722,1027,22016,-32538,6,1,2445,2020-11-02 15:00:37,2020-11-02 15:01:07,2,DF:DC:EF:28:D6:3E,6,6,22272.898923374876,-2326.628606416441,-3309.3725805552517
6029,-24057,3069,26644,-31738,-5890,22528,-14077,7168,-17434,6,1,2470,2020-11-02 15:00:37,2020-11-02 15:01:07,2,DF:DC:EF:28:D6:3E,6,6,27668.144456426475,-19238.163214053635,12744.708882032204
6030,-5376,25343,-29425,-30454,-8453,-3587,14085,-21505,26598,6,1,2496,2020-11-02 15:00:37,2020-11-02 15:01:07,2,DF:DC:EF:28:D6:3E,6,6,12043.870789328554,-10854.287891354994,-35694.94727242979
6031,25087,-23039,-28406,-20219,-2823,1025,28934,-7426,8934,6,1,2547,2020-11-02 15:00:37,2020-11-02 15:01:07,2,DF:DC:EF:28:D6:3E,6,6,29362.84939920517,-16780.439649772525,28693.097537908634
6032,-31230,-29183,-15094,28162,-13320,30462,-2554,-6147,-8987,6,1,2549,2020-11-02 15:00:37,2020-11-02 15:01:07,2,DF:DC:EF:28:D6:3E,6,6,-26811.047216711802,-12256.623047688183,-34434.461860324314
6033,-8450,27139,31238,-13824,4858,-17670,18951,6653,-4124,6,1,2573,2020-11-02 15:00:37,2020-11-02 15:01:07,2,DF:DC:EF:28:D6:3E,6,6,-27365.6565536083,-31275.71317701362,-7529.347359441694
6034,23291,15109,19205,-27904,23293,-8966,-31481,-11524,-3869,6,1,2598,2020-11-02 15:00:37,2020-11-02 15:01:07,2,DF:DC:EF:28:D6:3E,6,6,-27820.337802826347,-14130.288734741689,12882.0934560134
6035,-10757,-25340,15618,16894,-9474,-20230,-26873,-6660,9443,6,1,2624,2020-11-02 15:00:37,2020-11-02 15:01:07,2,DF:DC:EF:28:D6:3E,6,6,6228.45270171833,18479.747543675625,-24929.016841112534
6036,-12553,-1018,-4348,-3334,3839,-16648,9223,7933,8418,6,1,2650,2020-11-02 15:00:37,2020-11-02 15:01:07,2,DF:DC:EF:28:D6:3E,6,6,-7737.961649286592,-6297.55245888281,8830.856104692739
6037,28401,8459,1797,764,-21248,8187,-27642,29949,11745,6,1,2675,2020-11-02 15:00:37,2020-11-02 15:01:07,2,DF:DC:EF:28:D6:3E,6,6,4997.612087333348,5634.620897575591,28717.16580314192
6038,16881,22795,-2298,20988,-15355,-26365,6150,7422,22497,6,1,2701,2020-11-02 15:00:37,2020-11-02 15:01:07,2,DF:DC:EF:28:D6:3E,6,6,-25985.191191340775,-10689.83960114272,-4512.001557103725
6039,11253,13576,-5366,30457,-2555,-4601,17413,-6658,-27678,6,1,2726,2020-11-02 15:00:37,2020-11-02 15:01:07,2,DF:DC:EF:28:D6:3E,6,6,9599.91369197571,8288.384313477254,13374.456384418823
6040,-30984,-5627,-20978,-27914,-6654,7945,-3069,19711,484,6,1,2752,2020-11-02 15:00:37,2020-11-02 15:01:07,2,DF:DC:EF:28:D6:3E,6,6,27713.511985588306,-5627.0,25140.524923411067
6041,27642,12804,23058,21749,15362,-9975,23298,31231,31461,6,1,2778,2020-11-02 15:00:37,2020-11-02 15:01:07,2,DF:DC:EF:28:D6:3E,6,6,17667.75339761861,-27712.324727488896,19482.59459310139
6042,-9218,-2304,26393,3830,-12796,-1012,-15104,-4865,18663,6,1,2803,2020-11-02 15:00:37,2020-11-02 15:01:07,2,DF:DC:EF:28:D6:3E,6,6,5603.693294826226,-26008.9673699191,-8888.342185582358
6043,-28664,-11525,31782,-26119,-1786,-25332,-30721,-6144,21481,6,1,2829,2020-11-02 15:00:37,2020-11-02 15:01:07,2,DF:DC:EF:28:D6:3E,6,6,18398.137096401886,31464.271533815943,-25220.11525009948
6044,-15605,-3589,-20698,2305,9473,18439,18943,30977,-15894,6,1,2854,2020-11-02 15:00:37,2020-11-02 15:01:07,2,DF:DC:EF:28:D6:3E,6,6,15703.706859153892,18756.252735918846,-9295.19898593353
6045,7178,15103,-24805,-18170,30971,25603,2048,-2048,31723,6,1,2881,2020-11-02 15:00:37,2020-11-02 15:01:07,2,DF:DC:EF:28:D6:3E,6,6,16518.760487492418,-2599.0084564809013,-24805.0
6046,7,7170,-8174,26889,-7174,24577,22529,8448,-14613,6,1,2906,2020-11-02 15:00:37,2020-11-02 15:01:07,2,DF:DC:EF:28:D6:3E,6,6,-8595.110593794921,-4495.482188446511,4913.037632035244
6047,23555,-18429,15884,19722,23290,28160,-6398,16895,-12821,6,-1,2931,2020-11-02 15:00:37,2020-11-02 15:01:07,2,DF:DC:EF:28:D6:3E,6,6,-1936.8174039151345,-12423.107796159486,-31443.324458919626
6048,3073,8709,4866,-24317,-23559,-26624,3844,16126,-19221,6,-1,2957,2020-11-02 15:00:37,2020-11-02 15:01:07,2,DF:DC:EF:28:D6:3E,6,6,-1885.3260751690004,-9065.783085975854,-4819.241499273715
6049,-21499,-20990,-32504,-252,15353,-14338,-25340,15613,32491,6,-1,2982,2020-11-02 15:00:37,2020-11-02 15:01:07,2,DF:DC:EF:28:D6:3E,6,6,40665.671003529766,-2383.8607893019653,17318.127109185545
6050,22789,1028,1540,19974,-26628,28157,-24571,-26372,491,6,-1,3008,2020-11-02 15:00:37,2020-11-02 15:01:07,2,DF:DC:EF:28:D6:3E,6,6,-15068.90330838323,-1837.4214850220026,-17097.337230369427
6051,7,26629,-21243,2307,-26882,13565,26374,25340,-31510,6,-1,3034,2020-11-02 15:00:37,2020-11-02 15:01:07,2,DF:DC:EF:28:D6:3E,6,6,33451.50257641968,-4953.6865163165985,4102.036601232359
6052,-9977,-4347,-25596,-26111,-29188,6393,-4602,12540,-22295,6,-1,3059,2020-11-02 15:00:37,2020-11-02 15:01:07,2,DF:DC:EF:28:D6:3E,6,6,18317.662990667544,7002.061907221345,19723.754855700485
6053,16131,9991,29697,-24834,-25093,-15880,11015,-6917,20200,6,-1,3085,2020-11-02 15:00:37,2020-11-02 15:01:07,2,DF:DC:EF:28:D6:3E,6,6,14506.436967397996,17721.199965046744,26785.50744917363
6054,-26622,30471,-1537,25083,16382,4858,-5370,-15877,15591,6,-1,3110,2020-11-02 15:00:37,2020-11-02 15:01:07,2,DF:DC:EF:28:D6:3E,6,6,-32899.154373133955,-1335.7871187504563,-23567.69840918034
6055,2,-16123,-5630,-19975,-29696,11258,14598,-1285,24550,6,-1,3136,2020-11-02 15:00:37,2020-11-02 15:01:07,2,DF:DC:EF:28:D6:3E,6,6,8950.818582183852,-7733.3855319420245,-12317.695722950055
6056,-31747,-9980,21509,8184,-25599,-27912,20997,27388,26085,6,-1,3162,2020-11-02 15:00:37,2020-11-02 15:01:07,2,DF:DC:EF:28:D6:3E,6,6,-19614.03044777467,-33181.26476929213,-9187.108789162172
6057,-32011,771,-5622,14584,23300,24830,13316,2813,-16412,6,-1,3187,2020-11-02 15:00:37,2020-11-02 15:01:07,2,DF:DC:EF:28:D6:3E,6,6,17677.921241016982,27113.668499963387,3040.6458311506353
6058,22776,26113,1038,25081,-7930,2308,7683,510,18405,6,-1,3213,2020-11-02 15:00:37,2020-11-02 15:01:07,2,DF:DC:EF:28:D6:3E,6,6,-24415.858344873046,-9888.863944024635,22534.16561977973
6059,22269,18945,5648,6133,29953,22785,-18943,-26114,-12571,6,-1,3238,2020-11-02 15:00:37,2020-11-02 15:01:07,2,DF:DC:EF:28:D6:3E,6,6,-7669.077425215137,26396.66749564215,-11450.872742746065
6060,17403,30466,-6895,22262,1280,-30722,3072,-25346,-20251,6,-1,3264,2020-11-02 15:00:37,2020-11-02 15:01:07,2,DF:DC:EF:28:D6:3E,6,6,20726.815665440045,-27819.43469350667,-8663.761059989269
6061,18418,25091,-32753,-29699,-765,5636,16639,-258,-11291,6,-1,3290,2020-11-02 15:00:37,2020-11-02 15:01:07,2,DF:DC:EF:28:D6:3E,6,6,26225.90752331378,-5048.399491325044,36445.23907391174
6062,20215,18177,-7150,-3,-7417,-26355,2303,14848,23783,6,-1,3315,2020-11-02 15:00:37,2020-11-02 15:01:07,2,DF:DC:EF:28:D6:3E,6,6,23504.76468609352,-594.4147874118471,-15405.99760196909
6063,21252,-6656,14103,-13318,19457,24585,31230,-1536,12777,6,-1,3341,2020-11-02 15:00:37,2020-11-02 15:01:07,2,DF:DC:EF:28:D6:3E,6,6,-19424.22239286683,14482.248503431458,10383.087773745729
6064,-4859,20992,-18665,-14849,-14336,23554,4350,-2560,-4631,6,-1,3366,2020-11-02 15:00:37,2020-11-02 15:01:07,2,DF:DC:EF:28:D6:3E,6,6,-4859.0,20992.0,-18665.0
6065,-12542,-5891,29210,-6134,-32503,-18176,2303,-9727,1514,6,-1,3392,2020-11-02 15:00:37,2020-11-02 15:01:07,2,DF:DC:EF:28:D6:3E,6,6,-31355.838986436866,-5891.0,5228.501262947724
6066,17667,-22271,5143,28686,-18680,-15361,15873,25091,6378,6,-1,3418,2020-11-02 15:00:37,2020-11-02 15:01:07,2,DF:DC:EF:28:D6:3E,6,6,-947.1620490434507,7022.883499078957,28006.298763157127
6067,-3067,-19965,-21998,-19963,3070,11258,-24318,-14589,-25367,6,-1,3469,2020-11-02 15:00:37,2020-11-02 15:01:07,2,DF:DC:EF:28:D6:3E,6,6,-23744.185411594048,-17943.229367528056,-2484.732783243133
6068,28164,6402,8209,-10496,-10249,-30988,-20222,-4094,3048,6,-1,3471,2020-11-02 15:00:37,2020-11-02 15:01:07,2,DF:DC:EF:28:D6:3E,6,6,28164.0,-5179.477817072601,-9030.298696192327
6069,-19456,-14847,-4086,-17661,30455,10738,-11774,-12287,-8219,6,-1,3494,2020-11-02 15:00:37,2020-11-02 15:01:07,2,DF:DC:EF:28:D6:3E,6,6,-1020.7933884214049,6148.61491051418,-24017.020142814512
6070,20729,6148,-11518,29702,2298,-2826,-27133,-1280,-4637,6,-1,3520,2020-11-02 15:00:37,2020-11-02 15:01:07,2,DF:DC:EF:28:D6:3E,6,6,20729.0,4698.2501598872295,12181.488966260225
6071,27132,18691,23809,-31231,28157,4096,14340,-27648,24035,6,1,3546,2020-11-02 15:00:37,2020-11-02 15:01:07,2,DF:DC:EF:28:D6:3E,6,6,-14184.888853725417,28597.39325893402,-25166.354781758353
6072,-11519,19454,-19448,16634,1275,16130,-17149,-1793,-29725,6,1,3571,2020-11-02 15:00:37,2020-11-02 15:01:07,2,DF:DC:EF:28:D6:3E,6,6,21453.310807962112,-18358.585233847254,-9596.248464297987
6073,-2046,-2565,29454,6138,14843,29697,-17918,7423,-21021,6,1,3597,2020-11-02 15:00:37,2020-11-02 15:01:07,2,DF:DC:EF:28:D6:3E,6,6,26028.879668115747,-3053.2390629235233,-13837.579681699704
6074,25347,-29953,-2803,-28164,14335,1538,3330,-19714,-5917,6,1,3623,2020-11-02 15:00:37,2020-11-02 15:01:07,2,DF:DC:EF:28:D6:3E,6,6,-38548.848123423995,4598.790652272383,6351.917812264503
6075,-1791,4353,-30959,-12806,-16128,-15615,24065,-16130,15076,6,1,3648,2020-11-02 15:00:37,2020-11-02 15:01:07,2,DF:DC:EF:28:D6:3E,6,6,29992.567529846354,-2395.801811686679,-8678.824669661513
6076,12798,4099,4886,21243,-14594,-29953,-29440,-20482,19684,6,1,3699,2020-11-02 15:00:37,2020-11-02 15:01:07,2,DF:DC:EF:28:D6:3E,6,6,13783.00593647449,1593.461369013311,-3457.3442438627862
6077,26874,19205,7700,-14593,-24322,-1538,17920,32766,8932,6,1,3701,2020-11-02 15:00:37,2020-11-02 15:01:07,2,DF:DC:EF:28:D6:3E,6,6,23577.216820932037,-481.001282265438,24376.57452853494
6078,-25607,-21755,32528,8705,-21505,1024,30208,29182,4836,6,1,3725,2020-11-02 15:00:37,2020-11-02 15:01:07,2,DF:DC:EF:28:D6:3E,6,6,-36116.19748819066,25020.81796149008,-16020.243616499287
6079,-2566,-22524,17167,7168,15614,-24832,-28160,22014,8932,6,1,3751,2020-11-02 15:00:37,2020-11-02 15:01:07,2,DF:DC:EF:28:D6:3E,6,6,-2239.0540630522955,-284.0234928247655,28346.548088934083
6080,17148,-29436,-6643,-19713,7166,-19713,-28416,3070,9444,6,1,3776,2020-11-02 15:00:37,2020-11-02 15:01:07,2,DF:DC:EF:28:D6:3E,6,6,-11155.791838564823,27541.65083832617,-17935.0836784872
6081,-31237,-23291,31501,3584,6912,-20992,-27392,-2051,9444,6,1,3802,2020-11-02 15:00:37,2020-11-02 15:01:07,2,DF:DC:EF:28:D6:3E,6,6,-9627.290753009987,-30940.285615230598,-38217.1146190416
6082,16637,2054,32526,6655,-8703,-17406,-30720,12542,29156,6,1,3827,2020-11-02 15:00:37,2020-11-02 15:01:07,2,DF:DC:EF:28:D6:3E,6,6,-28426.199214205633,-11805.438078999388,-19787.17238508843
6083,-17154,7685,30481,-32002,-15870,23300,20992,-27906,1253,6,1,3853,2020-11-02 15:00:37,2020-11-02 15:01:07,2,DF:DC:EF:28:D6:3E,6,6,-10803.882327428228,-11909.571302047236,31997.63335086732
6084,-25855,-20733,-10477,18175,-2047,7941,8704,-3842,-14619,6,1,3879,2020-11-02 15:00:37,2020-11-02 15:01:07,2,DF:DC:EF:28:D6:3E,6,6,8589.896254094376,24502.809741109897,-23106.965186602618
6085,32515,-14846,-29165,-15873,-13312,-11772,4352,8959,-30746,6,-1,3905,2020-11-02 15:00:37,2020-11-02 15:01:07,2,DF:DC:EF:28:D6:3E,6,6,12258.051165335082,-10898.376082271958,-43118.34582167305
6086,-32251,-31999,-32751,-5377,-15106,-30204,1536,3071,16359,6,-1,3930,2020-11-02 15:00:37,2020-11-02 15:01:07,2,DF:DC:EF:28:D6:3E,6,6,42517.75998647688,-16009.468689883051,-32751.0
6087,3591,-23296,29967,-7680,-1282,23043,4352,-12802,-10265,6,-1,3955,2020-11-02 15:00:37,2020-11-02 15:01:07,2,DF:DC:EF:28:D6:3E,6,6,-35132.97894117875,11599.769834034949,-9205.385191077194
6088,-8187,30464,-17135,-6399,23552,15362,18944,-15874,16104,6,-1,3981,2020-11-02 15:00:37,2020-11-02 15:01:07,2,DF:DC:EF:28:D6:3E,6,6,31852.841403718197,-2938.0654609850462,-16292.78232397838
6089,6662,9984,-24813,-16126,510,31745,-24832,-26114,-31768,6,-1,4007,2020-11-02 15:00:37,2020-11-02 15:01:07,2,DF:DC:EF:28:D6:3E,6,6,-7880.627842788857,16553.62366918526,-20582.048421438776
6090,9224,3583,2575,5637,-24579,-2305,15361,9726,-26136,6,-1,4032,2020-11-02 15:00:37,2020-11-02 15:01:07,2,DF:DC:EF:28:D6:3E,6,6,-1559.741051265723,7669.180496909701,-6580.392720713282
6091,519,9471,-29175,5383,-26112,-8963,14338,2558,25576,6,-1,4058,2020-11-02 15:00:37,2020-11-02 15:01:07,2,DF:DC:EF:28:D6:3E,6,6,16754.979122403438,-15156.907240897463,20753.03988572891
6092,-25339,19199,-9980,25605,-17664,21500,14595,12542,-4121,6,-1,4083,2020-11-02 15:00:37,2020-11-02 15:01:07,2,DF:DC:EF:28:D6:3E,6,6,30195.341081334846,1085.1852048517158,14047.443612736915
6093,5637,-12290,32513,-7935,-22786,16378,-13053,13566,12775,6,-1,4109,2020-11-02 15:00:37,2020-11-02 15:01:07,2,DF:DC:EF:28:D6:3E,6,6,-29665.69997630454,-18511.464054440065,-4145.718451252894
6094,-765,-16899,2561,-16642,21758,-11017,-9469,9214,4582,6,-1,4135,2020-11-02 15:00:37,2020-11-02 15:01:07,2,DF:DC:EF:28:D6:3E,6,6,12716.756786466238,-6975.561474772671,9074.457887143024
6095,24831,-29954,-4863,-29702,-30465,27382,25347,13054,-22300,6,1,4160,2020-11-02 15:00:37,2020-11-02 15:01:07,2,DF:DC:EF:28:D6:3E,6,6,-10794.660587320359,-17598.368809439435,-33335.29906947741
6096,32506,26623,24581,6136,-27392,-27913,26626,28670,18659,6,1,4186,2020-11-02 15:00:37,2020-11-02 15:01:07,2,DF:DC:EF:28:D6:3E,6,6,-43678.378414460225,5013.053242343214,20897.805680804056
6097,29687,5889,25352,12022,-17152,-30982,5889,-20482,17378,6,1,4212,2020-11-02 15:00:37,2020-11-02 15:01:07,2,DF:DC:EF:28:D6:3E,6,6,34263.26749358023,13450.505522482863,-14277.065379587859
6098,19956,-30207,31502,10995,30720,-24321,23551,-9218,-9759,6,1,4237,2020-11-02 15:00:37,2020-11-02 15:01:07,2,DF:DC:EF:28:D6:3E,6,6,41469.646392148934,16083.405121542175,18018.692982746546
6099,29431,-22528,-5867,29682,17408,28164,17661,2559,19170,6,1,4263,2020-11-02 15:00:37,2020-11-02 15:01:07,2,DF:DC:EF:28:D6:3E,6,6,-32400.645803271564,-18745.72051558632,2629.1344359821246
6100,-14087,9473,20249,2550,17664,2308,-31493,13567,-2590,6,1,4288,2020-11-02 15:00:37,2020-11-02 15:01:07,2,DF:DC:EF:28:D6:3E,6,6,19345.10927141092,-16730.125754760746,6638.745250953851
6101,14840,-32255,1820,3577,-28415,-32508,20474,-28161,-31261,6,1,4314,2020-11-02 15:00:37,2020-11-02 15:01:07,2,DF:DC:EF:28:D6:3E,6,6,-34489.793857184675,-4927.4491498436755,-7077.9509439251615
6102,5371,11521,-23013,11005,-21503,-20476,-22279,3584,11236,6,1,4340,2020-11-02 15:00:37,2020-11-02 15:01:07,2,DF:DC:EF:28:D6:3E,6,6,15232.289035005893,-3397.6702000204687,21156.85371140832
6103,-27910,-20992,14362,26113,-20990,-765,-20999,-27136,-21020,6,1,4365,2020-11-02 15:00:37,2020-11-02 15:01:07,2,DF:DC:EF:28:D6:3E,6,6,-6408.632255012755,-23952.78182541916,28479.692474531388
6104,-30982,-29951,23831,-31485,11779,-18171,13818,18945,17637,6,1,4391,2020-11-02 15:00:37,2020-11-02 15:01:07,2,DF:DC:EF:28:D6:3E,6,6,-23875.56312667254,12701.886914607949,41151.94819437818
6105,9725,-3329,-6122,28931,-30975,29959,-9734,-5375,13286,6,1,4416,2020-11-02 15:00:37,2020-11-02 15:01:07,2,DF:DC:EF:28:D6:3E,6,6,2272.7271125637726,11735.201138179395,-506.47380809926426
6106,-7680,12542,-28396,-9469,25342,-3834,-30469,6402,19943,6,1,4442,2020-11-02 15:00:37,2020-11-02 15:01:07,2,DF:DC:EF:28:D6:3E,6,6,-3545.547836041083,-30593.117824850662,8608.554599765794
6107,20996,10750,-21486,-20989,5628,-18170,15356,-13055,25832,6,1,4468,2020-11-02 15:00:37,2020-11-02 15:01:07,2,DF:DC:EF:28:D6:3E,6,6,28235.458610344424,9646.050709172572,11302.888780289679
6108,-28665,23035,-16111,-32767,-18438,19720,-19716,14849,-22807,6,1,4493,2020-11-02 15:00:37,2020-11-02 15:01:07,2,DF:DC:EF:28:D6:3E,6,6,-26780.15979655605,21514.14815349387,20780.3330459461
6109,-27891,-24075,-4342,13824,4088,-6137,-11524,20224,5355,6,1,4519,2020-11-02 15:00:37,2020-11-02 15:01:07,2,DF:DC:EF:28:D6:3E,6,6,30956.1772643329,6070.5656625953425,-19525.10670176522
6110,-29936,29940,25344,12542,-14089,-4862,-25348,4863,3564,6,1,4544,2020-11-02 15:00:37,2020-11-02 15:01:07,2,DF:DC:EF:28:D6:3E,6,6,-29936.0,-38750.492449740676,6092.72278235199
6111,11791,-12557,-21247,29180,-25605,-23300,1276,1022,5356,6,1,4570,2020-11-02 15:00:37,2020-11-02 15:01:07,2,DF:DC:EF:28:D6:3E,6,6,11791.0,-12557.0,-21247.0
6112,-12277,11766,14593,20736,4354,-12300,-7941,-26883,-5654,6,1,4596,2020-11-02 15:00:37,2020-11-02 15:01:07,2,DF:DC:EF:28:D6:3E,6,6,6498.981070032752,18636.783012146167,10609.085634942156
6113,-17155,507,-2305,24833,-5883,28400,17148,-8963,-26648,6,1,4621,2020-11-02 15:00:37,2020-11-02 15:01:07,2,DF:DC:EF:28:D6:3E,6,6,5413.177013579981,-9151.2405280136,-13668.079982868503
6114,-11274,-9218,16131,6656,-23034,-11789,-30468,-30210,22758,6,1,4647,2020-11-02 15:00:37,2020-11-02 15:01:07,2,DF:DC:EF:28:D6:3E,6,6,9765.468460202343,16873.968812635398,9601.48755469699
6115,6386,31489,-12026,-13061,24069,11256,18428,20479,-16156,6,1,4672,2020-11-02 15:00:37,2020-11-02 15:01:07,2,DF:DC:EF:28:D6:3E,6,6,-25132.371596778878,15917.371234889093,-17086.95361649195
6116,27376,11521,15118,-14858,16385,-18947,12283,-16641,-1565,6,1,4698,2020-11-02 15:00:37,2020-11-02 15:01:07,2,DF:DC:EF:28:D6:3E,6,6,-15197.579813266777,-18541.186202610283,23151.4734524505
6117,-28171,-18690,11282,-6156,15869,-17407,-26631,-21761,6116,6,1,4724,2020-11-02 15:00:37,2020-11-02 15:01:07,2,DF:DC:EF:28:D6:3E,6,6,13614.078447934131,28010.625452347125,17328.20229515511
6118,-4612,-22788,32275,-8460,-19204,-31998,-6409,21247,-25628,6,1,4749,2020-11-02 15:00:37,2020-11-02 15:01:07,2,DF:DC:EF:28:D6:3E,6,6,-17597.30410747657,-2338.251886099066,-35596.440542084296
6119,13569,-265,-1512,-16139,22274,-766,17910,29183,485,6,1,4775,2020-11-02 15:00:37,2020-11-02 15:01:07,2,DF:DC:EF:28:D6:3E,6,6,2449.4892067858805,475.72146378563724,13425.640458269883
6120,14597,-15114,-26847,-5,-13564,-22016,15093,10752,-796,6,1,4800,2020-11-02 15:00:37,2020-11-02 15:01:07,2,DF:DC:EF:28:D6:3E,6,6,5723.5162728793075,30701.551305562585,-13671.975823047449
6121,-26366,2042,21277,3333,11013,11515,-32011,-27648,18404,6,1,4826,2020-11-02 15:00:37,2020-11-02 15:01:07,2,DF:DC:EF:28:D6:3E,6,6,-20253.002837063974,22911.18125721405,14728.886532286208
6122,10237,-8963,-5865,-11768,32005,-25861,-17930,769,13795,6,1,4852,2020-11-02 15:00:37,2020-11-02 15:01:07,2,DF:DC:EF:28:D6:3E,6,6,-11575.969367965132,5960.312663013483,7071.1646248022025
6123,-25858,-32002,26132,7176,3586,-30979,2552,23809,-27934,6,-1,4877,2020-11-02 15:00:37,2020-11-02 15:01:07,2,DF:DC:EF:28:D6:3E,6,6,26098.318242336987,18742.212483727668,-36650.41402408032
6124,767,-8963,28175,-31227,18686,28413,6393,9985,15586,6,-1,4903,2020-11-02 15:00:37,2020-11-02 15:01:07,2,DF:DC:EF:28:D6:3E,6,6,23099.385904377898,18135.335265247013,3504.6067764751833
6125,-19199,-32006,8210,-2297,-12801,28158,5626,-5120,738,6,-1,4929,2020-11-02 15:00:37,2020-11-02 15:01:07,2,DF:DC:EF:28:D6:3E,6,6,-19199.0,-32006.0,8210.0
6126,-1279,3837,15880,15369,9216,15614,32251,-5888,-17183,6,-1,4954,2020-11-02 15:00:37,2020-11-02 15:01:07,2,DF:DC:EF:28:D6:3E,6,6,15412.743132315847,-5530.167274195621,-630.4038837653716
6127,-11522,28669,5896,-10491,32511,-26371,-32260,-17920,24033,6,-1,4980,2020-11-02 15:00:37,2020-11-02 15:01:07,2,DF:DC:EF:28:D6:3E,6,6,-2890.042739690748,-7137.964908785398,-30497.999457730155
6128,-7679,-14084,-13050,-14074,-3072,24318,31485,-14080,8673,6,-1,5005,2020-11-02 15:00:37,2020-11-02 15:01:07,2,DF:DC:EF:28:D6:3E,6,6,10801.967809346028,-13732.159632565334,-11062.272834801865
6129,-32001,-12292,-7681,-20989,-11266,-8965,16382,-19200,-23840,6,-1,5031,2020-11-02 15:00:37,2020-11-02 15:01:07,2,DF:DC:EF:28:D6:3E,6,6,-30601.073901965145,16919.58474743783,3384.8122578270577
6130,2811,29692,25347,28927,1023,1533,22782,31232,5344,6,-1,5056,2020-11-02 15:00:37,2020-11-02 15:01:07,2,DF:DC:EF:28:D6:3E,6,6,20841.964647337634,-32971.82605335388,-3233.912544658935
6131,-9990,-29441,-4857,-23035,30722,30462,-15618,-23040,-13089,6,-1,5082,2020-11-02 15:00:37,2020-11-02 15:01:07,2,DF:DC:EF:28:D6:3E,6,6,-4660.492767085237,-29011.623862662025,-11259.152633274212
6132,-11019,30466,-22524,-13052,-8447,5120,-21505,6913,-21793,6,-1,5108,2020-11-02 15:00:37,2020-11-02 15:01:07,2,DF:DC:EF:28:D6:3E,6,6,-13805.14486499831,31708.8426590599,18997.193621148188
6133,8184,-15871,19204,15358,-25857,26371,-9217,11521,-545,6,-1,5133,2020-11-02 15:00:37,2020-11-02 15:01:07,2,DF:DC:EF:28:D6:3E,6,6,18172.74740820391,7584.470895817598,-17317.250528536966
6134,18681,2814,25870,-4872,14336,-3835,4607,19969,-16160,6,-1,5159,2020-11-02 15:00:37,2020-11-02 15:01:07,2,DF:DC:EF:28:D6:3E,6,6,8735.744986090536,12325.914765607988,-28247.3687576199
6135,-1285,-2308,5905,-1799,-28930,-31228,4350,15361,-26399,6,-1,5185,2020-11-02 15:00:37,2020-11-02 15:01:07,2,DF:DC:EF:28:D6:3E,6,6,-2112.5098186557766,5976.8849223365505,-1288.899876339875
6136,20472,5632,29198,9981,29697,20226,30973,19713,3810,6,-1,5210,2020-11-02 15:00:37,2020-11-02 15:01:07,2,DF:DC:EF:28:D6:3E,6,6,-19860.459878689395,29596.256400143207,-5741.877088892719
6137,-11789,-12542,-499,14590,-26876,-15357,14077,-2815,28386,6,-1,5236,2020-11-02 15:00:37,2020-11-02 15:01:07,2,DF:DC:EF:28:D6:3E,6,6,11999.185343017285,5213.789686794209,-11196.751055810677
6138,-27917,23042,-24817,32252,26372,1030,-5636,-9470,8419,6,1,5261,2020-11-02 15:00:37,2020-11-02 15:01:07,2,DF:DC:EF:28:D6:3E,6,6,-16255.871693233794,17329.475620762612,-36900.027807611674
6139,-25354,-6400,-24558,-8966,15875,29191,24316,-26109,7140,6,1,5287,2020-11-02 15:00:37,2020-11-02 15:01:07,2,DF:DC:EF:28:D6:3E,6,6,29617.51634445275,19470.663044427292,5529.618991978354
6140,5626,-12547,-8169,14843,-13051,-23799,-10245,-31484,20709,6,1,5313,2020-11-02 15:00:37,2020-11-02 15:01:07,2,DF:DC:EF:28:D6:3E,6,6,-5486.046731912335,14573.181630355644,-3652.028809297488
6141,26368,30203,-8418,29694,30215,-25079,-21253,-8187,-24090,6,1,5338,2020-11-02 15:00:37,2020-11-02 15:01:07,2,DF:DC:EF:28:D6:3E,6,6,16455.160785607608,28510.007999173344,24387.752754341127
6142,8200,-4611,25363,-13056,13316,29959,3580,-5370,-14361,6,1,5364,2020-11-02 15:00:37,2020-11-02 15:01:07,2,DF:DC:EF:28:D6:3E,6,6,-7605.174494779786,-5537.385836651716,25363.0
6143,26632,6653,25,23809,-23808,-17148,24572,20487,-25880,6,1,5390,2020-11-02 15:00:37,2020-11-02 15:01:07,2,DF:DC:EF:28:D6:3E,6,6,20976.3568065652,-17662.81786885835,1242.4886539537779
6144,23047,20734,28695,4100,-18434,-5887,-516,13575,6889,6,1,5415,2020-11-02 15:00:37,2020-11-02 15:01:07,2,DF:DC:EF:28:D6:3E,6,6,-8531.340041740408,25088.03820773212,-32897.911270771736
6145,25605,20480,-5613,23301,8443,-13314,-14083,-27386,10985,6,1,5441,2020-11-02 15:00:37,2020-11-02 15:01:07,2,DF:DC:EF:28:D6:3E,6,6,-4236.044384692409,-31817.524971900784,-8732.309352822216
6146,-12798,770,-13809,-24314,-29703,9214,-20482,-26619,-1304,6,1,5466,2020-11-02 15:00:37,2020-11-02 15:01:07,2,DF:DC:EF:28:D6:3E,6,6,18629.195465109566,-2711.0204136810494,820.7494376152536
6147,-13311,-22782,-2038,-25850,-26632,-5380,-22017,32260,-23832,6,1,5492,2020-11-02 15:00:37,2020-11-02 15:01:07,2,DF:DC:EF:28:D6:3E,6,6,-11103.459936076864,-21209.233674818406,-11279.95006083292
6148,28415,-3327,27145,1541,-25096,-10245,28160,22275,2536,6,1,5517,2020-11-02 15:00:37,2020-11-02 15:01:07,2,DF:DC:EF:28:D6:3E,6,6,-30279.227606807628,22718.076061746946,11062.982174252058
6149,-28162,30208,31753,-23804,-263,-25093,5377,22018,23015,6,-1,5543,2020-11-02 15:00:37,2020-11-02 15:01:07,2,DF:DC:EF:28:D6:3E,6,6,1708.829010180833,-44236.2673146532,-27461.010077571966
6150,-1283,21760,-244,-8699,2044,-774,-12031,-22271,-26650,6,-1,5569,2020-11-02 15:00:37,2020-11-02 15:01:07,2,DF:DC:EF:28:D6:3E,6,6,4375.027291683974,9127.591815463402,19306.719784761623
6151,-22277,-29951,-9978,-9469,-27396,-1287,-27134,13057,-21531,6,-1,5594,2020-11-02 15:00:37,2020-11-02 15:01:07,2,DF:DC:EF:28:D6:3E,6,6,9184.300238647618,-26093.699650929986,26975.082606980708
6152,12025,5379,-1273,-32254,-9476,9467,-1278,-12544,-14364,6,-1,5620,2020-11-02 15:00:37,2020-11-02 15:01:07,2,DF:DC:EF:28:D6:3E,6,6,6491.87380018938,1259.2770045721506,11464.056480503335
6153,3320,12548,-13821,1281,31996,-11012,17923,32000,10468,6,-1,5645,2020-11-02 15:00:37,2020-11-02 15:01:07,2,DF:DC:EF:28:D6:3E,6,6,1314.1469105223423,-17335.091150348122,7567.190872885842
6154,-4874,24834,-6136,7421,-28677,2815,-1278,1536,-14877,6,-1,5671,2020-11-02 15:00:37,2020-11-02 15:01:07,2,DF:DC:EF:28:D6:3E,6,6,24609.791979119753,-5902.674880463363,-6136.0
6155,-5896,17409,2824,-15620,1277,-9217,30978,-32257,-23837,6,-1,5697,2020-11-02 15:00:37,2020-11-02 15:01:07,2,DF:DC:EF:28:D6:3E,6,6,5268.034330630582,-17797.371983523746,1145.6167646213946
6156,24055,17922,-7671,26876,-26881,26367,-4095,21503,-29213,6,-1,5748,2020-11-02 15:00:37,2020-11-02 15:01:07,2,DF:DC:EF:28:D6:3E,6,6,-24248.121858050697,-18790.353236440296,4199.590647541911
6157,16628,3588,-18934,-26628,-8959,-11008,30209,-27649,-27165,6,-1,5750,2020-11-02 15:00:37,2020-11-02 15:01:07,2,DF:DC:EF:28:D6:3E,6,6,24433.62171299116,-2069.833688553934,-6824.544123102594
6158,-5645,3844,-19186,21243,13825,29698,-12032,-9217,-8733,6,-1,5773,2020-11-02 15:00:37,2020-11-02 15:01:07,2,DF:DC:EF:28:D6:3E,6,6,-19714.96982033109,-4545.3698307779205,-2324.7655978374087
6159,25079,6659,2832,-18180,-1535,-25084,16128,9216,29412,6,-1,5799,2020-11-02 15:00:37,2020-11-02 15:01:07,2,DF:DC:EF:28:D6:3E,6,6,-118.97482821604126,-18445.05371043123,-18468.475427320962
6160,-17924,8192,-31212,30976,3591,9734,3584,-6656,20197,6,-1,5825,2020-11-02 15:00:37,2020-11-02 15:01:07,2,DF:DC:EF:28:D6:3E,6,6,-17569.748411528366,-5770.303292370131,-31946.44150245311
6161,17408,-11520,-8428,25095,-13810,-20986,-10496,-24318,21478,6,-1,5850,2020-11-02 15:00:37,2020-11-02 15:01:07,2,DF:DC:EF:28:D6:3E,6,6,9292.844383806683,12126.146198525268,-16534.196975672687
6162,-14850,-25598,-12009,28425,25874,-23801,-31998,16645,-21785,6,-1,5876,2020-11-02 15:00:37,2020-11-02 15:01:07,2,DF:DC:EF:28:D6:3E,6,6,19645.726790015913,-1497.1142438781008,25135.6371081544
6163,-13575,7429,18719,-17404,-28151,-25082,-5373,9223,5097,6,-1,5901,2020-11-02 15:00:37,2020-11-02 15:01:07,2,DF:DC:EF:28:D6:3E,6,6,8416.891562459019,7429.0,21536.887482312904
6164,15356,11014,26909,-16380,-5120,17159,-3580,-31737,21738,6,-1,5927,2020-11-02 15:00:37,2020-11-02 15:01:07,2,DF:DC:EF:28:D6:3E,6,6,-31412.083197783293,-6647.652975705029,-7092.1754130971985
6165,-4100,3335,-10219,-12536,-30466,-28666,18694,3079,20203,6,-1,5953,2020-11-02 15:00:37,2020-11-02 15:01:07,2,DF:DC:EF:28:D6:3E,6,6,4321.38465894858,1262.318431896618,10587.368549639608
6166,22528,-27383,28164,-19444,25600,26118,29448,-23034,20460,6,-1,5978,2020-11-02 15:00:37,2020-11-02 15:01:07,2,DF:DC:EF:28:D6:3E,6,6,-13796.227510614463,-17467.50401539523,-39434.76612010671
6167,-19714,522,28408,4097,-17414,-14844,-17911,-1531,-3604,6,-1,6004,2020-11-02 15:00:37,2020-11-02 15:01:07,2,DF:DC:EF:28:D6:3E,6,6,-19714.0,3492.161105739275,-28197.371487632707
6168,32517,4610,27129,-7949,-3600,18179,-19448,7684,-8980,6,1,6029,2020-11-02 15:00:37,2020-11-02 15:01:07,2,DF:DC:EF:28:D6:3E,6,6,-3632.7670189730225,4296.5712068004905,-42224.78548969497
6169,-32761,-8193,30215,-26380,27894,7171,-24058,4866,-27412,6,1,6055,2020-11-02 15:00:37,2020-11-02 15:01:07,2,DF:DC:EF:28:D6:3E,6,6,34666.75436658374,-13347.33594942331,-25950.32484845189
6170,-18928,8957,21003,-16127,-18946,21248,6918,23297,-18452,6,1,6081,2020-11-02 15:00:37,2020-11-02 15:01:07,2,DF:DC:EF:28:D6:3E,6,6,89.72853148236482,12976.451716007412,-26668.833713770957
6171,14348,10494,-5114,11517,30721,-23814,7942,-28671,20460,6,1,6106,2020-11-02 15:00:37,2020-11-02 15:01:07,2,DF:DC:EF:28:D6:3E,6,6,-11196.522617478506,-8478.005319119316,-12037.584603452504
6172,-23031,-17924,21517,-3085,-27656,-18955,-20988,17153,-4118,6,1,6132,2020-11-02 15:00:37,2020-11-02 15:01:07,2,DF:DC:EF:28:D6:3E,6,6,-7485.265847433058,20781.104722490545,28754.0346335281
6173,-7416,-22023,22807,32245,7160,10994,-24574,15104,-10264,6,1,6158,2020-11-02 15:00:37,2020-11-02 15:01:07,2,DF:DC:EF:28:D6:3E,6,6,-16256.045839961978,20014.33222916065,19883.06598766489
6174,-10751,-32005,15124,6399,-9730,2798,-6399,-12289,19430,6,1,6183,2020-11-02 15:00:37,2020-11-02 15:01:07,2,DF:DC:EF:28:D6:3E,6,6,27814.59554315631,647.2495297119749,-24383.78036353094
6175,8436,-8957,785,5121,-4097,23024,3074,6400,-20509,6,1,6209,2020-11-02 15:00:37,2020-11-02 15:01:07,2,DF:DC:EF:28:D6:3E,6,6,-6430.332280988234,8130.921683064091,-6674.511917732925
6176,-1811,-29175,13073,9215,23548,28149,2306,2560,-17439,6,1,6234,2020-11-02 15:00:37,2020-11-02 15:01:07,2,DF:DC:EF:28:D6:3E,6,6,-2324.299823803219,29138.599422914416,13073.0
6177,31721,3853,30992,-7681,2298,-2311,1026,32511,-32544,6,1,6260,2020-11-02 15:00:37,2020-11-02 15:01:07,2,DF:DC:EF:28:D6:3E,6,6,-9572.48035153582,-18776.855184718046,39209.295368465726
6178,-29977,-7925,-13041,-32000,32252,-767,9218,-3330,12256,6,1,6286,2020-11-02 15:00:37,2020-11-02 15:01:07,2,DF:DC:EF:28:D6:3E,6,6,6390.063268915792,-30042.750127062223,-13714.73992542899
6179,-28688,-22522,-14834,2816,-20739,-8440,14850,-22786,10209,6,1,6311,2020-11-02 15:00:37,2020-11-02 15:01:07,2,DF:DC:EF:28:D6:3E,6,6,-2800.9726543973247,37949.199256860455,10114.455593477112
6180,7161,13314,25611,-32259,22012,-17146,-5887,4862,20706,6,1,6337,2020-11-02 15:00:37,2020-11-02 15:01:07,2,DF:DC:EF:28:D6:3E,6,6,-11145.760098834024,-27446.277250148625,2634.3376638565933
6181,-20740,-8449,-27894,-4610,29699,-5370,-30463,2814,22755,6,1,6362,2020-11-02 15:00:37,2020-11-02 15:01:07,2,DF:DC:EF:28:D6:3E,6,6,17095.95035493436,-27034.702440937843,-16014.42419794009
6182,30974,3837,-32499,770,-1015,-17145,-28927,11519,-29980,6,1,6388,2020-11-02 15:00:37,2020-11-02 15:01:07,2,DF:DC:EF:28:D6:3E,6,6,-36012.808384886914,-8041.481974185292,-25859.397632046104
6183,-7423,22267,19985,-31487,-21236,-24571,-11007,-6912,-18715,6,1,6414,2020-11-02 15:00:37,2020-11-02 15:01:07,2,DF:DC:EF:28:D6:3E,6,6,1427.8552421274653,-28935.785100637742,-10535.749285990061
6184,-25854,-19716,32018,10241,-22263,16129,3586,-32254,22246,6,1,6439,2020-11-02 15:00:37,2020-11-02 15:01:07,2,DF:DC:EF:28:D6:3E,6,6,-20352.847504248857,22816.530510490622,33874.32405130236
6185,9468,15105,1298,17151,13318,9730,4866,-24573,-28442,6,1,6465,2020-11-02 15:00:37,2020-11-02 15:01:07,2,DF:DC:EF:28:D6:3E,6,6,-8028.392353734806,-13813.479310718156,-8013.835445456432
6186,-28414,-26878,-13040,-18947,30212,-22523,-3071,20996,25063,6,1,6490,2020-11-02 15:00:37,2020-11-02 15:01:07,2,DF:DC:EF:28:D6:3E,6,6,-37525.2634585095,-2327.281983533382,16919.286064682874
6187,8963,-3326,-3565,-25860,-21502,-31995,-20991,-17660,18152,6,1,6516,2020-11-02 15:00:37,2020-11-02 15:01:07,2,DF:DC:EF:28:D6:3E,6,6,8949.479385485758,-4093.5389226557063,-2693.812877218501
6188,17414,4099,3094,2046,12288,-29179,30721,-13564,12009,6,1,6542,2020-11-02 15:00:37,2020-11-02 15:01:07,2,DF:DC:EF:28:D6:3E,6,6,-1894.6001295152,-5783.746913373641,17104.99327656348
6189,4360,22020,-22254,-9730,12797,-3325,28929,28676,-6423,6,1,6567,2020-11-02 15:00:37,2020-11-02 15:01:07,2,DF:DC:EF:28:D6:3E,6,6,2178.112954038679,-31327.79215094058,-3599.4136893269915
6190,-5367,13828,8974,-16643,14585,1026,20993,-31741,20458,6,1,6593,2020-11-02 15:00:37,2020-11-02 15:01:07,2,DF:DC:EF:28:D6:3E,6,6,10199.260024731906,13653.343419107361,3179.977582912085
6191,12300,17923,-30194,21249,-26888,6145,16897,17922,31722,6,1,6618,2020-11-02 15:00:37,2020-11-02 15:01:07,2,DF:DC:EF:28:D6:3E,6,6,16876.595165167386,13443.279266749483,-30309.410142515677
6192,-21242,4,30987,-1,28923,16383,29441,22785,24298,6,1,6644,2020-11-02 15:00:37,2020-11-02 15:01:07,2,DF:DC:EF:28:D6:3E,6,6,7932.442241471699,-36276.69315301776,-5700.407263302307
6193,-756,-11777,18960,26882,-16901,3070,-27135,-24832,14058,6,1,6670,2020-11-02 15:00:37,2020-11-02 15:01:07,2,DF:DC:EF:28:D6:3E,6,6,12552.224595839323,-11444.737096463872,14498.638401188922
6194,9737,9983,5895,-13312,-30213,-6408,-5887,-1025,22505,6,1,6695,2020-11-02 15:00:37,2020-11-02 15:01:07,2,DF:DC:EF:28:D6:3E,6,6,-11100.757161842197,-8876.603070175668,-5215.322748244547
6195,13576,23035,16138,27392,24314,14581,-3839,12799,-9241,6,1,6721,2020-11-02 15:00:37,2020-11-02 15:01:07,2,DF:DC:EF:28:D6:3E,6,6,24259.31384180899,4851.897284719207,-19060.39951478324
6196,11780,8698,6656,-3582,8704,6895,21250,-6402,-20507,6,1,6746,2020-11-02 15:00:37,2020-11-02 15:01:07,2,DF:DC:EF:28:D6:3E,6,6,-12115.55118281253,7919.759852152989,7015.466015944739
6197,8432,18173,32007,-19200,16901,-24339,-22270,-8705,-7710,6,1,6772,2020-11-02 15:00:37,2020-11-02 15:01:07,2,DF:DC:EF:28:D6:3E,6,6,6695.5807769608,-35366.20570644233,-11410.753436508892
6198,-14873,28161,25617,-31491,20996,13557,26626,3841,-8480,6,-1,6798,2020-11-02 15:00:37,2020-11-02 15:01:07,2,DF:DC:EF:28:D6:3E,6,6,-7211.483722845585,13044.559959868227,-38056.703706029715
6199,22759,-19198,28179,-3846,29437,-27143,-17151,22785,-20769,6,-1,6823,2020-11-02 15:00:37,2020-11-02 15:01:07,2,DF:DC:EF:28:D6:3E,6,6,26248.584865712408,-30210.40942577384,-8884.4966584837
6200,14055,6147,16660,6395,-11783,-9218,-6656,-14336,6623,6,-1,6849,2020-11-02 15:00:37,2020-11-02 15:01:07,2,DF:DC:EF:28:D6:3E,6,6,-19632.55494329596,1517.5199693497589,11186.784772269917
6201,-10004,7685,-14578,-3587,23547,32005,29184,2816,-29985,6,-1,6875,2020-11-02 15:00:37,2020-11-02 15:01:07,2,DF:DC:EF:28:D6:3E,6,6,8476.834753471743,-12940.080671478921,-11504.56039046913
6202,-19214,6406,27149,30718,-17411,-10743,16128,-19969,-13856,6,-1,6900,2020-11-02 15:00:37,2020-11-02 15:01:07,2,DF:DC:EF:28:D6:3E,6,6,-33108.66217454722,-6616.099422957508,2706.760136629615
6203,12027,32261,-21744,11772,10238,-3829,-12033,30975,32738,6,-1,6926,2020-11-02 15:00:37,2020-11-02 15:01:07,2,DF:DC:EF:28:D6:3E,6,6,-25347.692751057002,-31342.064302772997,5778.569324569461
6204,27909,-31487,533,-7684,-18434,10509,13823,17407,30436,6,-1,6951,2020-11-02 15:00:37,2020-11-02 15:01:07,2,DF:DC:EF:28:D6:3E,6,6,3107.7505742381904,33978.66526652703,24625.590999479213
6205,-6385,20222,-14570,-31231,-4608,-1527,3839,19711,15590,6,-1,6977,2020-11-02 15:00:37,2020-11-02 15:01:07,2,DF:DC:EF:28:D6:3E,6,6,-20162.671987248883,-4537.182739944828,15325.241926930741
6206,5651,-2818,8721,-3579,-11006,20484,-18433,-30209,15079,6,-1,7003,2020-11-02 15:00:37,2020-11-02 15:01:07,2,DF:DC:EF:28:D6:3E,6,6,-1036.2868321487608,-7396.940756115162,-7755.1365592127095
6207,-2032,-2049,15628,3333,26368,8703,-27648,-20481,26087,6,-1,7028,2020-11-02 15:00:37,2020-11-02 15:01:07,2,DF:DC:EF:28:D6:3E,6,6,-10337.557611493923,4076.3867904566678,11361.328371437665
6208,29965,-24064,-250,-29950,-18947,-15109,8961,25599,-4890,6,-1,7054,2020-11-02 15:00:37,2020-11-02 15:01:07,2,DF:DC:EF:28:D6:3E,6,6,-4159.592431262625,-12791.466942208943,36001.61087051742
6209,20746,-25088,-17660,22528,12540,-5383,21249,-8194,5350,6,-1,7079,2020-11-02 15:00:37,2020-11-02 15:01:07,2,DF:DC:EF:28:D6:3E,6,6,-523.3910124335544,27329.11109704923,24990.510368802883
6210,-32251,15617,-20221,11262,14845,1017,17409,23038,741,6,1,7105,2020-11-02 15:00:37,2020-11-02 15:01:07,2,DF:DC:EF:28:D6:3E,6,6,4262.609820557474,-12607.125136430583,-38933.23881097059
6211,-11010,18435,-18426,-13061,28672,-32518,-10240,16638,3044,6,1,7131,2020-11-02 15:00:37,2020-11-02 15:01:07,2,DF:DC:EF:28:D6:3E,6,6,-18576.326488660852,-5544.471357391145,20609.84552474245
6212,-26883,-18430,-32758,-1286,-18687,509,11776,29438,28387,6,1,7156,2020-11-02 15:00:37,2020-11-02 15:01:07,2,DF:DC:EF:28:D6:3E,6,6,31372.049938580443,-20980.707516058537,-26665.549830761403
6213,-258,-31238,27921,-4610,-3834,12030,-17921,6911,6883,6,1,7182,2020-11-02 15:00:37,2020-11-02 15:01:07,2,DF:DC:EF:28:D6:3E,6,6,-39976.68358896086,2269.799761296952,-12335.891831226607
6214,19967,-11272,-20206,-7928,5900,-23045,26624,-16384,-22302,6,1,7207,2020-11-02 15:00:37,2020-11-02 15:01:07,2,DF:DC:EF:28:D6:3E,6,6,26676.47999187426,11806.82221069097,9109.658255295122
6215,-19977,-11013,-25074,-13810,30478,2295,13570,-11518,-24351,6,1,7233,2020-11-02 15:00:37,2020-11-02 15:01:07,2,DF:DC:EF:28:D6:3E,6,6,-25907.45930610969,-11896.266853938916,-18339.97168051643
6216,-24849,10755,8,-9456,14351,10234,-23036,32005,-9248,6,1,7259,2020-11-02 15:00:37,2020-11-02 15:01:07,2,DF:DC:EF:28:D6:3E,6,6,-13943.416021954718,8693.26004760032,-21520.949546511478
6217,-2322,27145,32000,-9470,-25342,26620,3078,-1786,-31008,6,1,7284,2020-11-02 15:00:37,2020-11-02 15:01:07,2,DF:DC:EF:28:D6:3E,6,6,-26688.663030376505,5473.3878586314695,32000.0
6218,28399,-29946,-6141,8950,2041,-31233,3589,-30458,4832,6,1,7310,2020-11-02 15:00:37,2020-11-02 15:01:07,2,DF:DC:EF:28:D6:3E,6,6,2166.9684342638284,-29946.0,-28974.45995708814
6219,-13069,-29949,11528,-11274,21757,23554,-30461,-14587,9184,6,1,7335,2020-11-02 15:00:37,2020-11-02 15:01:07,2,DF:DC:EF:28:D6:3E,6,6,31892.019346972542,13485.65611791572,-1293.184844348005
6220,-20239,-7166,21771,27642,-17662,-32765,-22526,-4091,-23840,6,1,7361,2020-11-02 15:00:37,2020-11-02 15:01:07,2,DF:DC:EF:28:D6:3E,6,6,5534.977481756121,-21962.26542654774,-20541.86066573129
6221,8689,-15101,29200,25849,-20735,3845,-2815,20230,24289,6,-1,7387,2020-11-02 15:00:37,2020-11-02 15:01:07,2,DF:DC:EF:28:D6:3E,6,6,-8499.274806707374,13262.16204255568,-30133.972650765194
6222,-3341,-18430,-17131,-14857,31487,-8186,4609,22022,23522,6,-1,7412,2020-11-02 15:00:37,2020-11-02 15:01:07,2,DF:DC:EF:28:D6:3E,6,6,-14529.637697312086,11373.068897899066,17431.043406190245
6223,5624,-22016,9242,15098,-24833,22023,19200,17414,-31261,6,-1,7438,2020-11-02 15:00:37,2020-11-02 15:01:07,2,DF:DC:EF:28:D6:3E,6,6,-21719.722843504413,-1184.9509739088178,11340.093773456425
6224,13562,3587,-12267,-21506,-11522,24326,9984,8710,-26908,6,-1,7489,2020-11-02 15:00:37,2020-11-02 15:01:07,2,DF:DC:EF:28:D6:3E,6,6,-12082.996284491717,-4767.042932004522,-13362.267938990935
6225,32510,20742,18192,-9987,252,-19962,15616,-18683,-25115,6,-1,7491,2020-11-02 15:00:37,2020-11-02 15:01:07,2,DF:DC:EF:28:D6:3E,6,6,41130.20511114635,-9108.61086703872,-6589.3067607977155
6226,-22013,-765,14355,-13061,-32003,14089,256,8965,-7962,6,-1,7515,2020-11-02 15:00:37,2020-11-02 15:01:07,2,DF:DC:EF:28:D6:3E,6,6,-543.4228658805878,-569.543054949374,26279.340389313373
6227,-16629,-13825,-3050,30974,20733,-11768,-5633,-16892,25064,6,-1,7540,2020-11-02 15:00:37,2020-11-02 15:01:07,2,DF:DC:EF:28:D6:3E,6,6,-16798.864684177886,1700.586149996072,-13851.459059215476
6228,25869,12543,-27885,-23806,-12806,-13565,15104,-1533,18921,6,-1,7566,2020-11-02 15:00:37,2020-11-02 15:01:07,2,DF:DC:EF:28:D6:3E,6,6,-28451.712465975277,-16283.884109289536,23009.57216179159
6229,-28660,-14849,-5620,30724,32762,4352,-8448,2051,32233,6,-1,7591,2020-11-02 15:00:37,2020-11-02 15:01:07,2,DF:DC:EF:28:D6:3E,6,6,-20357.975808281983,23865.505019835495,9458.50369443351
6230,-16120,11265,29702,-28158,16378,27134,26369,7426,17641,6,-1,7617,2020-11-02 15:00:37,2020-11-02 15:01:07,2,DF:DC:EF:28:D6:3E,6,6,29764.78161006354,-19510.91408636759,-1531.4817072384758
6231,6663,22528,30218,-2815,-30983,2813,-24063,8705,-8984,6,-1,7643,2020-11-02 15:00:37,2020-11-02 15:01:07,2,DF:DC:EF:28:D6:3E,6,6,-30918.154332098788,-21428.0253739695,-7066.918583728015
6232,-29182,1,-16376,-15102,18938,-27654,3074,11776,5096,6,-1,7668,2020-11-02 15:00:37,2020-11-02 15:01:07,2,DF:DC:EF:28:D6:3E,6,6,-2746.6576775786525,1.0,33349.93810492305
6233,-16385,21504,-20218,25344,-5894,4859,20226,27647,13031,6,-1,7694,2020-11-02 15:00:37,2020-11-02 15:01:07,2,DF:DC:EF:28:D6:3E,6,6,19566.050525756767,1548.1913381232443,-27466.898904027978
6234,11008,28926,3845,-24579,26363,-9990,8962,-15618,25318,6,-1,7719,2020-11-02 15:00:37,2020-11-02 15:01:07,2,DF:DC:EF:28:D6:3E,6,6,28075.22815603735,13545.721061539276,-984.1594938925011
6235,30969,-23809,-9722,11004,8191,-8200,-22783,30718,23525,6,-1,7745,2020-11-02 15:00:37,2020-11-02 15:01:07,2,DF:DC:EF:28:D6:3E,6,6,19196.693272232733,-11735.228522509926,33380.17532812378
6236,-6158,-29183,31236,18173,-30461,-31750,16129,-9730,26084,6,-1,7771,2020-11-02 15:00:37,2020-11-02 15:01:07,2,DF:DC:EF:28:D6:3E,6,6,-31874.617161006005,-12031.615179953675,-26542.516195734155
6237,-21266,-13312,-22521,16379,21255,-1283,-18176,-5121,-6173,6,-1,7796,2020-11-02 15:00:37,2020-11-02 15:01:07,2,DF:DC:EF:28:D6:3E,6,6,-3074.840294666157,23298.078071095046,24174.210563231583
6238,-22033,26111,-4594,-16394,27138,23553,-26881,-15104,-4637,6,-1,7822,2020-11-02 15:00:37,2020-11-02 15:01:07,2,DF:DC:EF:28:D6:3E,6,6,-11530.018541043406,-13590.537920925151,-29507.595589323962
6239,6646,27902,-30702,-15371,-15618,32002,2558,-9984,18404,6,-1,7847,2020-11-02 15:00:37,2020-11-02 15:01:07,2,DF:DC:EF:28:D6:3E,6,6,-33068.7440595354,-23470.216846670006,-10995.945229730347
6240,19447,-7681,14868,-3081,13824,-26366,-20484,-9984,-23068,6,-1,7873,2020-11-02 15:00:37,2020-11-02 15:01:07,2,DF:DC:EF:28:D6:3E,6,6,-21710.42916183864,10293.380219597166,8996.920765661547
6241,28154,29184,-24810,-15623,28930,-13819,-20229,16897,17893,6,1,7899,2020-11-02 15:00:37,2020-11-02 15:01:07,2,DF:DC:EF:28:D6:3E,6,6,-2232.7142821556918,33038.84543626669,-34107.76086424815
6242,-8959,-19201,15898,2555,29187,-5114,-3590,-4351,11750,6,1,7950,2020-11-02 15:00:37,2020-11-02 15:01:07,2,DF:DC:EF:28:D6:3E,6,6,21187.67940110576,-155.96023838960082,15898.0
6243,28934,-24322,-4578,-10243,-2814,-3323,-29190,-24830,1767,6,1,7952,2020-11-02 15:00:37,2020-11-02 15:01:07,2,DF:DC:EF:28:D6:3E,6,6,-37546.18385401665,-2509.2763454287406,-5803.596662643909
6244,-22264,-18946,13599,5122,14592,22275,-18950,-5630,-22809,6,1,7976,2020-11-02 15:00:37,2020-11-02 15:01:07,2,DF:DC:EF:28:D6:3E,6,6,24958.918094671575,-17326.68294599763,-10789.248288567213
6245,3592,31231,-7400,11014,-21506,513,-32261,-16126,-3353,6,1,8001,2020-11-02 15:00:37,2020-11-02 15:01:07,2,DF:DC:EF:28:D6:3E,6,6,-26817.881534801454,15955.093346709244,-8323.103464642838
6246,-26872,7423,4116,-30458,22269,4608,-27908,26882,4840,6,1,8027,2020-11-02 15:00:37,2020-11-02 15:01:07,2,DF:DC:EF:28:D6:3E,6,6,15349.287275917231,-7966.995668358024,-22250.238855835454
6247,21768,-32259,-10987,-5116,-24326,3326,26109,-22527,232,6,1,8052,2020-11-02 15:00:37,2020-11-02 15:01:07,2,DF:DC:EF:28:D6:3E,6,6,-26008.88200990918,12770.90054949105,-28207.18400956805
6248,-1530,-5124,31764,-11256,-29447,-19974,29694,-26880,32743,6,1,8078,2020-11-02 15:00:37,2020-11-02 15:01:07,2,DF:DC:EF:28:D6:3E,6,6,31087.138833431065,-2835.8606692681556,-7943.278001900726
6249,-9983,24062,24590,-13813,4346,-4872,5632,-26369,-31770,6,1,8104,2020-11-02 15:00:37,2020-11-02 15:01:07,2,DF:DC:EF:28:D6:3E,6,6,-15943.759172322203,30928.134766889874,-8517.93732637717
6250,3584,-2561,-5623,3083,17658,8185,-7423,-15362,27109,6,1,8129,2020-11-02 15:00:37,2020-11-02 15:01:07,2,DF:DC:EF:28:D6:3E,6,6,-4178.072204224171,4518.257333051822,3626.4265232612697
6251,-6403,-13056,29699,-30968,28666,19961,29443,2558,18148,6,1,8155,2020-11-02 15:00:37,2020-11-02 15:01:07,2,DF:DC:EF:28:D6:3E,6,6,2842.589290106255,-25431.248064806823,20944.19857607429
6252,-20740,5121,-16643,-30206,19193,6650,22788,19453,10467,6,1,8180,2020-11-02 15:00:37,2020-11-02 15:01:07,2,DF:DC:EF:28:D6:3E,6,6,14694.835768581643,17849.612226496472,-14100.171456337725
6253,8958,26879,19968,-6659,32248,24571,24068,26364,11746,6,1,8206,2020-11-02 15:00:37,2020-11-02 15:01:07,2,DF:DC:EF:28:D6:3E,6,6,-5845.916107674771,18678.818268876163,28607.244570918163
6254,23293,-25090,-2819,21501,12541,-9734,8196,-16133,18145,6,1,8232,2020-11-02 15:00:37,2020-11-02 15:01:07,2,DF:DC:EF:28:D6:3E,6,6,-9201.931112915825,12608.837727299571,30600.006290191817
6255,31479,-21762,26878,-23813,21508,8444,-17405,11004,-25376,6,-1,8257,2020-11-02 15:00:37,2020-11-02 15:01:07,2,DF:DC:EF:28:D6:3E,6,6,-17346.170853944855,-18679.314708552047,-39206.28173806623
6256,-5389,28157,26883,-16650,-4858,-3075,-21502,13053,23520,6,-1,8283,2020-11-02 15:00:37,2020-11-02 15:01:07,2,DF:DC:EF:28:D6:3E,6,6,-1510.9335713245346,35092.53440395558,17629.088684621176
6257,3822,30974,-13813,8181,19719,-2819,3329,27646,8416,6,-1,8308,2020-11-02 15:00:37,2020-11-02 15:01:07,2,DF:DC:EF:28:D6:3E,6,6,-21765.35434072752,23429.635059348846,11921.278472055974
6258,-21,14848,7182,-14347,23558,-512,30975,-26113,5088,6,-1,8334,2020-11-02 15:00:37,2020-11-02 15:01:07,2,DF:DC:EF:28:D6:3E,6,6,-9219.904041016765,11098.810270388643,7990.897887994704
6259,26608,-8447,16655,16371,-19709,-6140,-16899,32000,-30240,6,-1,8360,2020-11-02 15:00:37,2020-11-02 15:01:07,2,DF:DC:EF:28:D6:3E,6,6,-15956.077796741742,11841.094148312895,25727.778153488405
6260,-9227,4093,32025,-3858,-30974,-23286,29435,12033,-19487,6,-1,8411,2020-11-02 15:00:37,2020-11-02 15:01:07,2,DF:DC:EF:28:D6:3E,6,6,-3948.2674258613797,-32755.560131518545,6243.017523950617
6261,-17658,26870,-16599,5362,15617,29966,6905,1026,-24605,6,-1,8413,2020-11-02 15:00:37,2020-11-02 15:01:07,2,DF:DC:EF:28:D6:3E,6,6,-10015.858298392732,-31982.98371673552,13641.847386682926
6262,2321,-4105,-14041,7166,-14336,8712,19192,-28670,15077,6,-1,8436,2020-11-02 15:00:37,2020-11-02 15:01:07,2,DF:DC:EF:28:D6:3E,6,6,-11086.899643584762,9698.269291578688,1553.0537792046607
6263,-7413,-20228,-15073,-14845,-9985,32514,-18440,-19454,-12571,6,-1,8462,2020-11-02 15:00:37,2020-11-02 15:01:07,2,DF:DC:EF:28:D6:3E,6,6,14264.97285279352,-11840.443800672489,-18644.954333872214
6264,-30454,26366,28697,-1274,-514,-29951,-22023,-28670,8934,6,-1,8488,2020-11-02 15:00:37,2020-11-02 15:01:07,2,DF:DC:EF:28:D6:3E,6,6,-2758.1539359009294,-45110.53818955189,20088.847953898574
6265,21768,-30977,22033,4105,22526,-32258,1275,18434,10982,6,1,8513,2020-11-02 15:00:37,2020-11-02 15:01:07,2,DF:DC:EF:28:D6:3E,6,6,16102.60777100089,-32254.39275695719,-24884.405013044805
6266,-4861,20992,24331,-15097,-21508,25597,18940,-14591,-7707,6,1,8539,2020-11-02 15:00:37,2020-11-02 15:01:07,2,DF:DC:EF:28:D6:3E,6,6,-8905.005440465486,-30949.728560133237,4371.055497171474
6267,-5887,20735,26635,-20476,22523,29437,11517,4865,-26907,6,1,8564,2020-11-02 15:00:37,2020-11-02 15:01:07,2,DF:DC:EF:28:D6:3E,6,6,28707.404179244793,17015.55120808261,7770.211153797372
6268,15104,10750,9996,14085,11515,-6660,-5635,17408,16357,6,1,8590,2020-11-02 15:00:37,2020-11-02 15:01:07,2,DF:DC:EF:28:D6:3E,6,6,-4139.399042538101,-16787.476170623282,-12027.441597754287
6269,-23811,30462,-30455,-30204,21755,27133,-20738,-30465,-9500,6,1,8641,2020-11-02 15:00:37,2020-11-02 15:01:07,2,DF:DC:EF:28:D6:3E,6,6,-19248.348167859265,-33792.257759914275,30166.017276007493
6270,-12287,-29702,-17144,24063,-16393,23036,1023,-30210,31204,6,1,8643,2020-11-02 15:00:37,2020-11-02 15:01:07,2,DF:DC:EF:28:D6:3E,6,6,-34133.98182970703,10681.380609363447,6919.1980552044315
6271,-20229,-13571,7699,-31229,10492,15356,8959,-31491,-7453,6,1,8667,2020-11-02 15:00:37,2020-11-02 15:01:07,2,DF:DC:EF:28:D6:3E,6,6,-18483.23451045989,3224.4501310802034,17338.744083223603
6272,-22277,-6913,-10998,7946,-31229,-25858,29184,-24067,-29469,6,1,8692,2020-11-02 15:00:37,2020-11-02 15:01:07,2,DF:DC:EF:28:D6:3E,6,6,16877.29961188922,12962.060564211239,14565.44011488303
6273,-28934,-22014,13318,10248,-18942,20223,-5375,15614,28643,6,1,8718,2020-11-02 15:00:37,2020-11-02 15:01:07,2,DF:DC:EF:28:D6:3E,6,6,-32446.27675209093,-3888.086915123933,20767.36817863943
6274,-5127,25347,-9981,-6654,28927,28160,-19454,23806,27619,6,1,8744,2020-11-02 15:00:37,2020-11-02 15:01:07,2,DF:DC:EF:28:D6:3E,6,6,-19128.653843781856,18397.25083682946,-8000.791384078658
6275,-3590,7427,1284,11262,22014,7426,-19710,11518,-24605,6,1,8769,2020-11-02 15:00:37,2020-11-02 15:01:07,2,DF:DC:EF:28:D6:3E,6,6,5829.329409080355,4222.2168947237315,4229.525757616376
6276,-1285,-767,-762,2555,21247,22530,5890,-771,-2589,6,1,8795,2020-11-02 15:00:37,2020-11-02 15:01:07,2,DF:DC:EF:28:D6:3E,6,6,-1285.0,226.7890218227539,-1057.118602419179
6277,15098,-32255,-13558,9210,-13312,-27646,14081,3582,21476,6,1,8821,2020-11-02 15:00:37,2020-11-02 15:01:07,2,DF:DC:EF:28:D6:3E,6,6,-18580.898022038848,-23362.736916212874,-23687.269692356203
6278,-3846,-20479,266,17656,7938,-16893,8960,19198,-10268,6,1,8846,2020-11-02 15:00:37,2020-11-02 15:01:07,2,DF:DC:EF:28:D6:3E,6,6,-8744.866420787925,-7273.947939947827,17460.49557284972
6279,-8711,8962,-24819,5621,31236,-27644,-24066,-1794,29925,6,1,8872,2020-11-02 15:00:37,2020-11-02 15:01:07,2,DF:DC:EF:28:D6:3E,6,6,9923.23673666592,12019.559129046509,23005.244989163635
6280,-7939,-22529,27923,25587,4609,29699,-15108,32255,3814,6,1,8897,2020-11-02 15:00:37,2020-11-02 15:01:07,2,DF:DC:EF:28:D6:3E,6,6,-10753.331121858215,34765.684129824076,-5098.094523346303
6281,6143,-29699,8216,30198,-28159,15873,4603,-22017,21734,6,1,8923,2020-11-02 15:00:37,2020-11-02 15:01:07,2,DF:DC:EF:28:D6:3E,6,6,11359.625021417782,28379.94199137833,-7266.878142557495
6282,-27650,-19458,-23782,23035,-21501,-21758,7162,11776,32742,6,1,8949,2020-11-02 15:00:37,2020-11-02 15:01:07,2,DF:DC:EF:28:D6:3E,6,6,4834.907752641457,17141.341118182234,37303.054562509526
6283,770,25854,28444,6143,4612,-18429,-14087,-5632,-9242,6,-1,8974,2020-11-02 15:00:37,2020-11-02 15:01:07,2,DF:DC:EF:28:D6:3E,6,6,13126.448379804913,7513.33134666674,-35345.85629189809
6284,4612,22270,-14822,-32766,1795,-3325,2810,-27647,18663,6,-1,9000,2020-11-02 15:00:37,2020-11-02 15:01:07,2,DF:DC:EF:28:D6:3E,6,6,10946.762287870613,-24055.543111762847,6197.932640080291
6285,30726,11774,25623,-8444,15105,-15102,-18950,-3583,-19225,6,-1,9025,2020-11-02 15:00:37,2020-11-02 15:01:07,2,DF:DC:EF:28:D6:3E,6,6,-31553.15011586353,3623.7374546876854,-27028.124715290087
6286,30727,-31234,-24558,12294,14080,20993,-23813,1538,-1305,6,-1,9051,2020-11-02 15:00:37,2020-11-02 15:01:07,2,DF:DC:EF:28:D6:3E,6,6,30727.0,39001.46053382616,-7585.789097279247
6287,-6906,-8194,18449,-20986,7168,-7937,-23812,-1535,2280,6,-1,9077,2020-11-02 15:00:37,2020-11-02 15:01:07,2,DF:DC:EF:28:D6:3E,6,6,-6906.0,-8606.29340657953,-18260.310807865942
6288,13829,-16130,10255,15879,16896,-9730,-18179,-5119,-5401,6,-1,9102,2020-11-02 15:00:37,2020-11-02 15:01:07,2,DF:DC:EF:28:D6:3E,6,6,13829.0,17415.76465281912,-7876.1073226319095
6289,16388,26368,-13814,264,7936,7422,-6146,-7423,-21273,6,-1,9128,2020-11-02 15:00:37,2020-11-02 15:01:07,2,DF:DC:EF:28:D6:3E,6,6,-33097.06015078737,-7366.993625988427,-2230.824576206869
6290,32259,-12288,-1269,29190,-1539,-30467,-4353,-21503,22503,6,-1,9153,2020-11-02 15:00:37,2020-11-02 15:01:07,2,DF:DC:EF:28:D6:3E,6,6,33173.36016395951,7683.467473147042,5808.690818189222
6291,-24319,17410,27913,28933,-9987,24573,-12288,21761,-4378,6,-1,9179,2020-11-02 15:00:37,2020-11-02 15:01:07,2,DF:DC:EF:28:D6:3E,6,6,20202.338436836777,18136.102650699504,30603.99863296948
6292,-2816,25090,-23289,28931,19709,27390,30465,-2304,-25626,6,-1,9205,2020-11-02 15:00:37,2020-11-02 15:01:07,2,DF:DC:EF:28:D6:3E,6,6,13355.639864492381,7814.230048978598,-30665.618688551218
6293,-18177,-29183,-8441,29441,-15364,25087,-12543,-32512,26342,6,-1,9230,2020-11-02 15:00:37,2020-11-02 15:01:07,2,DF:DC:EF:28:D6:3E,6,6,-12081.935281890324,-20825.83212946795,25954.052765597786
6294,-5376,8447,-247,2303,-29701,21249,-13567,-5633,28902,6,-1,9256,2020-11-02 15:00:37,2020-11-02 15:01:07,2,DF:DC:EF:28:D6:3E,6,6,-5111.142164521512,4094.340238469621,-7578.04709576939
6295,19204,10492,-27635,-32257,5114,-29952,-26879,3583,-28954,6,-1,9281,2020-11-02 15:00:37,2020-11-02 15:01:07,2,DF:DC:EF:28:D6:3E,6,6,-8031.390535408267,22402.396476123293,26003.8132433367
6296,-24572,-31237,-12021,-4607,-25092,8701,-17663,23294,18918,6,1,9307,2020-11-02 15:00:37,2020-11-02 15:01:07,2,DF:DC:EF:28:D6:3E,6,6,-7806.180104638779,-28410.704017172644,-29256.336807990025
6297,1283,-11013,17161,22019,-8193,-13831,12546,12798,-31771,6,1,9333,2020-11-02 15:00:37,2020-11-02 15:01:07,2,DF:DC:EF:28:D6:3E,6,6,5992.265534418803,-18597.118051056743,5972.615252975536
6298,6401,26619,27397,25859,-15105,-18698,-13054,21246,18660,6,1,9358,2020-11-02 15:00:37,2020-11-02 15:01:07,2,DF:DC:EF:28:D6:3E,6,6,9295.585890037752,-15299.512035121134,34346.12911884124
6299,4862,-23047,-4348,-26366,-23299,15089,21507,24318,27618,6,1,9384,2020-11-02 15:00:37,2020-11-02 15:01:07,2,DF:DC:EF:28:D6:3E,6,6,20329.580878935383,-12307.118236423004,2991.8788413852967
6300,1517,2559,-14082,-23294,21247,-10005,-6141,-29442,32223,6,1,9410,2020-11-02 15:00:37,2020-11-02 15:01:07,2,DF:DC:EF:28:D6:3E,6,6,-12570.287875115113,5594.659623071655,-4223.759041269485
6301,-31007,20485,-8199,-15364,-31735,25077,1028,2304,24797,6,1,9435,2020-11-02 15:00:37,2020-11-02 15:01:07,2,DF:DC:EF:28:D6:3E,6,6,35770.62686850093,10076.28539862184,-8199.0
6302,10975,-2558,3075,-25618,23555,-9217,17666,25345,-5156,6,1,9461,2020-11-02 15:00:37,2020-11-02 15:01:07,2,DF:DC:EF:28:D6:3E,6,6,-4596.665870206126,2098.456781519848,10531.702427137576
6303,-2587,-4358,30478,12518,2812,14857,-14850,23041,-14371,6,1,9486,2020-11-02 15:00:37,2020-11-02 15:01:07,2,DF:DC:EF:28:D6:3E,6,6,23398.777663891862,-19826.383005287622,3742.3198371327953
6304,2800,12789,-2025,-28696,-11015,23310,507,-4608,-11041,6,1,9512,2020-11-02 15:00:37,2020-11-02 15:01:07,2,DF:DC:EF:28:D6:3E,6,6,12274.41888113898,4553.807432285528,-2025.0
6305,-12811,23539,29466,-7442,3835,14607,5112,-9472,16610,6,1,9537,2020-11-02 15:00:37,2020-11-02 15:01:07,2,DF:DC:EF:28:D6:3E,6,6,-8205.190672885221,-38635.500315067315,5140.462958336644
6306,25081,-26125,-28646,-17677,-6660,29200,2550,20993,-18972,6,1,9563,2020-11-02 15:00:37,2020-11-02 15:01:07,2,DF:DC:EF:28:D6:3E,6,6,24896.823449878095,29938.045013157076,24819.894135466828
6307,12799,-25099,-27365,22775,-16385,-18415,-18700,25346,10471,6,1,9589,2020-11-02 15:00:37,2020-11-02 15:01:07,2,DF:DC:EF:28:D6:3E,6,6,-34705.27842810125,-15208.915594218732,-10336.825560872168
6308,-30206,-11276,17696,507,-9472,4881,4084,-14845,28905,6,-1,9614,2020-11-02 15:00:37,2020-11-02 15:01:07,2,DF:DC:EF:28:D6:3E,6,6,-11811.546786442093,177.6018708889169,-34830.372494234776
6309,-17403,27380,11297,-29185,-22785,-18929,12020,261,-25365,6,-1,9640,2020-11-02 15:00:37,2020-11-02 15:01:07,2,DF:DC:EF:28:D6:3E,6,6,27772.57080717085,991.4921630707549,20195.3527340141
6310,31241,-7948,285,4868,23037,4109,4853,-17659,-19475,6,-1,9665,2020-11-02 15:00:37,2020-11-02 15:01:07,2,DF:DC:EF:28:D6:3E,6,6,29537.034847055565,12238.745886748984,4126.582310267185
6311,-1524,-31499,-25578,-18938,19196,-15095,28918,-6651,-32273,6,-1,9691,2020-11-02 15:00:37,2020-11-02 15:01:07,2,DF:DC:EF:28:D6:3E,6,6,26376.44205201491,-28799.854661545265,11117.343979142168
6312,-9458,24566,17682,-11000,27132,31238,504,-18683,-9232,6,-1,9717,2020-11-02 15:00:37,2020-11-02 15:01:07,2,DF:DC:EF:28:D6:3E,6,6,24382.407596337784,7493.788984328787,-18839.7603611193
6313,-3826,-1033,-21492,6921,-13829,-18174,-26375,15877,-21263,6,-1,9742,2020-11-02 15:00:37,2020-11-02 15:01:07,2,DF:DC:EF:28:D6:3E,6,6,-11127.933211570144,-18697.906476646134,-2041.770023638464
6314,15885,1018,-507,1030,9978,-24065,-13830,24836,-783,6,-1,9768,2020-11-02 15:00:37,2020-11-02 15:01:07,2,DF:DC:EF:28:D6:3E,6,6,-9842.258570617827,-884.6512750056115,12488.952572202797
6315,19725,27896,-8951,4357,23290,10238,32251,24579,-15,6,-1,9794,2020-11-02 15:00:37,2020-11-02 15:01:07,2,DF:DC:EF:28:D6:3E,6,6,9273.0281452898,-670.2908568275925,34072.63566535345
6316,12811,22264,17929,31750,30716,-23814,20732,-29438,-31247,6,-1,9819,2020-11-02 15:00:37,2020-11-02 15:01:07,2,DF:DC:EF:28:D6:3E,6,6,20619.432495438756,-16917.514794320872,-16428.425206025644
6317,-28409,17401,1545,-24059,-7428,28152,6909,-9471,-28688,6,-1,9845,2020-11-02 15:00:37,2020-11-02 15:01:07,2,DF:DC:EF:28:D6:3E,6,6,-15817.30932476372,-24909.46795375467,-15542.980376543355
6318,22277,-27143,-9209,1796,13053,-1034,-18947,14081,20975,6,-1,9871,2020-11-02 15:00:37,2020-11-02 15:01:07,2,DF:DC:EF:28:D6:3E,6,6,-6086.056947782578,-24962.742505969378,-25644.3806010014
6319,-5118,2809,-12535,-18175,-8962,12790,254,-16896,-6675,6,-1,9896,2020-11-02 15:00:37,2020-11-02 15:01:07,2,DF:DC:EF:28:D6:3E,6,6,9672.838242208061,-9865.61164678646,562.6163656245917
6320,-5119,23031,25100,-21247,8961,-18444,9214,-23040,18924,6,-1,9922,2020-11-02 15:00:37,2020-11-02 15:01:07,2,DF:DC:EF:28:D6:3E,6,6,-26768.712148028804,12580.72180251872,-17657.933368987593
6321,13567,2295,-16118,9985,-8448,13554,17918,-23808,21738,6,-1,9947,2020-11-02 15:00:37,2020-11-02 15:01:07,2,DF:DC:EF:28:D6:3E,6,6,-3418.993141255183,484.80047180938243,-20909.22983762394
6322,18170,-4874,-1527,-4098,30975,6128,9214,-32768,1768,6,-1,9973,2020-11-02 15:00:37,2020-11-02 15:01:07,2,DF:DC:EF:28:D6:3E,6,6,430.12497921277395,-1348.507244999655,-18821.07929191205
6323,-20746,-16138,-3064,-2052,-2307,-3601,-19715,5120,-26395,6,-1,9998,2020-11-02 15:00:37,2020-11-02 15:01:07,2,DF:DC:EF:28:D6:3E,6,6,1796.6714380236217,-25860.93108451591,5310.731699653902
6324,-3342,-29192,-29944,6652,10750,22256,7421,-28673,15075,6,-1,10024,2020-11-02 15:00:37,2020-11-02 15:01:07,2,DF:DC:EF:28:D6:3E,6,6,8083.473146848515,-40309.77077132837,-8352.532924038072
6325,29421,-27652,-249,-2565,-2562,-9231,-29956,10495,225,6,1,10052,2020-11-02 15:00:37,2020-11-02 15:01:07,2,DF:DC:EF:28:D6:3E,6,6,-6475.791625481789,-7605.054608038011,-39121.83039214934
6326,21484,21503,-4857,16634,-30467,16374,-9477,-17154,19167,6,1,10075,2020-11-02 15:00:37,2020-11-02 15:01:07,2,DF:DC:EF:28:D6:3E,6,6,-10862.415318644396,-6058.825489234757,28157.242072622787
6327,-29458,-13056,18439,-3594,-7428,-12805,-14854,13822,28126,6,1,10101,2020-11-02 15:00:37,2020-11-02 15:01:07,2,DF:DC:EF:28:D6:3E,6,6,6292.524281550301,-26677.45804678132,25038.909547508705
6328,26606,-21500,-31223,-32014,-16900,30207,3577,-12291,18654,6,1,10126,2020-11-02 15:00:37,2020-11-02 15:01:07,2,DF:DC:EF:28:D6:3E,6,6,-14111.590791763752,23728.8948016666,37186.12001563552
6329,9708,-24834,21776,6637,23800,-12539,25334,17149,479,6,1,10152,2020-11-02 15:00:37,2020-11-02 15:01:07,2,DF:DC:EF:28:D6:3E,6,6,107.0699018758769,32712.716818352383,-10725.376002658242
6330,19190,22263,-32746,-18960,-16903,18444,32243,10493,-7968,6,1,10178,2020-11-02 15:00:37,2020-11-02 15:01:07,2,DF:DC:EF:28:D6:3E,6,6,-29436.094700571775,-585.1232969563716,-32701.24989211161
6331,4605,-12303,21782,-20744,-13059,25358,-20239,-2819,-3870,6,1,10203,2020-11-02 15:00:37,2020-11-02 15:01:07,2,DF:DC:EF:28:D6:3E,6,6,4605.0,15253.753701235306,-19827.817101790355
6332,1024,-18703,25363,21501,511,-243,-3344,11775,-14108,6,1,10229,2020-11-02 15:00:37,2020-11-02 15:01:07,2,DF:DC:EF:28:D6:3E,6,6,-26426.646152050387,-12800.004416443033,-11485.85278041467
6333,-9473,23284,-9710,-12035,-8451,8204,-25360,15104,29670,6,1,10254,2020-11-02 15:00:37,2020-11-02 15:01:07,2,DF:DC:EF:28:D6:3E,6,6,-247.12749119629188,-26911.973748059863,-1360.54473900416
6334,-30466,31221,13842,26108,-5383,-24308,15088,-6400,20200,6,1,10280,2020-11-02 15:00:37,2020-11-02 15:01:07,2,DF:DC:EF:28:D6:3E,6,6,38756.80854090278,20312.936008452005,-13409.824139053435
6335,-11520,13813,-6897,18683,15095,24078,-19217,24065,-20758,6,1,10306,2020-11-02 15:00:37,2020-11-02 15:01:07,2,DF:DC:EF:28:D6:3E,6,6,-5866.500972367286,13959.894074030446,-11907.287759312077
6336,-1277,-7182,14099,22269,-5385,29966,20975,-8191,14061,6,1,10331,2020-11-02 15:00:37,2020-11-02 15:01:07,2,DF:DC:EF:28:D6:3E,6,6,-9611.534810368203,8697.095438703258,-9163.655576197049
6337,-21754,9713,2837,13058,23289,-28660,-26129,26370,31471,6,1,10357,2020-11-02 15:00:37,2020-11-02 15:01:07,2,DF:DC:EF:28:D6:3E,6,6,-5293.37288099163,-12056.402275211927,-20056.191605612643
6338,-1529,14322,-16878,-7676,506,-26871,29680,-20734,24817,6,1,10382,2020-11-02 15:00:37,2020-11-02 15:01:07,2,DF:DC:EF:28:D6:3E,6,6,-11871.916793822915,4799.890542435955,18120.23872417743
6339,2314,27634,2064,32265,22521,8197,-12815,31746,-9742,6,1,10408,2020-11-02 15:00:37,2020-11-02 15:01:07,2,DF:DC:EF:28:D6:3E,6,6,5720.980802364958,-26720.321170592943,-5152.42304157319
6340,23307,5620,7182,21771,9979,25857,-32525,-2559,-20493,6,1,10434,2020-11-02 15:00:37,2020-11-02 15:01:07,2,DF:DC:EF:28:D6:3E,6,6,-23820.6768832691,1950.7607898045871,7426.416239603729
6341,11276,15861,-27636,-22261,8189,-29955,17141,20481,-11021,6,-1,10459,2020-11-02 15:00:37,2020-11-02 15:01:07,2,DF:DC:EF:28:D6:3E,6,6,11536.564650599566,16326.331018089575,-27254.84515733492
6342,16652,-12810,-18167,-13557,-4611,-21510,1783,-25088,25843,6,-1,10485,2020-11-02 15:00:37,2020-11-02 15:01:07,2,DF:DC:EF:28:D6:3E,6,6,6406.762386818413,27015.721101749685,-727.5314916383813
6343,16139,18936,22534,-1783,7422,-7944,-22536,-5121,-27662,6,-1,10510,2020-11-02 15:00:37,2020-11-02 15:01:07,2,DF:DC:EF:28:D6:3E,6,6,1231.6113842431423,22388.978669790635,-24980.739391016083
6344,-3575,6136,-28664,20231,-31235,-32009,-6919,12543,-31759,6,-1,10536,2020-11-02 15:00:37,2020-11-02 15:01:07,2,DF:DC:EF:28:D6:3E,6,6,15045.6261660499,-22481.012727095454,11844.374911140174
6345,8,25079,11527,27397,-22020,-19723,-7686,22782,13808,6,-1,10562,2020-11-02 15:00:37,2020-11-02 15:01:07,2,DF:DC:EF:28:D6:3E,6,6,-20264.18821596684,-11591.349364279755,14725.19371224304
6346,17414,-5386,-11000,-11519,19963,-9997,30459,19709,-23570,6,-1,10587,2020-11-02 15:00:37,2020-11-02 15:01:07,2,DF:DC:EF:28:D6:3E,6,6,20219.176996889935,-4935.337772985974,-4481.485761996199
6347,-15870,-7434,-25850,1,19452,22515,-8197,17660,-8724,6,-1,10613,2020-11-02 15:00:37,2020-11-02 15:01:07,2,DF:DC:EF:28:D6:3E,6,6,-13782.737673040288,-26227.647563444145,9873.722779373464
6348,-9983,11254,-18938,-15873,31998,-30733,11772,-26117,2795,6,-1,10639,2020-11-02 15:00:37,2020-11-02 15:01:07,2,DF:DC:EF:28:D6:3E,6,6,20234.21270148057,12536.95817072322,-4285.086367481845
6349,9723,-9738,-22010,-31746,11009,-3087,26108,18427,-280,6,-1,10690,2020-11-02 15:00:37,2020-11-02 15:01:07,2,DF:DC:EF:28:D6:3E,6,6,-6555.428226409927,-10292.041341757646,-22910.820997684463
6350,29939,-20999,-13816,-3076,8194,-9487,30716,19195,-17690,6,-1,10692,2020-11-02 15:00:37,2020-11-02 15:01:07,2,DF:DC:EF:28:D6:3E,6,6,24366.849584910102,22872.668327145082,-20280.070584265242
6351,-9233,10236,-17910,13562,9985,10229,8444,21755,-12060,6,-1,10715,2020-11-02 15:00:37,2020-11-02 15:01:07,2,DF:DC:EF:28:D6:3E,6,6,14991.315386082963,-16748.211504639577,2355.835179050244
6352,-5140,11519,-6899,-19464,-32000,-30473,25595,19707,23011,6,-1,10741,2020-11-02 15:00:37,2020-11-02 15:01:07,2,DF:DC:EF:28:D6:3E,6,6,-12587.550634766389,4932.675009344275,4891.364663300286
6353,11497,-27902,7952,-7177,-27649,32253,26618,17659,-29982,6,-1,10767,2020-11-02 15:00:37,2020-11-02 15:01:07,2,DF:DC:EF:28:D6:3E,6,6,-25851.124373387673,-1879.7462766546164,-17381.68114904438
6354,-22805,-29949,-10478,11511,-8451,-30459,3833,22779,-3102,6,-1,10792,2020-11-02 15:00:37,2020-11-02 15:01:07,2,DF:DC:EF:28:D6:3E,6,6,21098.12344052187,-29949.0,13591.383163184739
6355,6896,-32002,-9708,-25609,4347,-19444,29943,31483,-27420,6,-1,10818,2020-11-02 15:00:37,2020-11-02 15:01:07,2,DF:DC:EF:28:D6:3E,6,6,30145.405668998974,-6772.993682543771,14536.476795554909
6356,-18441,5879,-30957,-23304,23032,18706,-15627,-21765,20199,6,-1,10843,2020-11-02 15:00:37,2020-11-02 15:01:07,2,DF:DC:EF:28:D6:3E,6,6,-12703.129017548723,32715.716002761787,-10063.866582489452
6357,23040,32753,-19950,-19463,17656,-1260,6644,8700,-22806,6,-1,10869,2020-11-02 15:00:37,2020-11-02 15:01:07,2,DF:DC:EF:28:D6:3E,6,6,-21437.590409924076,-37888.3078722846,-10320.317485005413
6358,30982,-22545,16403,31484,-6662,-26349,-9742,-2052,-10003,6,-1,10920,2020-11-02 15:00:37,2020-11-02 15:01:07,2,DF:DC:EF:28:D6:3E,6,6,18104.119076455594,-25194.33599022976,27833.542075649122
6359,8714,-32271,-31469,9472,-4611,-28656,23794,5374,24560,6,-1,10922,2020-11-02 15:00:37,2020-11-02 15:01:07,2,DF:DC:EF:28:D6:3E,6,6,-7755.930805775566,-4815.503817098803,44992.28443103915
6360,-2292,3828,-30191,-27135,13822,-2548,27890,4095,21490,6,-1,10946,2020-11-02 15:00:37,2020-11-02 15:01:07,2,DF:DC:EF:28:D6:3E,6,6,5846.5639393896245,24773.62692189857,16837.11460545456
6361,7441,-6156,10513,21760,-8451,-5368,-31758,-22273,-10253,6,-1,10971,2020-11-02 15:00:37,2020-11-02 15:01:07,2,DF:DC:EF:28:D6:3E,6,6,-13709.846738729204,-538.5079302482427,3941.8393688246583
6362,8466,14581,-27888,19457,-15875,29954,-25102,-21761,-21004,6,-1,10997,2020-11-02 15:00:37,2020-11-02 15:01:07,2,DF:DC:EF:28:D6:3E,6,6,14019.227798296495,-9693.544997967354,-27776.171412054842
6363,30735,31223,2317,25603,-13570,14592,1779,27135,-6156,6,-1,11023,2020-11-02 15:00:37,2020-11-02 15:01:07,2,DF:DC:EF:28:D6:3E,6,6,14471.291259395844,35250.31836003748,21745.832423748187
6364,28689,4599,-29939,-31484,-10752,28160,-25101,24575,-1804,6,-1,11048,2020-11-02 15:00:37,2020-11-02 15:01:07,2,DF:DC:EF:28:D6:3E,6,6,-36196.657439527786,19651.802894672313,6645.440255876725
6365,-13807,-19719,6161,30470,16386,-1285,32500,21247,-28172,6,-1,11076,2020-11-02 15:00:37,2020-11-02 15:01:07,2,DF:DC:EF:28:D6:3E,6,6,-11077.894824526209,12345.229674617638,-18501.50484521936
6366,-25584,-19721,26121,-2042,14334,-5385,-23819,-24834,-18445,6,-1,11099,2020-11-02 15:00:37,2020-11-02 15:01:07,2,DF:DC:EF:28:D6:3E,6,6,6448.289018807995,7866.640159331215,40277.7988392305
6367,-5109,8184,20490,27650,-30468,7670,23286,-30211,-29966,6,-1,11125,2020-11-02 15:00:37,2020-11-02 15:01:07,2,DF:DC:EF:28:D6:3E,6,6,-15479.154672215023,-16519.203724982042,-656.8987183600948
6368,30733,-31242,17161,-20993,-9991,1015,-27658,10492,-27663,6,1,11151,2020-11-02 15:00:37,2020-11-02 15:01:07,2,DF:DC:EF:28:D6:3E,6,6,2694.8059727988493,-14492.732680708163,-44696.515459423696
6369,8206,-15885,21769,15359,-30982,-16396,-24586,-26886,-31248,6,1,11176,2020-11-02 15:00:37,2020-11-02 15:01:07,2,DF:DC:EF:28:D6:3E,6,6,-1315.4846850653921,-25922.22431195316,10948.461479319498
6370,-26103,-18447,12295,-28671,-25602,-10001,12791,13305,-21522,6,1,11202,2020-11-02 15:00:37,2020-11-02 15:01:07,2,DF:DC:EF:28:D6:3E,6,6,8457.290390493783,4744.120862769807,32844.98438864439
6371,-4609,19698,-7420,-18175,-255,-32274,16376,23800,2540,6,1,11227,2020-11-02 15:00:37,2020-11-02 15:01:07,2,DF:DC:EF:28:D6:3E,6,6,-12879.565853017137,-1450.2734792590536,-17214.06329932456
6372,1273,-23565,11521,15615,14338,3567,12537,-7177,19945,6,1,11253,2020-11-02 15:00:37,2020-11-02 15:01:07,2,DF:DC:EF:28:D6:3E,6,6,-22430.69364575678,3873.701197202742,-13096.626153517424
6373,-30735,-25098,15873,-6150,-3326,24561,-28679,-23817,-19482,6,1,11279,2020-11-02 15:00:37,2020-11-02 15:01:07,2,DF:DC:EF:28:D6:3E,6,6,-8383.064787370105,21371.2128574475,36048.54288001702
6374,22255,-6665,6150,-23818,19459,32503,-520,-16905,-8732,6,1,11304,2020-11-02 15:00:37,2020-11-02 15:01:07,2,DF:DC:EF:28:D6:3E,6,6,-13633.799014186738,8897.697142743444,17677.111189240622
6375,15598,-8198,29195,-19468,28928,31482,-17161,-13321,-16157,6,1,11330,2020-11-02 15:00:37,2020-11-02 15:01:07,2,DF:DC:EF:28:D6:3E,6,6,28165.84080213723,-10446.753872972418,16137.02507980321
6376,18157,-10755,5135,-9229,30461,13567,4086,-29449,26083,6,1,11356,2020-11-02 15:00:37,2020-11-02 15:01:07,2,DF:DC:EF:28:D6:3E,6,6,-14724.563400085386,-594.492642628411,-15954.58273270494
6377,6128,-27139,-16365,-15116,19452,24838,2036,-31753,8932,6,1,11381,2020-11-02 15:00:37,2020-11-02 15:01:07,2,DF:DC:EF:28:D6:3E,6,6,15297.025028802282,-26405.582818046583,-10518.41962024141
6378,-21004,31480,-31466,29175,-25861,29196,-1807,-1801,-7963,6,-1,11407,2020-11-02 15:00:37,2020-11-02 15:01:07,2,DF:DC:EF:28:D6:3E,6,6,15140.996969298174,34682.9731536341,-31466.0
6379,-10245,12275,14871,-8966,-28422,-6897,14576,-7688,15336,6,-1,11432,2020-11-02 15:00:37,2020-11-02 15:01:07,2,DF:DC:EF:28:D6:3E,6,6,20985.540390047267,-1085.5144977759119,-5933.889433821059
6380,-10238,14320,789,-13570,-13830,-6897,6639,-2823,-17942,6,-1,11458,2020-11-02 15:00:37,2020-11-02 15:01:07,2,DF:DC:EF:28:D6:3E,6,6,11133.714408449629,-5557.636613262372,12476.16302177904
6381,-18427,-30481,21779,-1023,30461,-14835,-17682,7931,-13844,6,-1,11484,2020-11-02 15:00:37,2020-11-02 15:01:07,2,DF:DC:EF:28:D6:3E,6,6,40420.704635113056,8422.57699195106,6180.401654877021
6382,-6907,6129,25619,-1277,9983,-15861,-2834,19452,21230,6,-1,11509,2020-11-02 15:00:37,2020-11-02 15:01:07,2,DF:DC:EF:28:D6:3E,6,6,-11213.545438525105,-4592.503875482003,-24387.90187473731
6383,-14842,-8719,-18670,-23548,-515,-7926,29423,18685,-17937,6,-1,11535,2020-11-02 15:00:37,2020-11-02 15:01:07,2,DF:DC:EF:28:D6:3E,6,6,-17850.125313246677,18037.8710305991,-939.7127140056609
6384,-8439,10739,-12272,261,9469,23306,3568,1534,13553,6,-1,11560,2020-11-02 15:00:37,2020-11-02 15:01:07,2,DF:DC:EF:28:D6:3E,6,6,-6253.081913059661,-12142.561862661689,-12272.0
6385,2317,-9229,-32753,-19452,19965,-20471,-20240,-25346,-23310,6,-1,11586,2020-11-02 15:00:37,2020-11-02 15:01:07,2,DF:DC:EF:28:D6:3E,6,6,-19111.024638673967,15220.425457766321,-23799.355561539374
6386,-6128,-23309,4621,-2044,-4868,22536,23025,1791,-269,6,-1,11612,2020-11-02 15:00:37,2020-11-02 15:01:07,2,DF:DC:EF:28:D6:3E,6,6,-6128.0,18732.96348952787,14619.822191121748
6387,10520,14580,28424,-28923,12541,15365,7666,8703,6133,6,-1,11637,2020-11-02 15:00:37,2020-11-02 15:01:07,2,DF:DC:EF:28:D6:3E,6,6,29128.78438952712,15677.636652465728,6074.224640372165
6388,-23524,1011,25863,6404,25087,23040,-13070,-770,-30475,6,-1,11663,2020-11-02 15:00:37,2020-11-02 15:01:07,2,DF:DC:EF:28:D6:3E,6,6,-28820.601332939426,-16006.149437530807,-11682.105332139508
6389,11802,-5906,4618,-21759,-9728,7675,10995,-26626,9717,6,-1,11688,2020-11-02 15:00:37,2020-11-02 15:01:07,2,DF:DC:EF:28:D6:3E,6,6,775.1092236481545,-11890.947780095437,-7314.268971158973
6390,10767,-5650,-1269,-768,12549,9463,23027,15614,-4365,6,-1,11714,2020-11-02 15:00:37,2020-11-02 15:01:07,2,DF:DC:EF:28:D6:3E,6,6,161.68123485799242,2732.704091333647,-11915.004722093196
6391,-26366,22001,-22258,-29948,7944,-21000,-9485,31998,16114,6,1,11740,2020-11-02 15:00:37,2020-11-02 15:01:07,2,DF:DC:EF:28:D6:3E,6,6,-2852.7530347726515,22675.34032129588,-33945.828351006676
6392,8959,7922,-763,-12791,24325,-4874,8437,-13826,-18448,6,1,11765,2020-11-02 15:00:37,2020-11-02 15:01:07,2,DF:DC:EF:28:D6:3E,6,6,10015.316573062026,-3544.42653356734,5543.862235796713
6393,-17668,-12815,-14336,20233,6403,-15,-24330,-30978,-10514,6,1,11791,2020-11-02 15:00:37,2020-11-02 15:01:07,2,DF:DC:EF:28:D6:3E,6,6,13300.403492228692,14869.564430684271,16849.29273250483
6394,24819,-21260,20475,27145,-16123,241,12536,22526,27116,6,1,11817,2020-11-02 15:00:37,2020-11-02 15:01:07,2,DF:DC:EF:28:D6:3E,6,6,11235.18428760654,27956.210372290217,24071.08060814411
6395,-18960,-25607,-32520,-15358,-9979,-10766,12281,-22018,9962,6,1,11842,2020-11-02 15:00:37,2020-11-02 15:01:07,2,DF:DC:EF:28:D6:3E,6,6,-22964.41298336259,38687.11446937591,6978.062722774301
6396,-18708,-3075,-21507,-32005,17923,-3086,-1032,-14338,2024,6,1,11868,2020-11-02 15:00:37,2020-11-02 15:01:07,2,DF:DC:EF:28:D6:3E,6,6,27341.534776863875,-3075.0,-8061.066247435461
6397,-18455,5889,-19454,13303,-2815,-22282,-1801,-18178,19942,6,1,11893,2020-11-02 15:00:37,2020-11-02 15:01:07,2,DF:DC:EF:28:D6:3E,6,6,-21636.401598511762,-2864.335681097545,16654.944280120217
6398,-31255,-19711,-20985,14067,-11009,-21764,22262,-22786,28133,6,1,11919,2020-11-02 15:00:37,2020-11-02 15:01:07,2,DF:DC:EF:28:D6:3E,6,6,-1556.187122620213,-36186.18925086717,-22224.0131420906
6399,-26900,20222,31501,10992,14077,-22526,6900,-26114,-26139,6,1,11945,2020-11-02 15:00:37,2020-11-02 15:01:07,2,DF:DC:EF:28:D6:3E,6,6,-16538.187113306813,42985.69532624687,-1889.6161843958143
6400,-27152,12792,-3565,-18705,24570,12551,-27407,-24066,-21786,6,1,11970,2020-11-02 15:00:37,2020-11-02 15:01:07,2,DF:DC:EF:28:D6:3E,6,6,-27368.520925614983,1819.3697577407656,12697.619817461571
6401,31990,22257,-19944,23282,-2057,3850,15343,-14850,28392,6,1,11996,2020-11-02 15:00:37,2020-11-02 15:01:07,2,DF:DC:EF:28:D6:3E,6,6,32378.313083529072,23913.85748589148,17212.482302371212
6402,-770,-28690,15897,-15881,-11273,1548,-28691,10495,-29462,6,1,12021,2020-11-02 15:00:37,2020-11-02 15:01:07,2,DF:DC:EF:28:D6:3E,6,6,16813.36415044653,-25592.217238229092,-11780.18725554773
6403,-31227,13037,-8681,14846,-12294,-6645,-6932,-8705,-31252,6,-1,12047,2020-11-02 15:00:37,2020-11-02 15:01:07,2,DF:DC:EF:28:D6:3E,6,6,-797.6932749753414,-3616.329405869259,-34738.08437532652
6404,-502,1007,-4588,-26366,8187,-1527,7917,-27136,10222,6,-1,12072,2020-11-02 15:00:37,2020-11-02 15:01:07,2,DF:DC:EF:28:D6:3E,6,6,-4196.325705686959,1616.9965715118879,1446.3642900423276
6405,21262,28658,11024,-9214,22778,8967,-22547,-8448,-25617,6,-1,12100,2020-11-02 15:00:37,2020-11-02 15:01:07,2,DF:DC:EF:28:D6:3E,6,6,4557.865112083484,35747.4525304017,9809.571204019529
6406,30481,-21774,-15856,13570,20474,16132,4590,-15360,-11792,6,-1,12124,2020-11-02 15:00:37,2020-11-02 15:01:07,2,DF:DC:EF:28:D6:3E,6,6,-20520.327958275528,7485.143022511247,34314.71910736509
6407,-24046,6643,21263,26884,5883,-18689,-25106,16128,-27663,6,-1,12149,2020-11-02 15:00:37,2020-11-02 15:01:07,2,DF:DC:EF:28:D6:3E,6,6,14196.27054717447,14825.00975708798,25556.598409288996
6408,-8689,-21773,-19444,-30458,-15363,-5,-32017,31743,-24847,6,-1,12175,2020-11-02 15:00:37,2020-11-02 15:01:07,2,DF:DC:EF:28:D6:3E,6,6,-24369.35605589115,9138.990191312525,-15819.125440563865
6409,-1779,-16397,2060,1031,2559,-1543,-27408,-18434,9457,6,-1,12200,2020-11-02 15:00:37,2020-11-02 15:01:07,2,DF:DC:EF:28:D6:3E,6,6,-5706.425504458056,8063.985244328041,13367.082701222813
6410,-13045,-4621,-24566,23814,-17922,-18953,-22799,-11779,23536,6,-1,12226,2020-11-02 15:00:37,2020-11-02 15:01:07,2,DF:DC:EF:28:D6:3E,6,6,12132.57591472613,12352.23944711356,-22253.916606174724
6411,-14583,1779,13579,10245,23550,17141,-24078,-19716,18415,6,-1,12252,2020-11-02 15:00:37,2020-11-02 15:01:07,2,DF:DC:EF:28:D6:3E,6,6,-13730.171950035134,13512.279242005137,5396.170763471569
6412,16647,-11534,-21237,517,-31490,-5646,-23053,26107,-10003,6,-1,12277,2020-11-02 15:00:37,2020-11-02 15:01:07,2,DF:DC:EF:28:D6:3E,6,6,11882.261465875607,25194.713608685364,9230.612256664885
6413,24834,32244,-12026,4358,11775,7154,-4620,12538,4332,6,-1,12303,2020-11-02 15:00:37,2020-11-02 15:01:07,2,DF:DC:EF:28:D6:3E,6,6,-21269.801393817383,32244.0,-17576.910441473046
6414,13825,-9740,18694,-27388,-20481,27122,13046,15353,10986,6,-1,12329,2020-11-02 15:00:37,2020-11-02 15:01:07,2,DF:DC:EF:28:D6:3E,6,6,-388.7219586934589,-24564.459589308957,-5648.015697927619
6415,16896,8437,-10748,28930,15103,25073,19959,20216,9192,6,-1,12354,2020-11-02 15:00:37,2020-11-02 15:01:07,2,DF:DC:EF:28:D6:3E,6,6,-2383.3659636968373,-16363.695019983546,-14097.033055790751
6416,-21509,-13579,3850,18437,-31744,-29712,-25608,-32265,-11547,6,-1,12380,2020-11-02 15:00:37,2020-11-02 15:01:07,2,DF:DC:EF:28:D6:3E,6,6,13065.53683147735,14221.715462966438,16996.569612593303
6417,31480,4346,4613,23302,-26621,15604,25338,23031,-24349,6,-1,12405,2020-11-02 15:00:37,2020-11-02 15:01:07,2,DF:DC:EF:28:D6:3E,6,6,9838.992794156431,-12386.82482943705,27944.92219422662
6418,-1802,13565,-12540,1539,-19197,-21257,-20997,-20489,-3359,6,-1,12431,2020-11-02 15:00:37,2020-11-02 15:01:07,2,DF:DC:EF:28:D6:3E,6,6,302.1763359606298,-15198.893117455777,-10649.43033528746
6419,2294,17151,-31228,-7939,25088,24058,6140,-10249,-11808,6,-1,12457,2020-11-02 15:00:37,2020-11-02 15:01:07,2,DF:DC:EF:28:D6:3E,6,6,30949.837136895112,-17785.966015469963,611.7312287400291
6420,32245,-30465,-6395,-26888,1278,-15363,30459,-24073,17120,6,1,12482,2020-11-02 15:00:37,2020-11-02 15:01:07,2,DF:DC:EF:28:D6:3E,6,6,13575.800306589921,5838.441428236607,-42312.67567437261
6421,12022,-26882,12297,13814,26877,-17663,2554,23543,24800,6,1,12508,2020-11-02 15:00:37,2020-11-02 15:01:07,2,DF:DC:EF:28:D6:3E,6,6,-9124.89620272744,30561.387194381023,1060.4239928320767
6422,-23050,-22276,16652,-23819,18174,-17915,13816,21239,8161,6,1,12533,2020-11-02 15:00:37,2020-11-02 15:01:07,2,DF:DC:EF:28:D6:3E,6,6,15197.258783396583,12801.201140822152,30165.946940593276
6423,-2825,-19975,-29680,-25099,2559,-25079,9718,-17673,27618,6,1,12559,2020-11-02 15:00:37,2020-11-02 15:01:07,2,DF:DC:EF:28:D6:3E,6,6,5875.49761187369,-14894.552176119123,32117.1993375159
6424,-1543,-15115,-28907,-26634,-20227,26380,2548,28152,10724,6,1,12585,2020-11-02 15:00:37,2020-11-02 15:01:07,2,DF:DC:EF:28:D6:3E,6,6,25083.9017377641,11090.782758131145,17727.129898044295
6425,12031,4338,16408,-7944,-14854,-16115,8690,8441,20454,6,1,12610,2020-11-02 15:00:37,2020-11-02 15:01:07,2,DF:DC:EF:28:D6:3E,6,6,-15243.766954809504,13751.846683836073,-3361.539946471654
6426,-26875,24817,-16107,-1540,-2569,30476,-17168,-30727,-22552,6,1,12661,2020-11-02 15:00:37,2020-11-02 15:01:07,2,DF:DC:EF:28:D6:3E,6,6,19082.19611989441,27946.12026021966,21271.3120573985
6427,-26102,27888,16401,12031,12792,523,-6673,-18439,-8214,6,1,12663,2020-11-02 15:00:37,2020-11-02 15:01:07,2,DF:DC:EF:28:D6:3E,6,6,39367.818857526974,-7880.7010994623815,10775.766217855513
6428,27663,238,29968,23039,29178,-2038,16623,3834,-9492,6,1,12687,2020-11-02 15:00:37,2020-11-02 15:01:07,2,DF:DC:EF:28:D6:3E,6,6,-8066.896399191946,-38054.26842256856,-12254.675610060252
6429,-23786,-3347,12563,14080,-11524,11785,-13842,-24582,30702,6,1,12713,2020-11-02 15:00:37,2020-11-02 15:01:07,2,DF:DC:EF:28:D6:3E,6,6,16231.174083913967,-9688.001929923337,19429.2763751891
6430,-15080,-17680,22291,3077,29693,8962,1263,-15366,23535,6,1,12738,2020-11-02 15:00:37,2020-11-02 15:01:07,2,DF:DC:EF:28:D6:3E,6,6,-4233.4050249607135,22146.85197162075,-22988.534330003633
6431,24084,11766,-2547,16138,11519,23034,23536,12026,13039,6,1,12764,2020-11-02 15:00:37,2020-11-02 15:01:07,2,DF:DC:EF:28:D6:3E,6,6,15656.275997782777,-11096.719413131677,-18886.737705264968
6432,-8690,7673,-25588,6667,23807,-24841,19954,19961,17646,6,-1,12789,2020-11-02 15:00:37,2020-11-02 15:01:07,2,DF:DC:EF:28:D6:3E,6,6,-11644.887812644887,5685.457557995696,-24924.063336204716
6433,24077,-6405,6918,23050,-16643,-16394,22772,18936,13293,6,-1,12815,2020-11-02 15:00:37,2020-11-02 15:01:07,2,DF:DC:EF:28:D6:3E,6,6,5496.535525815656,-24901.353140224826,4277.310720448253
6434,-5621,4861,-18685,2054,31995,7415,-5643,5111,11244,6,-1,12841,2020-11-02 15:00:37,2020-11-02 15:01:07,2,DF:DC:EF:28:D6:3E,6,6,-7127.429718435998,-2103.4988967801587,-18685.0
6435,17672,4862,13314,-30206,32250,-1802,-5642,-19467,9707,6,-1,12866,2020-11-02 15:00:37,2020-11-02 15:01:07,2,DF:DC:EF:28:D6:3E,6,6,-14559.059168931104,-13675.72519403642,-10686.887317304358
6436,-30198,-8964,-20475,25344,23804,2809,29175,-26636,16618,6,-1,12892,2020-11-02 15:00:37,2020-11-02 15:01:07,2,DF:DC:EF:28:D6:3E,6,6,11073.029685045054,29095.607345972523,21031.68494826557
6437,-6904,-19718,-5628,24064,17918,19959,9208,-17165,5609,6,-1,12917,2020-11-02 15:00:37,2020-11-02 15:01:07,2,DF:DC:EF:28:D6:3E,6,6,20725.26527098914,-5917.882164609138,1892.3990416750225
6438,16134,-24071,-4347,-16898,-10241,28408,-17416,14067,-16665,6,-1,12943,2020-11-02 15:00:37,2020-11-02 15:01:07,2,DF:DC:EF:28:D6:3E,6,6,20991.066885322754,-9923.270448832343,-17875.100576367036
6439,-14844,20216,15879,11005,-14079,18425,2553,499,-31770,6,-1,12969,2020-11-02 15:00:37,2020-11-02 15:01:07,2,DF:DC:EF:28:D6:3E,6,6,-23596.294617606138,-8499.757191775047,15879.0
6440,12289,-25352,-21496,27644,-16125,8441,14841,10227,13029,6,-1,12994,2020-11-02 15:00:37,2020-11-02 15:01:07,2,DF:DC:EF:28:D6:3E,6,6,-25189.780238962343,-17280.942931739628,-17962.890187905192
6441,-27140,-32263,-14583,-27141,-22012,-7944,23801,-32269,-15901,6,-1,13020,2020-11-02 15:00:37,2020-11-02 15:01:07,2,DF:DC:EF:28:D6:3E,6,6,-1203.3314804788315,-26784.39096677418,35655.196702403344
6442,29688,-30983,-7925,30713,1541,32251,9721,3828,32738,6,1,13046,2020-11-02 15:00:37,2020-11-02 15:01:07,2,DF:DC:EF:28:D6:3E,6,6,-1236.4704758550342,-31325.455733190338,-30353.191296308065
6443,-7432,-3591,-19698,27383,-11519,21503,12536,-30220,-1311,6,1,13071,2020-11-02 15:00:37,2020-11-02 15:01:07,2,DF:DC:EF:28:D6:3E,6,6,2621.2115824807843,19405.724003653064,8525.73954175893
6444,-2311,-29702,14863,22008,8191,13568,-5642,-24844,-799,6,1,13097,2020-11-02 15:00:37,2020-11-02 15:01:07,2,DF:DC:EF:28:D6:3E,6,6,12758.925895577544,-29702.0,-7966.134570239243
6445,32247,-16646,-29427,-15109,27904,-10495,-523,-19212,10210,6,1,13124,2020-11-02 15:00:37,2020-11-02 15:01:07,2,DF:DC:EF:28:D6:3E,6,6,-997.9062520635889,-32362.825341961943,33683.206097367845
6446,29431,-4615,30477,-19461,7683,-22777,7413,30197,-14878,6,1,13148,2020-11-02 15:00:37,2020-11-02 15:01:07,2,DF:DC:EF:28:D6:3E,6,6,-24039.46277762985,15090.790432789301,31791.536428373256
6447,32762,-29704,17168,-9479,-27903,-27125,-18445,-21258,5092,6,1,13174,2020-11-02 15:00:37,2020-11-02 15:01:07,2,DF:DC:EF:28:D6:3E,6,6,-30627.182439752974,31829.485417391432,17299.596465413662
6448,21245,-3595,-10991,6905,16126,3597,2546,-16137,-10779,6,1,13199,2020-11-02 15:00:37,2020-11-02 15:01:07,2,DF:DC:EF:28:D6:3E,6,6,-2402.09344013351,-2912.6436260561313,23891.89371340125
6449,18176,8692,-17134,15355,-24836,1038,30448,-17416,-8217,6,1,13225,2020-11-02 15:00:37,2020-11-02 15:01:07,2,DF:DC:EF:28:D6:3E,6,6,-20466.97209991563,6029.488172710007,15628.183561643536
6450,-3071,-24078,-26608,-4610,-16643,-14578,32495,-6919,-5911,6,1,13250,2020-11-02 15:00:37,2020-11-02 15:01:07,2,DF:DC:EF:28:D6:3E,6,6,-35179.77870848586,-5075.514460854707,5812.840267856993
6451,5891,24306,-6898,6656,-17409,-8689,2799,25851,-14101,6,1,13276,2020-11-02 15:00:37,2020-11-02 15:01:07,2,DF:DC:EF:28:D6:3E,6,6,21531.341556870382,-11360.42884636307,8967.157196576201
6452,4614,24561,-16113,31998,19455,11281,-25362,8701,-21267,6,1,13302,2020-11-02 15:00:37,2020-11-02 15:01:07,2,DF:DC:EF:28:D6:3E,6,6,-27271.102099221578,11.398285471521376,11851.048323794845
6453,11020,-7441,21264,-14851,-31747,-6129,7406,-19970,-20241,6,1,13327,2020-11-02 15:00:37,2020-11-02 15:01:07,2,DF:DC:EF:28:D6:3E,6,6,8438.451673065005,23337.81612120683,-3620.144894073308
6454,-31728,11759,-3057,-32257,14589,-18677,-8211,-13825,29937,6,1,13353,2020-11-02 15:00:37,2020-11-02 15:01:07,2,DF:DC:EF:28:D6:3E,6,6,10349.307385301607,-21656.61966376863,-24045.123734000863
6455,21778,-12560,-19442,1794,-18178,-14075,2286,23552,-28686,6,1,13378,2020-11-02 15:00:37,2020-11-02 15:01:07,2,DF:DC:EF:28:D6:3E,6,6,12179.878924987388,-3103.756797663662,29189.784019646402
6456,-13807,-20495,-13550,-18428,18432,20223,-28946,27648,-13326,6,1,13404,2020-11-02 15:00:37,2020-11-02 15:01:07,2,DF:DC:EF:28:D6:3E,6,6,-4627.219010646773,-27363.6244957174,4909.345443629294
6457,29709,-23820,31502,-13049,-27648,14331,-23569,1536,22770,6,-1,13430,2020-11-02 15:00:37,2020-11-02 15:01:07,2,DF:DC:EF:28:D6:3E,6,6,-28244.483331391584,12380.763405461114,-38618.11678268035
6458,-10741,30197,-13554,-27129,-14594,-1545,-11536,15615,-26383,6,-1,13455,2020-11-02 15:00:37,2020-11-02 15:01:07,2,DF:DC:EF:28:D6:3E,6,6,28883.327165197465,4638.658097797448,18846.088955534102
6459,21768,3574,21773,25863,-29443,-14858,1778,5886,-19984,6,-1,13481,2020-11-02 15:00:37,2020-11-02 15:01:07,2,DF:DC:EF:28:D6:3E,6,6,-29277.23323196023,-7783.496759950465,-6553.138291631285
6460,-16890,-9994,-2295,18950,9469,-12298,12531,-7172,-15377,6,-1,13506,2020-11-02 15:00:37,2020-11-02 15:01:07,2,DF:DC:EF:28:D6:3E,6,6,6629.143109447688,-523.724532776572,-18606.432630900264
6461,9991,2039,-18168,12036,14589,19447,6900,-15877,-10258,6,-1,13532,2020-11-02 15:00:37,2020-11-02 15:01:07,2,DF:DC:EF:28:D6:3E,6,6,15524.595297900447,6155.858902438936,12455.768463233037
6462,-22007,-11789,9741,-14845,-13059,18423,-13836,-14086,-7955,6,-1,13583,2020-11-02 15:00:37,2020-11-02 15:01:07,2,DF:DC:EF:28:D6:3E,6,6,13254.699570394127,4830.58495509705,-22784.95203616158
6463,-7929,17905,12812,-32506,-31234,12277,-6667,-10503,-24084,6,-1,13585,2020-11-02 15:00:37,2020-11-02 15:01:07,2,DF:DC:EF:28:D6:3E,6,6,-17159.660057014382,-11426.051223870076,-11072.345287119722
6464,-26111,3313,-17656,29448,7423,-16912,-27657,-9736,-15894,6,-1,13609,2020-11-02 15:00:37,2020-11-02 15:01:07,2,DF:DC:EF:28:D6:3E,6,6,20971.22660522667,18917.598686067216,-14381.472129971295
6465,-9480,18165,-30204,-26105,-15615,10223,-26375,10744,14312,6,-1,13634,2020-11-02 15:00:37,2020-11-02 15:01:07,2,DF:DC:EF:28:D6:3E,6,6,-19584.49088731302,16395.897733704485,26071.852546197355
6466,-11021,9467,25861,29189,6149,-1552,25851,15096,-26651,6,-1,13660,2020-11-02 15:00:37,2020-11-02 15:01:07,2,DF:DC:EF:28:D6:3E,6,6,1178.6823589297219,-21840.119703141256,20037.40827176032
6467,9197,20482,3332,22787,-26874,-32523,-15364,-4104,27107,6,-1,13686,2020-11-02 15:00:37,2020-11-02 15:01:07,2,DF:DC:EF:28:D6:3E,6,6,-10169.236884902197,-3369.3641299308983,-20010.831155618693
6468,22762,-22011,-9983,20733,-30969,-16130,6653,2298,27362,6,-1,13711,2020-11-02 15:00:37,2020-11-02 15:01:07,2,DF:DC:EF:28:D6:3E,6,6,-17521.13360867902,-14943.69119619028,-23915.45576608825
6469,-27665,-7421,-19707,-17164,25091,-2810,-12549,6395,-4126,6,-1,13737,2020-11-02 15:00:37,2020-11-02 15:01:07,2,DF:DC:EF:28:D6:3E,6,6,-2368.3960778956944,-14831.298716437366,31356.220968127072
6470,-18190,1279,-13044,-25871,-21761,23818,29945,-21253,17636,6,-1,13763,2020-11-02 15:00:37,2020-11-02 15:01:07,2,DF:DC:EF:28:D6:3E,6,6,-16802.066931357975,14663.254695487805,2310.278245021931
6471,13558,-11782,27408,2804,6655,-4595,8695,20220,9190,6,-1,13814,2020-11-02 15:00:37,2020-11-02 15:01:07,2,DF:DC:EF:28:D6:3E,6,6,17884.623052396255,-26613.780822998495,-6758.718856343562
6472,14586,15607,-7919,15095,-17666,29967,19701,13309,20456,6,-1,13816,2020-11-02 15:00:37,2020-11-02 15:01:07,2,DF:DC:EF:28:D6:3E,6,6,-1008.0880056795431,14621.873385719055,-17442.046418491318
6473,21501,-7180,5138,2297,-27650,-16625,-4621,14846,-32022,6,-1,13839,2020-11-02 15:00:37,2020-11-02 15:01:07,2,DF:DC:EF:28:D6:3E,6,6,5672.249414098712,-6136.673952625414,-21688.9664203582
6474,20480,8947,32531,30969,24062,-24817,-13838,23039,-22036,6,-1,13865,2020-11-02 15:00:37,2020-11-02 15:01:07,2,DF:DC:EF:28:D6:3E,6,6,663.4541867525759,-26023.89641716149,29665.835801657937
6475,-28414,-15118,10772,2555,5885,-6899,-6415,20992,-19218,6,-1,13891,2020-11-02 15:00:37,2020-11-02 15:01:07,2,DF:DC:EF:28:D6:3E,6,6,-30312.08127110633,-5225.975307178578,-14346.156806009214
6476,18692,-28940,-23022,5886,-21763,30476,31729,9473,-30224,6,-1,13916,2020-11-02 15:00:37,2020-11-02 15:01:07,2,DF:DC:EF:28:D6:3E,6,6,36971.60250337822,18216.840593845023,-4263.129731856346
6477,-26618,-19979,-21744,27392,20734,-28405,-28943,-2047,10738,6,1,13942,2020-11-02 15:00:37,2020-11-02 15:01:07,2,DF:DC:EF:28:D6:3E,6,6,-27158.294172469734,-14194.56077608685,-25326.298644207232
6478,16906,8436,15886,8448,-14851,30218,-13327,-21246,-20237,6,1,13967,2020-11-02 15:00:37,2020-11-02 15:01:07,2,DF:DC:EF:28:D6:3E,6,6,16117.123941374044,-8747.576955048009,16524.592015353977
6479,27149,-3599,30734,-20994,17404,11271,-10511,-1022,2805,6,1,13993,2020-11-02 15:00:37,2020-11-02 15:01:07,2,DF:DC:EF:28:D6:3E,6,6,27149.0,23917.221248266458,19634.10514287503
6480,-10484,1009,8462,25086,-32517,-9214,-20495,-15870,-11,6,1,14019,2020-11-02 15:00:37,2020-11-02 15:01:07,2,DF:DC:EF:28:D6:3E,6,6,12109.830717926468,195.2550791327469,-5987.625275285467
6481,27915,-1553,15888,9985,20732,14847,-21263,14082,29942,6,1,14044,2020-11-02 15:00:37,2020-11-02 15:01:07,2,DF:DC:EF:28:D6:3E,6,6,-3671.409730729866,25735.46042587822,-18928.66623027513
6482,18697,-22288,-18675,5381,-1027,-18182,14066,32513,18422,6,1,14070,2020-11-02 15:00:37,2020-11-02 15:01:07,2,DF:DC:EF:28:D6:3E,6,6,-20817.56868798049,-23554.152943553912,14384.682514149728
6483,-28669,16114,4875,31237,-24834,9463,243,-25600,29685,6,1,14095,2020-11-02 15:00:37,2020-11-02 15:01:07,2,DF:DC:EF:28:D6:3E,6,6,21814.28581513333,-16936.512685769816,18510.258086272886
6484,2817,-5388,-11511,21764,-1794,6132,-20237,-28161,12788,6,1,14121,2020-11-02 15:00:37,2020-11-02 15:01:07,2,DF:DC:EF:28:D6:3E,6,6,-6435.387782421398,5147.304278576401,-10077.707911703455
6485,-9735,2298,-4599,14339,-11007,-9744,20468,-29698,19698,6,1,14148,2020-11-02 15:00:37,2020-11-02 15:01:07,2,DF:DC:EF:28:D6:3E,6,6,-1666.8513625398232,1880.0323479500976,10718.62467417627
6486,10485,-1026,21004,-20222,2564,-18189,-5388,3582,13552,6,1,14172,2020-11-02 15:00:37,2020-11-02 15:01:07,2,DF:DC:EF:28:D6:3E,6,6,-3430.360421273639,9960.950174564641,21004.0
6487,32244,-17919,8973,-20991,15106,18680,28661,-7683,-21522,6,1,14198,2020-11-02 15:00:37,2020-11-02 15:01:07,2,DF:DC:EF:28:D6:3E,6,6,-315.579508788951,-3602.0670967770357,37791.617433022744
6488,-30217,-31487,4110,-1793,-20738,7932,-22795,-25091,-3603,6,1,14223,2020-11-02 15:00:37,2020-11-02 15:01:07,2,DF:DC:EF:28:D6:3E,6,6,20034.629746307182,31751.89697358428,22623.461439560324
6489,31994,28672,-14067,31487,32508,13822,-22539,6909,-14867,6,1,14249,2020-11-02 15:00:37,2020-11-02 15:01:07,2,DF:DC:EF:28:D6:3E,6,6,-38268.98359097144,-10639.725937450097,-21583.818843983812
6490,30462,10752,-244,-30976,-19204,30464,-21003,-24580,-3347,6,1,14275,2020-11-02 15:00:37,2020-11-02 15:01:07,2,DF:DC:EF:28:D6:3E,6,6,-20876.79347655958,-10678.832605414596,-22219.822508800862
6491,-28928,22016,-15606,-24319,-6658,9988,-10763,-29444,28398,6,1,14300,2020-11-02 15:00:37,2020-11-02 15:01:07,2,DF:DC:EF:28:D6:3E,6,6,21324.713882585478,26582.218117619894,20092.85778014533
6492,-27901,11517,-26101,-26881,31232,2311,-11019,-3588,16879,6,1,14326,2020-11-02 15:00:37,2020-11-02 15:01:07,2,DF:DC:EF:28:D6:3E,6,6,25923.774973689073,-18819.91804714517,-23793.65181749686
6493,23304,-8710,18189,9213,-21506,23559,27381,26109,20976,6,1,14352,2020-11-02 15:00:37,2020-11-02 15:01:07,2,DF:DC:EF:28:D6:3E,6,6,8365.11211696875,-20847.836003928962,21099.120129138697
6494,29194,-25095,-24819,18173,24060,3588,-9484,22269,18673,6,1,14377,2020-11-02 15:00:37,2020-11-02 15:01:07,2,DF:DC:EF:28:D6:3E,6,6,32396.53133510894,30173.517554084858,-11749.681607032478
6495,6151,-15366,5899,-7681,-31490,-5120,-25868,4093,-15631,6,1,14403,2020-11-02 15:00:37,2020-11-02 15:01:07,2,DF:DC:EF:28:D6:3E,6,6,2513.714856491536,-7914.983891063221,-15484.870862376072
6496,19711,-8712,25354,-18175,3845,-3328,-11788,25853,-21007,6,1,14428,2020-11-02 15:00:37,2020-11-02 15:01:07,2,DF:DC:EF:28:D6:3E,6,6,14550.22324788191,-24875.41134128631,16635.88576056595
6497,-32515,23029,9233,-16385,17159,-16638,-4620,-30210,30193,6,1,14454,2020-11-02 15:00:37,2020-11-02 15:01:07,2,DF:DC:EF:28:D6:3E,6,6,21978.24596359862,6886.805965335123,33798.47574905391
6498,-26625,-30989,19222,32255,-3327,22016,-12556,16383,23281,6,1,14479,2020-11-02 15:00:37,2020-11-02 15:01:07,2,DF:DC:EF:28:D6:3E,6,6,3751.6323422605637,-42125.775972113996,15812.598885564905
6499,24064,27380,-23022,7940,-5378,28668,7925,3583,7409,6,1,14505,2020-11-02 15:00:37,2020-11-02 15:01:07,2,DF:DC:EF:28:D6:3E,6,6,-15747.713320326822,38709.03026627727,10600.635878343894
6500,-27391,1527,-7669,-23031,-29694,3577,19446,-15618,20464,6,1,14531,2020-11-02 15:00:37,2020-11-02 15:01:07,2,DF:DC:EF:28:D6:3E,6,6,-4195.487514003888,1031.8628027959135,-28155.73324699685
6501,4608,-22792,13063,-30964,-14329,-13324,9976,3071,-25106,6,1,14556,2020-11-02 15:00:37,2020-11-02 15:01:07,2,DF:DC:EF:28:D6:3E,6,6,14626.583173170226,18721.625356703997,-12120.837664186067
6502,-1540,-13830,-8445,2058,7687,4851,-3591,-25089,28908,6,1,14582,2020-11-02 15:00:37,2020-11-02 15:01:07,2,DF:DC:EF:28:D6:3E,6,6,-14789.326121876496,1240.3621004416163,6685.496220967412
6503,5624,-1538,-26879,-22526,28163,13044,-10758,-6401,26090,6,1,14608,2020-11-02 15:00:37,2020-11-02 15:01:07,2,DF:DC:EF:28:D6:3E,6,6,-27008.399132455794,4603.211281074285,-2415.012050436123
6504,-24079,19460,-8704,-23302,3330,-7,-32006,1280,2025,6,1,14633,2020-11-02 15:00:37,2020-11-02 15:01:07,2,DF:DC:EF:28:D6:3E,6,6,-24079.0,13866.54301578234,16191.670722672752
6505,23020,-4347,-28669,-31245,30210,5635,3577,30208,-12056,6,1,14659,2020-11-02 15:00:37,2020-11-02 15:01:07,2,DF:DC:EF:28:D6:3E,6,6,-18110.57375765958,-29126.49346741695,13942.125607700214
6506,7660,-6144,21256,-16914,-30211,5901,-14858,6145,8170,6,1,14684,2020-11-02 15:00:37,2020-11-02 15:01:07,2,DF:DC:EF:28:D6:3E,6,6,-17660.94560360145,12999.498433318277,-8206.455560641663
6507,-4111,-14089,-12021,3307,6393,6419,-781,-23039,-10772,6,1,14710,2020-11-02 15:00:37,2020-11-02 15:01:07,2,DF:DC:EF:28:D6:3E,6,6,-15319.03529483486,-2218.1587439696614,10968.665024612372
6508,23803,21230,-27375,-16663,-8970,-19691,-4112,-31486,13808,6,1,14736,2020-11-02 15:00:37,2020-11-02 15:01:07,2,DF:DC:EF:28:D6:3E,6,6,-11190.128209449726,-26564.770514711254,-30590.526836862504
6509,25605,9704,2587,16621,9462,23570,12526,27395,-30221,6,1,14761,2020-11-02 15:00:37,2020-11-02 15:01:07,2,DF:DC:EF:28:D6:3E,6,6,-282.5344446903814,-23484.168225014208,14313.987112848625
6510,27914,-23064,19486,18429,18682,5901,10989,14852,502,6,1,14787,2020-11-02 15:00:37,2020-11-02 15:01:07,2,DF:DC:EF:28:D6:3E,6,6,-19690.298413934033,-28858.435992509447,-21687.012436858662
6511,2061,-30995,-23789,-23290,-20738,4874,8430,6661,-32521,6,1,14813,2020-11-02 15:00:37,2020-11-02 15:01:07,2,DF:DC:EF:28:D6:3E,6,6,-12114.29200466193,-29420.9302970267,-22770.750024610094
6512,31759,-22287,27919,-4604,-30468,-28155,19951,-30203,-26376,6,-1,14838,2020-11-02 15:00:37,2020-11-02 15:01:07,2,DF:DC:EF:28:D6:3E,6,6,-309.1618412839016,-27369.74437253163,-39186.94327117346
6513,3343,-25870,-6641,31491,11513,-26113,5104,-4092,27385,6,-1,14864,2020-11-02 15:00:37,2020-11-02 15:01:07,2,DF:DC:EF:28:D6:3E,6,6,-21763.61117816316,14379.769729927237,-6641.0
6514,13580,20468,-32756,30468,249,-4357,-13840,-19453,-12295,6,-1,14889,2020-11-02 15:00:37,2020-11-02 15:01:07,2,DF:DC:EF:28:D6:3E,6,6,-29526.243145372217,27525.147476003855,6846.764355854455
6515,-18680,-23564,-26102,-15868,27898,-25350,32497,28418,-13831,6,-1,14915,2020-11-02 15:00:37,2020-11-02 15:01:07,2,DF:DC:EF:28:D6:3E,6,6,-29134.124964748487,12549.590273426078,-24067.186094505283
6516,-1532,28660,31753,-14589,1787,-27144,5874,10497,28665,6,-1,14940,2020-11-02 15:00:37,2020-11-02 15:01:07,2,DF:DC:EF:28:D6:3E,6,6,-1155.968414926465,-35696.25575602171,23588.910424697013
6517,-6657,31220,-5110,6659,-29701,6135,-29454,-12289,-13832,6,-1,14966,2020-11-02 15:00:37,2020-11-02 15:01:07,2,DF:DC:EF:28:D6:3E,6,6,22135.414734006572,15311.03597597359,-17908.426533226393
6518,9213,30452,-31733,-23293,-8964,-10249,4083,-24066,504,6,-1,14992,2020-11-02 15:00:37,2020-11-02 15:01:07,2,DF:DC:EF:28:D6:3E,6,6,-30037.632262622945,30452.0,13769.651631593057
6519,3069,23285,-9975,-17916,20222,21752,-15629,-16643,13047,6,-1,15017,2020-11-02 15:00:37,2020-11-02 15:01:07,2,DF:DC:EF:28:D6:3E,6,6,11148.986480564083,20719.792741037385,9874.254413607838
6520,-24835,9718,-18681,-19963,19711,-31498,-21516,-1796,9206,6,-1,15043,2020-11-02 15:00:37,2020-11-02 15:01:07,2,DF:DC:EF:28:D6:3E,6,6,-3104.4895306800563,-27520.422648104544,17122.64559066713
6521,-4613,-18952,260,12549,24832,31220,-17419,14332,-20748,6,-1,15068,2020-11-02 15:00:37,2020-11-02 15:01:07,2,DF:DC:EF:28:D6:3E,6,6,-1423.4301773410305,-19191.967152286885,3188.7170391516747
6522,-20743,24571,-16124,24578,-10239,17396,-29450,-21253,-4110,6,1,15094,2020-11-02 15:00:37,2020-11-02 15:01:07,2,DF:DC:EF:28:D6:3E,6,6,17855.833391147902,22431.55856368538,-21725.189534536188
6523,17144,9725,30981,-28673,5890,-17162,-1546,25083,20465,6,1,15120,2020-11-02 15:00:37,2020-11-02 15:01:07,2,DF:DC:EF:28:D6:3E,6,6,32933.38660937041,-14517.847188849702,-7275.911038416441
6524,-30984,27390,13062,-27140,32513,7675,-9226,18939,16368,6,1,15145,2020-11-02 15:00:37,2020-11-02 15:01:07,2,DF:DC:EF:28:D6:3E,6,6,-35276.73074400384,15107.326979148664,20202.899285997075
6525,-26887,9726,-29689,-6408,32257,-31233,6390,26875,-10513,6,1,15172,2020-11-02 15:00:37,2020-11-02 15:01:07,2,DF:DC:EF:28:D6:3E,6,6,38152.155051344416,-3454.583051915941,-15212.543734549788
6526,30714,-18436,-27382,-7180,-22527,-32765,-24076,-12037,-785,6,1,15197,2020-11-02 15:00:37,2020-11-02 15:01:07,2,DF:DC:EF:28:D6:3E,6,6,-16369.3113525862,32773.33972076324,26286.18773024219
6527,5115,24058,3856,-14607,-20991,-1530,-29966,-29188,-27664,6,1,15222,2020-11-02 15:00:37,2020-11-02 15:01:07,2,DF:DC:EF:28:D6:3E,6,6,-18460.329978130078,16590.219181755114,1949.4023699268755
