id,accelerationx,accelerationy,accelerationz,angularvelocityx,angularvelocityy,angularvelocityz,pitch,roll,yaw,mdlcircle_id,hallsensor,timestamp,starttime,endtime,train_mode,blemac,training_id,training_handle_id,accelerationWorldx,accelerationWorldy,accelerationWorldz
12928,-3827,4354,-27897,-2817,-5633,13824,4358,-2072,791,12,1,21983,2020-11-02 15:10:35,2020-11-02 15:11:05,1,DF:DC:EF:28:D6:3E,12,12,-3827.0,4354.0,-27897.0
12929,-24819,22530,-26361,-5121,1536,7936,1286,-3096,3351,12,1,22009,2020-11-02 15:10:35,2020-11-02 15:11:05,1,DF:DC:EF:28:D6:3E,12,12,-24819.0,22530.0,-26361.0
12930,31757,-29952,12807,-3073,-3073,-1,518,-3096,3863,12,1,22034,2020-11-02 15:10:35,2020-11-02 15:11:05,1,DF:DC:EF:28:D6:3E,12,12,31757.0,-29952.0,12807.0
12931,4108,-19198,10503,-7681,8448,-257,-1787,-2328,5399,12,1,22060,2020-11-02 15:10:35,2020-11-02 15:11:05,1,DF:DC:EF:28:D6:3E,12,12,4108.0,-19198.0,10503.0
12932,20749,-16129,-7417,-17665,-9217,5376,-4859,-1816,6423,12,1,22086,2020-11-02 15:10:35,2020-11-02 15:11:05,1,DF:DC:EF:28:D6:3E,12,12,24782.818058424593,8745.145572431818,-7417.0
12933,21774,-19713,-19960,-12289,-8193,9216,-8443,-2584,8471,12,1,22111,2020-11-02 15:10:35,2020-11-02 15:11:05,1,DF:DC:EF:28:D6:3E,12,12,34860.17792422068,3492.6521979137397,5803.483498389993
12934,-17396,-18433,-13560,-14593,2560,2304,-11515,-2328,10007,12,1,22137,2020-11-02 15:10:35,2020-11-02 15:11:05,1,DF:DC:EF:28:D6:3E,12,12,-5478.484929343365,-17155.626540477308,22404.03057225704
12935,20747,-767,12295,-7425,4352,3328,-14843,-536,12567,12,1,22162,2020-11-02 15:10:35,2020-11-02 15:11:05,1,DF:DC:EF:28:D6:3E,12,12,-19089.80633405321,14079.922703048123,-4419.094228971818
12936,8720,29188,-14331,8960,11520,5888,-17147,233,15383,12,1,22188,2020-11-02 15:10:35,2020-11-02 15:11:05,1,DF:DC:EF:28:D6:3E,12,12,19265.158567131035,18406.666839165355,-20576.7729796309
12937,26382,5632,-4856,9472,-257,8448,-17403,-24,16919,12,1,22214,2020-11-02 15:10:35,2020-11-02 15:11:05,1,DF:DC:EF:28:D6:3E,12,12,-5285.750578773146,26594.54530987279,4012.6156780985907
12938,-30454,-14847,-16376,-769,-7425,3328,-17659,-536,18199,12,1,22239,2020-11-02 15:10:35,2020-11-02 15:11:05,1,DF:DC:EF:28:D6:3E,12,12,28401.116233497043,-16561.13874915138,18307.32588399374
12939,6929,3588,32517,2048,0,5120,-19451,-1304,20759,12,-1,22265,2020-11-02 15:10:35,2020-11-02 15:11:05,1,DF:DC:EF:28:D6:3E,12,12,-7005.957999670637,-48.51084736966004,-32697.924600875485
12940,30220,7167,-14838,-7937,-9217,4864,-20731,-2584,21015,12,-1,22290,2020-11-02 15:10:35,2020-11-02 15:11:05,1,DF:DC:EF:28:D6:3E,12,12,-28620.791166128674,13361.900446918604,13678.10156679234
12941,-3572,9732,-26619,0,11264,-8193,-22011,-1560,22039,12,-1,22316,2020-11-02 15:10:35,2020-11-02 15:11:05,1,DF:DC:EF:28:D6:3E,12,12,5426.002581919718,12752.98851932944,24979.23034856863
12942,-11250,17920,27400,0,23296,-5377,-21243,1257,20759,12,-1,22343,2020-11-02 15:10:35,2020-11-02 15:11:05,1,DF:DC:EF:28:D6:3E,12,12,13095.3113777274,12147.53335238849,-29654.664951285027
12943,23050,-17919,-19960,-8449,-4097,-2049,-21755,3049,20759,12,-1,22367,2020-11-02 15:10:35,2020-11-02 15:11:05,1,DF:DC:EF:28:D6:3E,12,12,-24925.2496635242,-11520.762825438735,22288.979656569652
12944,-19696,-12542,13062,6656,14848,14848,-24315,4329,23575,12,-1,22393,2020-11-02 15:10:35,2020-11-02 15:11:05,1,DF:DC:EF:28:D6:3E,12,12,11597.169600300873,16008.911368296074,-18029.709871872532
12945,25866,30207,-29686,1792,-513,27392,-28923,3817,29975,12,-1,22418,2020-11-02 15:10:35,2020-11-02 15:11:05,1,DF:DC:EF:28:D6:3E,12,12,42851.16764359119,-14298.046778912023,20545.429927088087
12946,-16114,10500,-24828,768,11776,-23808,26629,3561,-23785,12,-1,22444,2020-11-02 15:10:35,2020-11-02 15:11:05,1,DF:DC:EF:28:D6:3E,12,12,29947.181521069124,4572.9026866954855,8282.23761806851
12947,-31990,-4610,-16887,-4865,3584,-13568,14085,2025,-9961,12,-1,22470,2020-11-02 15:10:35,2020-11-02 15:11:05,1,DF:DC:EF:28:D6:3E,12,12,-2748.917598674083,36251.69974192153,2835.6104911052007
12948,-15607,-29437,22532,-26625,24576,8705,-5116,2793,10008,12,-1,22495,2020-11-02 15:10:35,2020-11-02 15:11:05,1,DF:DC:EF:28:D6:3E,12,12,16337.883292105993,-29037.71663773727,22532.0
12949,-14326,-25087,-21243,-25090,-7681,-14335,26372,2281,-26088,12,-1,22521,2020-11-02 15:10:35,2020-11-02 15:11:05,1,DF:DC:EF:28:D6:3E,12,12,9121.011955069902,-11051.904257192786,32871.2556377957
12950,4625,24065,-25848,-7939,-22274,514,-23805,-10264,9753,12,-1,22546,2020-11-02 15:10:35,2020-11-02 15:11:05,1,DF:DC:EF:28:D6:3E,12,12,-17836.00065258762,-20685.789696145242,22860.646083777803
12951,-24045,-5377,19208,14846,13822,-2048,2563,-30232,32537,12,-1,22572,2020-11-02 15:10:35,2020-11-02 15:11:05,1,DF:DC:EF:28:D6:3E,12,12,-1866.1196175605382,-12647.200730818568,28505.917442652815
12952,-32749,3073,3848,-31234,1024,-6913,-15870,26600,-30439,12,-1,22598,2020-11-02 15:10:35,2020-11-02 15:11:05,1,DF:DC:EF:28:D6:3E,12,12,4886.791452766289,24346.6368550739,-21911.366391540425
12953,31760,-5375,-763,-514,-26111,2303,-19198,-28952,25113,12,1,22623,2020-11-02 15:10:35,2020-11-02 15:11:05,1,DF:DC:EF:28:D6:3E,12,12,-2892.026286259834,-11324.562157028704,-30026.00322905424
12954,26126,3075,-27644,-1538,513,-27906,-9214,-14872,3097,12,1,22649,2020-11-02 15:10:35,2020-11-02 15:11:05,1,DF:DC:EF:28:D6:3E,12,12,5061.948710583039,-21600.19431348496,31048.712016299785
12955,-15603,-9726,-22781,9982,-28418,17150,7427,-18200,-32488,12,1,22674,2020-11-02 15:10:35,2020-11-02 15:11:05,1,DF:DC:EF:28:D6:3E,12,12,-8140.997023731565,21532.551482123567,18085.796640714834
12956,18958,-25855,16901,20732,15101,25086,15875,25320,-10217,12,1,22700,2020-11-02 15:10:35,2020-11-02 15:11:05,1,DF:DC:EF:28:D6:3E,12,12,1915.8985498557304,-11513.429285478132,34311.818209400604
12957,31758,-25089,7432,22779,28413,-16642,4355,-537,17943,12,1,22726,2020-11-02 15:10:35,2020-11-02 15:11:05,1,DF:DC:EF:28:D6:3E,12,12,-27899.621824822938,29319.61096317384,7432.0
12958,-1779,-3074,27145,-20485,-24066,1791,-18174,-18201,-7914,12,1,22751,2020-11-02 15:10:35,2020-11-02 15:11:05,1,DF:DC:EF:28:D6:3E,12,12,8751.747478570836,-907.6437596545138,25923.89710049184
12959,-29941,-27905,6410,18428,-12545,-14593,18690,-22297,-20714,12,1,22777,2020-11-02 15:10:35,2020-11-02 15:11:05,1,DF:DC:EF:28:D6:3E,12,12,-27010.5661194161,-30841.539485695852,5955.616346014452
12960,14347,11008,12298,-11012,30207,8961,-27647,-23833,-6890,12,1,22803,2020-11-02 15:10:35,2020-11-02 15:11:05,1,DF:DC:EF:28:D6:3E,12,12,-18833.655071444384,-1211.3436832578147,-11048.952897487106
12961,7437,4096,-14069,9726,21502,28161,-14080,30695,23319,12,1,22828,2020-11-02 15:10:35,2020-11-02 15:11:05,1,DF:DC:EF:28:D6:3E,12,12,-11015.371706229766,9425.598215658425,7735.801862158146
12962,-20723,-23553,-32757,25856,-20483,-26112,28416,11239,-21993,12,1,22854,2020-11-02 15:10:35,2020-11-02 15:11:05,1,DF:DC:EF:28:D6:3E,12,12,-22927.09177602017,6222.1075225643235,38637.30616478841
12963,22029,-19969,-13815,-22783,15614,5632,-28672,-7962,-16873,12,1,22879,2020-11-02 15:10:35,2020-11-02 15:11:05,1,DF:DC:EF:28:D6:3E,12,12,-6135.520851815178,-31628.504267762004,6073.31282424196
12964,19726,24063,-24311,2305,-13058,5120,-17664,-20762,-14313,12,1,22905,2020-11-02 15:10:35,2020-11-02 15:11:05,1,DF:DC:EF:28:D6:3E,12,12,-15440.289275671426,31751.154865095144,-17681.329073809204
12965,-24819,-27906,21514,27137,-4865,-5889,-4352,-25114,-16105,12,1,22931,2020-11-02 15:10:35,2020-11-02 15:11:05,1,DF:DC:EF:28:D6:3E,12,12,-38901.55290329144,-17943.382716643908,4720.592271787724
12966,16140,30974,28425,-27902,22274,13824,11265,-10522,-10729,12,1,22956,2020-11-02 15:10:35,2020-11-02 15:11:05,1,DF:DC:EF:28:D6:3E,12,12,-20165.377682094404,18110.400399361795,35961.64402962252
12967,-30966,2559,27143,19715,2564,-11520,23553,25319,8984,12,1,22982,2020-11-02 15:10:35,2020-11-02 15:11:05,1,DF:DC:EF:28:D6:3E,12,12,3104.797591122684,39758.87749815918,-10572.415901984285
12968,26121,-32513,-9979,27139,12547,1281,-30463,-3609,-30952,12,-1,23007,2020-11-02 15:10:35,2020-11-02 15:11:05,1,DF:DC:EF:28:D6:3E,12,12,7077.371741331013,25146.3206236897,-34008.169890860154
12969,-10488,-13570,25861,-23294,28161,5634,-32511,16104,5401,12,-1,23058,2020-11-02 15:10:35,2020-11-02 15:11:05,1,DF:DC:EF:28:D6:3E,12,12,-797.3649129317264,-28648.036523799405,11899.099862034973
12970,-31733,-17411,-32251,-7679,-2561,23555,-512,19176,2330,12,-1,23061,2020-11-02 15:10:35,2020-11-02 15:11:05,1,DF:DC:EF:28:D6:3E,12,12,26864.17051468316,-17411.0,36406.40922362473
12971,4621,31484,27141,-10751,-29185,1540,14336,14312,15387,12,-1,23084,2020-11-02 15:10:35,2020-11-02 15:11:05,1,DF:DC:EF:28:D6:3E,12,12,28595.526331588782,28305.80198331497,-11415.219047428529
12972,28687,2556,13317,-25855,25599,-31228,14847,8168,-21732,12,-1,23110,2020-11-02 15:10:35,2020-11-02 15:11:05,1,DF:DC:EF:28:D6:3E,12,12,-14523.008769092781,11235.739736311854,-25877.788987290183
12973,19472,-12549,-19196,-1024,-31745,5892,10750,4072,5406,12,-1,23135,2020-11-02 15:10:35,2020-11-02 15:11:05,1,DF:DC:EF:28:D6:3E,12,12,19472.0,9372.623388033095,-20931.262451799106
12974,16911,-25604,-31228,-12288,17920,-17405,11773,6376,22303,12,-1,23161,2020-11-02 15:10:35,2020-11-02 15:11:05,1,DF:DC:EF:28:D6:3E,12,12,-5987.4956442886105,-38591.8159435349,-19787.783076685228
12975,19983,6397,-3837,28672,26112,3588,12796,14568,-28384,12,-1,23187,2020-11-02 15:10:35,2020-11-02 15:11:05,1,DF:DC:EF:28:D6:3E,12,12,403.5431592273021,-1732.267166793015,-21255.607974873168
12976,17936,-10755,-2558,-29441,12544,-16637,8187,23528,-14303,12,-1,23212,2020-11-02 15:10:35,2020-11-02 15:11:05,1,DF:DC:EF:28:D6:3E,12,12,-1733.3336723719913,5003.889227256419,20392.894154130467
12977,-4849,10494,23299,-3,256,6915,1786,29160,-13534,12,-1,23238,2020-11-02 15:10:35,2020-11-02 15:11:05,1,DF:DC:EF:28:D6:3E,12,12,19412.1109051291,17199.17554744606,1959.2214512661503
12978,-24049,-27395,-8700,-21508,9984,-1790,-11528,-28952,-20957,12,-1,23263,2020-11-02 15:10:35,2020-11-02 15:11:05,1,DF:DC:EF:28:D6:3E,12,12,-19839.014479286903,-6352.711640379815,31154.245060742964
12979,-27632,30461,16902,17660,-23552,5379,-29961,-14872,-31964,12,1,23289,2020-11-02 15:10:35,2020-11-02 15:11:05,1,DF:DC:EF:28:D6:3E,12,12,1747.2743401646549,-20769.77750862357,-39276.46780990466
12980,11281,-28163,-8954,28412,1024,18434,26358,-2328,12581,12,1,23315,2020-11-02 15:10:35,2020-11-02 15:11:05,1,DF:DC:EF:28:D6:3E,12,12,-15271.641756267076,5417.099453853956,27166.553656569962
12981,5649,29181,-17658,16380,22782,16641,24565,-4376,-16603,12,1,23340,2020-11-02 15:10:35,2020-11-02 15:11:05,1,DF:DC:EF:28:D6:3E,12,12,-31846.233292937148,8362.180532438437,-10542.214558370992
12982,-4848,29693,2311,16380,-3,-13056,22004,-19480,18726,12,1,23367,2020-11-02 15:10:35,2020-11-02 15:11:05,1,DF:DC:EF:28:D6:3E,12,12,-291.3068027058168,30063.94983874439,-2567.5152268600914
12983,-10737,14077,-20729,-30468,10495,-7936,29171,-26648,-20954,12,1,23392,2020-11-02 15:10:35,2020-11-02 15:11:05,1,DF:DC:EF:28:D6:3E,12,12,5329.614856101672,16804.717261296395,20792.624227199107
12984,-7410,15357,30215,-6660,-32513,-3584,-18702,-26648,-1754,12,1,23417,2020-11-02 15:10:35,2020-11-02 15:11:05,1,DF:DC:EF:28:D6:3E,12,12,-19434.57591689659,-10939.373726764152,26576.665242211355
12985,8206,-25605,-30200,-17668,31231,-2560,-3343,-27672,19239,12,1,23443,2020-11-02 15:10:35,2020-11-02 15:11:05,1,DF:DC:EF:28:D6:3E,12,12,31550.208628173405,21366.459217355805,13529.716073584223
12986,9745,-23301,8202,16893,-20738,19200,8945,-30232,-20185,12,1,23468,2020-11-02 15:10:35,2020-11-02 15:11:05,1,DF:DC:EF:28:D6:3E,12,12,8919.336769762878,20959.781002906,-13649.448410019237
12987,15887,4091,-24311,4351,-9218,26879,-14096,23784,-12249,12,1,23494,2020-11-02 15:10:35,2020-11-02 15:11:05,1,DF:DC:EF:28:D6:3E,12,12,-15312.773772942539,23752.483004765847,7841.956483365154
12988,-10227,-12293,23303,-14337,8447,7935,-14352,13032,-15065,12,1,23519,2020-11-02 15:10:35,2020-11-02 15:11:05,1,DF:DC:EF:28:D6:3E,12,12,21587.789888019215,-16040.802468547268,8683.26959824369
12989,-17396,-30725,-28665,29439,-26882,-4610,-18960,-2841,-15065,12,1,23545,2020-11-02 15:10:35,2020-11-02 15:11:05,1,DF:DC:EF:28:D6:3E,12,12,31219.568016494442,4843.3828158317065,32714.04716269119
12990,-12021,1019,-10745,19456,29950,-4098,-21008,-20249,-13785,12,1,23571,2020-11-02 15:10:35,2020-11-02 15:11:05,1,DF:DC:EF:28:D6:3E,12,12,-6632.281086944948,-8423.899878204229,-12085.056285584402
12991,-8438,30970,-16122,-12544,11263,-11521,-19216,32487,-7385,12,1,23596,2020-11-02 15:10:35,2020-11-02 15:11:05,1,DF:DC:EF:28:D6:3E,12,12,-35012.22745986903,-6428.680446036446,-4803.709402237199
12992,-21237,-29191,31495,25344,3328,-768,-24336,-29209,4392,12,1,23622,2020-11-02 15:10:35,2020-11-02 15:11:05,1,DF:DC:EF:28:D6:3E,12,12,-46949.41805492568,-4754.983653093503,8258.447176233058
12993,-25844,-18184,5640,-19712,25087,17409,24816,-22553,28712,12,1,23647,2020-11-02 15:10:35,2020-11-02 15:11:05,1,DF:DC:EF:28:D6:3E,12,12,22344.963915183544,-18588.683686582986,-13621.42497792756
12994,3341,-18184,16648,-28159,2815,-11775,1776,-17433,2345,12,1,23673,2020-11-02 15:10:35,2020-11-02 15:11:05,1,DF:DC:EF:28:D6:3E,12,12,-5656.930825322757,-18184.0,-16009.9131364762
12995,19212,27129,-2810,-15614,-21505,-3839,-8721,-8217,-24791,12,1,23699,2020-11-02 15:10:35,2020-11-02 15:11:05,1,DF:DC:EF:28:D6:3E,12,12,-29479.75288432158,15324.899433875491,3011.861919301081
12996,23565,30714,-7420,5891,-9985,5890,-9489,5864,10538,12,-1,23724,2020-11-02 15:10:35,2020-11-02 15:11:05,1,DF:DC:EF:28:D6:3E,12,12,-15404.000854313537,-4832.275238037984,-35959.439577170175
12997,2575,-17414,-29948,20482,-23810,20737,-17169,9704,-15574,12,-1,23750,2020-11-02 15:10:35,2020-11-02 15:11:05,1,DF:DC:EF:28:D6:3E,12,12,-28660.167012863934,-14600.033585884528,13122.292905044833
12998,-25073,-22278,4613,-2815,-16898,24064,-25361,3048,16683,12,-1,23775,2020-11-02 15:10:35,2020-11-02 15:11:05,1,DF:DC:EF:28:D6:3E,12,12,367.4518055524504,-27405.86892512251,-19875.30401351387
12999,-12786,-4358,15876,-11775,-23552,10496,-11537,2536,22827,12,-1,23801,2020-11-02 15:10:35,2020-11-02 15:11:05,1,DF:DC:EF:28:D6:3E,12,12,10364.90406716452,-17891.316619345584,-2644.028990916112
13000,4365,10491,26627,1537,11266,31744,17136,17128,5419,12,-1,23827,2020-11-02 15:10:35,2020-11-02 15:11:05,1,DF:DC:EF:28:D6:3E,12,12,-3217.9833495703024,-28577.659046303495,-3327.6751035995358
13001,-25845,28667,4,15360,24833,-3328,31984,-29720,-5846,12,-1,23852,2020-11-02 15:10:35,2020-11-02 15:11:05,1,DF:DC:EF:28:D6:3E,12,12,-11357.196850498238,32745.24464187026,16985.99314267788
13002,-17654,9467,21765,3584,26879,-26623,16880,-19480,12075,12,-1,23878,2020-11-02 15:10:35,2020-11-02 15:11:05,1,DF:DC:EF:28:D6:3E,12,12,14278.591606755817,25825.100771894162,-2046.71000608145
13003,16139,10490,-3579,24320,20733,-27902,-28433,-18456,2348,12,-1,23903,2020-11-02 15:10:35,2020-11-02 15:11:05,1,DF:DC:EF:28:D6:3E,12,12,-17427.95544129329,-4148.125452152213,-7897.853276017648
13004,-23026,11512,24327,10240,-14853,-31741,21230,-22808,-31699,12,-1,23929,2020-11-02 15:10:35,2020-11-02 15:11:05,1,DF:DC:EF:28:D6:3E,12,12,21585.956792294826,20691.788344785768,18984.78636845221
13005,-29679,-13066,15624,3585,764,28419,-1812,-24600,12079,12,-1,23955,2020-11-02 15:10:35,2020-11-02 15:11:05,1,DF:DC:EF:28:D6:3E,12,12,-1112.7934353346482,33829.069383646565,12248.613325870929
13006,-4078,-12554,27655,-11262,20221,-18174,7660,-21784,-30416,12,-1,23980,2020-11-02 15:10:35,2020-11-02 15:11:05,1,DF:DC:EF:28:D6:3E,12,12,29789.287637388585,-5246.255118165838,-4909.905731482677
13007,-3055,-26632,12036,772,-6914,-22015,-789,-16408,22577,12,-1,24006,2020-11-02 15:10:35,2020-11-02 15:11:05,1,DF:DC:EF:28:D6:3E,12,12,13334.48096563841,25000.429825120176,-7786.646963633864
13008,-13297,-20742,-12799,24067,27392,-18688,21740,-10264,-26063,12,-1,24031,2020-11-02 15:10:35,2020-11-02 15:11:05,1,DF:DC:EF:28:D6:3E,12,12,-6852.092138120783,-26245.094990400816,-5924.440587561097
13009,9998,-15621,-14592,-23039,17153,-32512,-14612,-1560,-32463,12,-1,24057,2020-11-02 15:10:35,2020-11-02 15:11:05,1,DF:DC:EF:28:D6:3E,12,12,9325.898980902242,7667.545089783964,20276.549743339878
13010,8462,-18437,-23551,30975,-24063,-6912,-2580,12009,22321,12,-1,24083,2020-11-02 15:10:35,2020-11-02 15:11:05,1,DF:DC:EF:28:D6:3E,12,12,27288.57772932395,14733.481052616822,2106.199321722833
13011,31758,-4358,-15869,22014,-15103,8705,-6932,29673,11313,12,-1,24108,2020-11-02 15:10:35,2020-11-02 15:11:05,1,DF:DC:EF:28:D6:3E,12,12,20627.435984083164,3052.8249588869685,29061.607551767465
13012,-18930,28666,14597,14334,28673,15873,-18452,-16919,3633,12,-1,24134,2020-11-02 15:10:35,2020-11-02 15:11:05,1,DF:DC:EF:28:D6:3E,12,12,24696.26726285038,-26319.196149898486,-9515.837446332998
13013,-7922,1530,2054,31742,-13056,-512,32492,-1815,1585,12,-1,24160,2020-11-02 15:10:35,2020-11-02 15:11:05,1,DF:DC:EF:28:D6:3E,12,12,-7922.0,2403.6336039168227,-884.5120112931351
13014,-6130,-18183,-9979,-15618,8448,28160,17900,5354,3633,12,-1,24185,2020-11-02 15:10:35,2020-11-02 15:11:05,1,DF:DC:EF:28:D6:3E,12,12,-6130.0,19409.270126115312,7313.150017023279
13015,-22258,7161,20742,-29186,31744,6144,5612,7914,2097,12,-1,24211,2020-11-02 15:10:35,2020-11-02 15:11:05,1,DF:DC:EF:28:D6:3E,12,12,5427.742442872333,7161.0,29936.411608171114
13016,-15859,9977,2310,-7170,15617,-11265,4844,13546,-12496,12,-1,24236,2020-11-02 15:10:35,2020-11-02 15:11:05,1,DF:DC:EF:28:D6:3E,12,12,5451.52063699718,-12062.920756872529,13459.248699604586
13017,-30452,4601,18181,3071,5889,23807,13548,17642,30768,12,-1,24262,2020-11-02 15:10:35,2020-11-02 15:11:05,1,DF:DC:EF:28:D6:3E,12,12,-9272.678616330533,-33683.83938845684,7645.826399473744
13018,-5109,-18696,-22011,-27138,10240,22271,12780,15850,16688,12,-1,24288,2020-11-02 15:10:35,2020-11-02 15:11:05,1,DF:DC:EF:28:D6:3E,12,12,-23191.708514982623,-16116.104827870657,7908.365149205401
13019,-31733,760,8966,-18434,14336,15359,7916,11242,5680,12,-1,24313,2020-11-02 15:10:35,2020-11-02 15:11:05,1,DF:DC:EF:28:D6:3E,12,12,-12530.896909766234,-7133.9990973278145,29665.345514861896
13020,525,15607,-19707,-17154,18431,25599,-2837,5098,3888,12,-1,24339,2020-11-02 15:10:35,2020-11-02 15:11:05,1,DF:DC:EF:28:D6:3E,12,12,525.0,15607.0,-19707.0
13021,-7923,-24330,16390,-13314,-29185,14079,-17173,-3607,5168,12,-1,24364,2020-11-02 15:10:35,2020-11-02 15:11:05,1,DF:DC:EF:28:D6:3E,12,12,-7923.0,25028.2373588649,15302.559743661172
13022,525,18935,-23547,25599,-20992,2559,-15125,-8983,-7377,12,-1,24391,2020-11-02 15:10:35,2020-11-02 15:11:05,1,DF:DC:EF:28:D6:3E,12,12,-21121.4088728103,-21317.5365154956,-3566.480497364607
13023,-26101,9720,-24316,-27905,-31231,-25089,-277,-6167,-31185,12,1,24416,2020-11-02 15:10:35,2020-11-02 15:11:05,1,DF:DC:EF:28:D6:3E,12,12,-7516.999090724491,8854.7830059963,-35101.22504396059
13024,25098,11257,2308,28927,26625,32256,11244,5610,14383,12,1,24441,2020-11-02 15:10:35,2020-11-02 15:11:05,1,DF:DC:EF:28:D6:3E,12,12,-14209.006504967641,21098.670607101405,10719.456597926157
13025,23818,-26119,12292,18175,6656,11521,2796,17130,16431,12,1,24467,2020-11-02 15:10:35,2020-11-02 15:11:05,1,DF:DC:EF:28:D6:3E,12,12,23223.389474232703,12019.872000980453,-26772.923026971563
13026,-19957,-26375,-31740,24063,-28162,-21247,-28437,23786,-20177,12,1,24493,2020-11-02 15:10:35,2020-11-02 15:11:05,1,DF:DC:EF:28:D6:3E,12,12,-6502.620302212315,-42604.77900150469,-15617.25998497178
13027,3597,-6664,-1021,10495,3070,1026,-7958,27626,26160,12,1,24518,2020-11-02 15:10:35,2020-11-02 15:11:05,1,DF:DC:EF:28:D6:3E,12,12,662.7487570344928,7590.200831953488,-582.5473505748869
13028,-31729,22007,-508,4606,-20995,14338,-1047,-32534,14129,12,1,24544,2020-11-02 15:10:35,2020-11-02 15:11:05,1,DF:DC:EF:28:D6:3E,12,12,-16062.735745742586,-17785.05822614114,30281.607920571398
13029,27152,-20490,25351,-2307,-18691,-17919,-792,-28694,1842,12,1,24569,2020-11-02 15:10:35,2020-11-02 15:11:05,1,DF:DC:EF:28:D6:3E,12,12,32011.68494668274,-20490.0,-18845.591841975285
13030,-22769,8183,23047,-7169,-26370,-7424,25320,-27158,-26830,12,1,24595,2020-11-02 15:10:35,2020-11-02 15:11:05,1,DF:DC:EF:28:D6:3E,12,12,-8364.653777551639,-8816.532931175636,31126.425642132228
13031,30222,16376,-14076,3073,-15105,-20224,19432,-24086,-10190,12,1,24620,2020-11-02 15:10:35,2020-11-02 15:11:05,1,DF:DC:EF:28:D6:3E,12,12,-16000.809785341835,-1409.386402412696,-33491.25486126196
13032,-29684,23289,-18173,-23296,-769,-26624,24552,-19478,-5070,12,1,24646,2020-11-02 15:10:35,2020-11-02 15:11:05,1,DF:DC:EF:28:D6:3E,12,12,30197.884494908005,-28976.078033523638,1499.9932757661009
13033,21260,21241,-4605,-8193,18943,5121,15336,-14102,8243,12,1,24672,2020-11-02 15:10:35,2020-11-02 15:11:05,1,DF:DC:EF:28:D6:3E,12,12,-11296.2012977319,-26202.89749163389,10496.556829934605
13034,1293,31736,-32764,8447,-27906,29185,-14617,-9238,-27853,12,1,24697,2020-11-02 15:10:35,2020-11-02 15:11:05,1,DF:DC:EF:28:D6:3E,12,12,23712.258453568702,38329.08289845771,-7136.907186892434
13035,30222,-27913,-15867,2047,1280,12546,20967,3563,-2509,12,1,24723,2020-11-02 15:10:35,2020-11-02 15:11:05,1,DF:DC:EF:28:D6:3E,12,12,30222.0,29872.811725494146,11769.128158584193
13036,-10993,18935,4358,28927,-4351,-25342,13031,31723,-2253,12,1,24748,2020-11-02 15:10:35,2020-11-02 15:11:05,1,DF:DC:EF:28:D6:3E,12,12,-17889.547663186506,-11842.458536126462,-6171.9282421868475
13037,-20977,5624,19460,21760,7171,-21504,-29465,-7957,-30925,12,1,24774,2020-11-02 15:10:35,2020-11-02 15:11:05,1,DF:DC:EF:28:D6:3E,12,12,10544.498103797034,-24514.98794833402,-11755.187392468852
13038,11532,21752,32258,-7169,-24830,24063,5352,2028,-7630,12,1,24800,2020-11-02 15:10:35,2020-11-02 15:11:05,1,DF:DC:EF:28:D6:3E,12,12,24534.443052812752,2048.812360439113,32258.0
13039,4107,-4873,-15356,27134,26881,-6657,17128,7660,28978,12,1,24825,2020-11-02 15:10:35,2020-11-02 15:11:05,1,DF:DC:EF:28:D6:3E,12,12,16431.345937647886,827.1752382084985,-2397.283004285694
13040,-9716,-23817,-20473,-3330,21503,16895,7400,6636,23346,12,1,24851,2020-11-02 15:10:35,2020-11-02 15:11:05,1,DF:DC:EF:28:D6:3E,12,12,23837.59331094297,20930.81644194819,-8629.249226645286
13041,3082,-14858,15109,8704,-13059,-23553,-3097,-6933,-29646,12,1,24877,2020-11-02 15:10:35,2020-11-02 15:11:05,1,DF:DC:EF:28:D6:3E,12,12,11113.634395262341,-14809.3979879329,10756.84111453966
13042,25099,23287,12802,-2,-18180,-20480,22759,-16661,15411,12,1,24902,2020-11-02 15:10:35,2020-11-02 15:11:05,1,DF:DC:EF:28:D6:3E,12,12,23399.966998293083,8610.04702545017,26729.085444480348
13043,22029,-29961,-17150,-18947,-31235,-10240,28134,-22037,1332,12,1,24928,2020-11-02 15:10:35,2020-11-02 15:11:05,1,DF:DC:EF:28:D6:3E,12,12,-26590.332346457515,6604.653730163709,-30436.715276283827
13044,17167,1015,-23547,27901,-20225,-22784,-17435,-21013,26676,12,1,24953,2020-11-02 15:10:35,2020-11-02 15:11:05,1,DF:DC:EF:28:D6:3E,12,12,9970.596501089572,18165.200648452053,-20513.654326178388
13045,14094,13301,-1018,-20993,28676,-23552,2534,-5653,-13773,12,1,24979,2020-11-02 15:10:35,2020-11-02 15:11:05,1,DF:DC:EF:28:D6:3E,12,12,6229.391559912968,-18350.8070065947,-1018.0
13046,-5362,11509,11013,3840,-22269,7169,-20250,20972,-1230,12,1,25030,2020-11-02 15:10:35,2020-11-02 15:11:05,1,DF:DC:EF:28:D6:3E,12,12,3540.5382404687343,-9839.66899461121,13158.259651042965
13047,14095,-2827,6918,-26881,14594,-19202,10727,31468,19506,12,1,25032,2020-11-02 15:10:35,2020-11-02 15:11:05,1,DF:DC:EF:28:D6:3E,12,12,-1631.0425737954138,7655.516237522606,13901.526867919745
13048,-4084,19703,-4093,-26880,-22530,1534,25063,15340,4402,12,1,25056,2020-11-02 15:10:35,2020-11-02 15:11:05,1,DF:DC:EF:28:D6:3E,12,12,-9426.543457658867,-15976.332875171096,8805.508520386322
13049,29198,-18953,17409,19199,-772,-32002,3303,-12309,32050,12,1,25081,2020-11-02 15:10:35,2020-11-02 15:11:05,1,DF:DC:EF:28:D6:3E,12,12,-26111.533962793044,21455.04081086695,19304.96599100705
13050,-32753,30199,-30459,3583,-12032,13054,-10266,32747,-31182,12,-1,25107,2020-11-02 15:10:35,2020-11-02 15:11:05,1,DF:DC:EF:28:D6:3E,12,12,17684.475005334334,26948.59367121341,-43284.199587488525
13051,27660,23543,-22269,21504,-27648,23294,13543,21995,3122,12,-1,25132,2020-11-02 15:10:35,2020-11-02 15:11:05,1,DF:DC:EF:28:D6:3E,12,12,-23054.36962272869,10451.79942515173,-34271.16484852831
13052,-23028,-20745,30724,4096,15613,32766,4071,1515,17458,12,-1,25158,2020-11-02 15:10:35,2020-11-02 15:11:05,1,DF:DC:EF:28:D6:3E,12,12,25725.081778917003,17287.682796373618,30724.0
13053,12815,17144,-27642,5377,11520,12797,5095,-24854,23346,12,-1,25184,2020-11-02 15:10:35,2020-11-02 15:11:05,1,DF:DC:EF:28:D6:3E,12,12,32123.750839512188,10965.202696422402,8369.592990540861
13054,-10739,3320,-2812,4609,7681,-772,-15385,18154,-16079,12,-1,25209,2020-11-02 15:10:35,2020-11-02 15:11:05,1,DF:DC:EF:28:D6:3E,12,12,-7897.026660026313,-7790.985957905073,3345.6498224649313
13055,-20724,-2569,18692,13312,16641,1277,29160,-1559,2865,12,-1,25260,2020-11-02 15:10:35,2020-11-02 15:11:05,1,DF:DC:EF:28:D6:3E,12,12,-20724.0,17195.484387548357,7765.6900322882275
13056,18956,-14345,-17916,-5889,5633,10237,-792,-20503,24880,12,-1,25263,2020-11-02 15:10:35,2020-11-02 15:11:05,1,DF:DC:EF:28:D6:3E,12,12,-242.47210409438685,21665.470379513907,20411.776441876424
13057,7692,-2825,-3069,10240,-6655,15869,-22039,29417,-26577,12,-1,25286,2020-11-02 15:10:35,2020-11-02 15:11:05,1,DF:DC:EF:28:D6:3E,12,12,-1060.7437465344283,-2387.9342413511836,8350.97855123402
13058,4361,4344,-20992,-25857,-8447,-1283,26858,21993,-19922,12,-1,25312,2020-11-02 15:10:35,2020-11-02 15:11:05,1,DF:DC:EF:28:D6:3E,12,12,173.8322743133176,18940.302221356535,-10944.74554770844
13059,-25844,-31241,32516,-20226,-32767,-14338,-23062,18921,12846,12,-1,25337,2020-11-02 15:10:35,2020-11-02 15:11:05,1,DF:DC:EF:28:D6:3E,12,12,-4202.73705390374,19246.205577883324,48094.93991169546
13060,23562,-16138,-8190,13055,1281,-26369,-2838,21993,-22227,12,-1,25363,2020-11-02 15:10:35,2020-11-02 15:11:05,1,DF:DC:EF:28:D6:3E,12,12,21959.577922082422,19431.395570586286,4782.968917251057
13061,-245,8951,5891,-16898,-32001,-1,-16662,22249,-19667,12,-1,25389,2020-11-02 15:10:35,2020-11-02 15:11:05,1,DF:DC:EF:28:D6:3E,12,12,1469.745210473024,-1438.728431215136,10519.230794953823
13062,781,-28938,30213,-4098,27136,-10753,-32534,20713,-16595,12,-1,25415,2020-11-02 15:10:35,2020-11-02 15:11:05,1,DF:DC:EF:28:D6:3E,12,12,-32360.13947822864,18636.700301289457,18876.915765810518
13063,29708,17655,26627,2560,-29951,-24320,-22550,31465,-32723,12,-1,25440,2020-11-02 15:10:35,2020-11-02 15:11:05,1,DF:DC:EF:28:D6:3E,12,12,23395.607876145663,30719.291067420305,20303.499856446964
13064,-6898,-3593,15361,1791,3586,-29952,-16406,-18455,19501,12,-1,25465,2020-11-02 15:10:35,2020-11-02 15:11:05,1,DF:DC:EF:28:D6:3E,12,12,-9379.38884556901,-14282.243528363211,2120.603376433878
13065,12046,248,19713,-25859,-16126,-19969,-5398,-4119,-17108,12,-1,25491,2020-11-02 15:10:35,2020-11-02 15:11:05,1,DF:DC:EF:28:D6:3E,12,12,-4787.399031194109,-11056.601219005854,19713.0
13066,21518,248,-10239,-28676,7683,29951,-278,8170,4652,12,-1,25517,2020-11-02 15:10:35,2020-11-02 15:11:05,1,DF:DC:EF:28:D6:3E,12,12,3010.403604222578,248.0,-23638.927960880203
13067,5646,-8201,23298,-18693,-3581,29695,6635,25066,12331,12,-1,25542,2020-11-02 15:10:35,2020-11-02 15:11:05,1,DF:DC:EF:28:D6:3E,12,12,25182.38474673281,2733.007830546636,555.5966753767789
13068,-28147,-4617,11779,29691,-30973,7935,8683,-24342,19754,12,-1,25568,2020-11-02 15:10:35,2020-11-02 15:11:05,1,DF:DC:EF:28:D6:3E,12,12,-18320.666070088708,15143.220853894018,19681.23969465566
13069,-18420,16376,29187,-13061,23810,-18690,6123,-16406,-31191,12,-1,25593,2020-11-02 15:10:35,2020-11-02 15:11:05,1,DF:DC:EF:28:D6:3E,12,12,9619.171644677963,-22872.156434469365,-29046.286198193826
13070,-15092,13048,-2302,32251,18433,2303,-10262,-16150,1321,12,-1,25619,2020-11-02 15:10:35,2020-11-02 15:11:05,1,DF:DC:EF:28:D6:3E,12,12,17395.09358126532,5112.79827993971,-8636.43358381616
13071,2317,-265,-20733,16890,-18431,30719,23786,-13846,-25048,12,-1,25645,2020-11-02 15:10:35,2020-11-02 15:11:05,1,DF:DC:EF:28:D6:3E,12,12,20547.90180324657,-50.68936847434418,-3616.2363130830095
13072,2317,-25353,-4092,6393,-1279,-7937,-16663,-5398,10280,12,-1,25670,2020-11-02 15:10:35,2020-11-02 15:11:05,1,DF:DC:EF:28:D6:3E,12,12,-4495.135548199189,5639.804803210526,24756.290517462417
13073,7437,20471,-23546,-16136,-4352,11776,-6936,3051,-9689,12,-1,25696,2020-11-02 15:10:35,2020-11-02 15:11:05,1,DF:DC:EF:28:D6:3E,12,12,-3346.954645653883,-10987.149265513353,-29947.710623973668
13074,3598,-3594,-13049,27641,-20225,5376,-8473,6123,-11737,12,-1,25721,2020-11-02 15:10:35,2020-11-02 15:11:05,1,DF:DC:EF:28:D6:3E,12,12,-11149.255237628044,6690.456408491758,-5202.955092281232
13075,-16882,-14858,31496,-5126,-770,30463,-5658,1003,-4313,12,-1,25747,2020-11-02 15:10:35,2020-11-02 15:11:05,1,DF:DC:EF:28:D6:3E,12,12,-16882.0,-14858.0,31496.0
13076,2063,-24074,22792,-25860,30718,-19458,10726,-13590,7720,12,-1,25773,2020-11-02 15:10:35,2020-11-02 15:11:05,1,DF:DC:EF:28:D6:3E,12,12,30522.128318578347,-12035.038444072474,5181.335885072053
13077,-14322,23030,-3321,-26115,-13826,-25090,-24603,-32022,18728,12,-1,25798,2020-11-02 15:10:35,2020-11-02 15:11:05,1,DF:DC:EF:28:D6:3E,12,12,-12815.133764244543,14493.587911970608,19293.46731519503
13078,-9203,-11019,2824,31742,-31233,-17410,22757,19690,18472,12,-1,25824,2020-11-02 15:10:35,2020-11-02 15:11:05,1,DF:DC:EF:28:D6:3E,12,12,-9895.091588744748,-9205.93746297931,5605.927566252257
13079,-17651,-2827,-4856,13056,-19201,-19714,24037,8682,11048,12,-1,25849,2020-11-02 15:10:35,2020-11-02 15:11:05,1,DF:DC:EF:28:D6:3E,12,12,-1199.4655018318572,-5249.834744913459,17723.740679129074
13080,17164,-14346,-27129,7682,-31234,28670,-27675,-6935,13352,12,-1,25875,2020-11-02 15:10:35,2020-11-02 15:11:05,1,DF:DC:EF:28:D6:3E,12,12,-28647.262838748684,-9274.572233370287,18157.915484318284
13081,-22774,18423,-20730,26883,766,16638,-9243,-27927,27176,12,-1,25901,2020-11-02 15:10:35,2020-11-02 15:11:05,1,DF:DC:EF:28:D6:3E,12,12,-2189.0572835526873,8923.853814694223,34689.591613383
13082,26889,-31241,29957,5124,-16132,4095,-2331,15593,-472,12,1,25926,2020-11-02 15:10:35,2020-11-02 15:11:05,1,DF:DC:EF:28:D6:3E,12,12,16050.050727500835,-31241.0,-36916.6092923585
13083,-31477,3063,13061,3332,-9476,-10241,-8731,233,-10199,12,1,25952,2020-11-02 15:10:35,2020-11-02 15:11:05,1,DF:DC:EF:28:D6:3E,12,12,-6366.359756556791,33319.320154511326,4479.462790477186
13084,-7924,-7435,-27388,-12285,10238,-7425,-5915,-9496,32298,12,1,25977,2020-11-02 15:10:35,2020-11-02 15:11:05,1,DF:DC:EF:28:D6:3E,12,12,-25127.37505621863,-10463.520441500594,-11282.788119716733
13085,-16115,17909,17924,6916,-20736,-1537,27366,-10264,-25558,12,1,26003,2020-11-02 15:10:35,2020-11-02 15:11:05,1,DF:DC:EF:28:D6:3E,12,12,-9614.282184255095,8287.831862611103,-27213.465473890003
13086,1805,4085,26370,24836,23042,-7425,30695,-2072,9258,12,1,26029,2020-11-02 15:10:35,2020-11-02 15:11:05,1,DF:DC:EF:28:D6:3E,12,12,-21277.953650074945,15807.470086835572,3562.9661686663558
13087,-13557,20981,-29951,5636,-6654,-17921,-19736,9705,29481,12,1,26054,2020-11-02 15:10:35,2020-11-02 15:11:05,1,DF:DC:EF:28:D6:3E,12,12,-19677.87829102752,-21603.594273359322,25828.721056908413
13088,-5622,-17419,-18944,-8189,9219,28160,-5399,28393,-19160,12,1,26080,2020-11-02 15:10:35,2020-11-02 15:11:05,1,DF:DC:EF:28:D6:3E,12,12,-20289.568670313958,14702.874977029913,8127.881125019092
13089,-1014,-16394,28158,-18942,13313,-30463,-25366,-16151,29992,12,1,26105,2020-11-02 15:10:35,2020-11-02 15:11:05,1,DF:DC:EF:28:D6:3E,12,12,-2091.8259744730713,-30276.536236666867,11900.420732155562
13090,31757,22519,6912,4353,-4352,-6143,-21526,2538,-22744,12,1,26131,2020-11-02 15:10:35,2020-11-02 15:11:05,1,DF:DC:EF:28:D6:3E,12,12,-34447.61902717482,16623.329284807103,-10020.709598002428
13091,4110,29943,27393,-7936,29698,13826,-12054,29674,-25048,12,1,26182,2020-11-02 15:10:35,2020-11-02 15:11:05,1,DF:DC:EF:28:D6:3E,12,12,-34393.453116218334,20777.91478537098,-7015.727896259478
13092,12045,-22792,-15617,29696,6658,31234,-278,-2838,-31192,12,1,26184,2020-11-02 15:10:35,2020-11-02 15:11:05,1,DF:DC:EF:28:D6:3E,12,12,25272.513092026813,5085.014357239651,-15617.0
13093,8205,19961,-28928,-9986,-12288,-10495,-11286,20459,-25304,12,1,26208,2020-11-02 15:10:35,2020-11-02 15:11:05,1,DF:DC:EF:28:D6:3E,12,12,18560.60851540907,-749.0572877608411,30944.06978271244
13094,-19443,12025,26369,-18435,22015,24321,20970,31211,-7896,12,1,26233,2020-11-02 15:10:35,2020-11-02 15:11:05,1,DF:DC:EF:28:D6:3E,12,12,-3482.5220918410723,-23496.868016351822,-25568.032155447196
13095,-32242,-12808,-22782,-26628,24062,4609,31721,32235,23081,12,1,26259,2020-11-02 15:10:35,2020-11-02 15:11:05,1,DF:DC:EF:28:D6:3E,12,12,-9657.085953352922,27799.32484597671,-29266.861481843513
13096,-16114,-4873,6916,-28165,-15618,-1280,-32024,31979,-13015,12,1,26285,2020-11-02 15:10:35,2020-11-02 15:11:05,1,DF:DC:EF:28:D6:3E,12,12,-6466.96351813472,5127.5478737788835,-16221.122546150134
13097,11023,-5642,18949,-4358,23295,12289,-32025,-28437,8234,12,1,26310,2020-11-02 15:10:35,2020-11-02 15:11:05,1,DF:DC:EF:28:D6:3E,12,12,12729.481888227267,-16767.62873672695,-8319.267480047904
13098,-20977,24310,14856,-30725,12544,3073,-20250,-18965,15402,12,1,26336,2020-11-02 15:10:35,2020-11-02 15:11:05,1,DF:DC:EF:28:D6:3E,12,12,10270.14869982804,30353.754630350853,14996.165860775027
13099,-20465,-15370,28424,15613,-16385,-9216,11494,-9493,16170,12,1,26362,2020-11-02 15:10:35,2020-11-02 15:11:05,1,DF:DC:EF:28:D6:3E,12,12,13250.921761050737,17783.780800490025,-31162.912474969897
13100,29968,-7946,6922,-31234,-29186,-19713,-20251,-12309,31786,12,1,26413,2020-11-02 15:10:35,2020-11-02 15:11:05,1,DF:DC:EF:28:D6:3E,12,12,6420.807301705602,9469.873768514537,29634.924471015012
13101,-19442,-25098,-4599,-24832,-10499,-3586,29413,-26901,-14294,12,1,26415,2020-11-02 15:10:35,2020-11-02 15:11:05,1,DF:DC:EF:28:D6:3E,12,12,-22940.99748566904,-22421.758122735242,-164.82126101632787
13102,23822,-3594,16137,-30718,-22019,32510,28389,18155,11307,12,1,26438,2020-11-02 15:10:35,2020-11-02 15:11:05,1,DF:DC:EF:28:D6:3E,12,12,-25592.393973027698,-12906.737291640053,4387.800384466427
13103,-27635,1783,14343,-25597,1022,-9731,-17947,-6678,29739,12,1,26464,2020-11-02 15:10:35,2020-11-02 15:11:05,1,DF:DC:EF:28:D6:3E,12,12,-537.7615028661903,2730.7136902187467,-31062.00216193552
13104,29196,-8970,3590,-5885,-9218,23293,15078,30186,-28885,12,1,26490,2020-11-02 15:10:35,2020-11-02 15:11:05,1,DF:DC:EF:28:D6:3E,12,12,4525.017925796229,16948.360198256927,25259.309479108157
13105,-19703,-15370,-31997,-16125,-14594,-14851,-8474,4330,-31957,12,1,26515,2020-11-02 15:10:35,2020-11-02 15:11:05,1,DF:DC:EF:28:D6:3E,12,12,28192.941039280602,-28886.818283507397,-4354.643844365501
13106,24074,9974,18691,-25598,-15106,32510,13031,-16407,-21205,12,1,26541,2020-11-02 15:10:35,2020-11-02 15:11:05,1,DF:DC:EF:28:D6:3E,12,12,8096.164758412782,22514.168203314046,21353.12575051994
13107,-13814,27893,6916,-767,16895,13055,27367,-28951,-12501,12,1,26566,2020-11-02 15:10:35,2020-11-02 15:11:05,1,DF:DC:EF:28:D6:3E,12,12,39.367699288764925,31320.2727071215,5976.292223092239
13108,-13816,7413,-8444,-2558,-1793,-14337,-13593,32745,-12757,12,1,26592,2020-11-02 15:10:35,2020-11-02 15:11:05,1,DF:DC:EF:28:D6:3E,12,12,-9443.476912467633,5229.103103848683,-14163.784294213567
13109,-27891,-15883,18181,4612,15104,8448,16616,-27415,-5845,12,1,26643,2020-11-02 15:10:35,2020-11-02 15:11:05,1,DF:DC:EF:28:D6:3E,12,12,-7498.434078990344,-6686.18579643079,35493.5872638797
13110,23562,-13835,30211,-8956,20480,-14337,4841,-27159,-15317,12,-1,26645,2020-11-02 15:10:35,2020-11-02 15:11:05,1,DF:DC:EF:28:D6:3E,12,12,-15685.671107338687,-1028.3398511153464,-37579.007824355984
13111,-3063,14582,-22528,16132,26111,-32767,-27415,-20759,-469,12,-1,26669,2020-11-02 15:10:35,2020-11-02 15:11:05,1,DF:DC:EF:28:D6:3E,12,12,-603.042332152969,7517.815334863819,-25935.424992402142
13112,27659,-4874,15104,-8446,-4864,-6143,-9751,-3863,17708,12,-1,26694,2020-11-02 15:10:35,2020-11-02 15:11:05,1,DF:DC:EF:28:D6:3E,12,12,-28804.148030520933,-6072.068964315145,12262.055607786071
13113,-5621,25079,19711,-10751,-4864,24834,4842,20202,25644,12,-1,26720,2020-11-02 15:10:35,2020-11-02 15:11:05,1,DF:DC:EF:28:D6:3E,12,12,13524.30199625207,-22709.27769833726,-18720.50653518687
13114,-25588,17656,-16130,25600,11521,27394,3562,-20758,-27348,12,-1,26746,2020-11-02 15:10:35,2020-11-02 15:11:05,1,DF:DC:EF:28:D6:3E,12,12,-31408.02457431065,9353.218138124685,12357.600203929302
13115,2061,-30472,13567,-20226,-16383,-28670,-8215,7403,-22484,12,-1,26771,2020-11-02 15:10:35,2020-11-02 15:11:05,1,DF:DC:EF:28:D6:3E,12,12,-29281.75020103312,924.86982708713,16080.351829709474
13116,-9971,23032,1024,32253,-29183,-31486,-30999,-28437,-21204,12,-1,26797,2020-11-02 15:10:35,2020-11-02 15:11:05,1,DF:DC:EF:28:D6:3E,12,12,-22433.901201350753,-8805.360996792564,-7080.12256985692
13117,-30961,-32521,-21248,-32004,2305,4354,-1816,-4117,-15572,12,-1,26822,2020-11-02 15:10:35,2020-11-02 15:11:05,1,DF:DC:EF:28:D6:3E,12,12,-16686.93941146192,41686.26890329955,-21248.0
13118,-14320,2807,-11519,-27141,-19711,27649,24296,15340,-18900,12,-1,26848,2020-11-02 15:10:35,2020-11-02 15:11:05,1,DF:DC:EF:28:D6:3E,12,12,-12254.2853190397,8912.250117574698,10771.875378101897
13119,-20463,25078,-19198,-29446,23299,-22272,-5657,-30228,19500,12,-1,26874,2020-11-02 15:10:35,2020-11-02 15:11:05,1,DF:DC:EF:28:D6:3E,12,12,20432.678201357125,-28244.11276699328,14176.720795908786
13120,-8176,8950,2308,9210,17924,-27137,-22809,-12564,30763,12,-1,26899,2020-11-02 15:10:35,2020-11-02 15:11:05,1,DF:DC:EF:28:D6:3E,12,12,-6303.89237865562,-8777.244789075909,-5957.957266628169
13121,14351,32758,-24316,-29190,-6653,20990,-31513,-4884,-32470,12,-1,26925,2020-11-02 15:10:35,2020-11-02 15:11:05,1,DF:DC:EF:28:D6:3E,12,12,-27199.117402185733,23011.578357140443,24514.91168769128
13122,-10227,-522,-6652,-17158,-255,28669,20455,-13076,-19671,12,-1,26951,2020-11-02 15:10:35,2020-11-02 15:11:05,1,DF:DC:EF:28:D6:3E,12,12,1853.9344625511703,-1205.9476558071576,-12009.235373662152
13123,-16372,2295,6917,22266,27136,31485,-9498,-32020,13609,12,-1,26976,2020-11-02 15:10:35,2020-11-02 15:11:05,1,DF:DC:EF:28:D6:3E,12,12,-5208.141247211558,-5586.2473412941235,16211.829119225811
13124,-31475,-3338,27398,-20487,1024,-26883,9958,11756,-4568,12,-1,27002,2020-11-02 15:10:35,2020-11-02 15:11:05,1,DF:DC:EF:28:D6:3E,12,12,24004.673666296738,-24858.1511387546,23628.716366688936
13125,7950,-523,29192,12026,-20224,19709,-32539,-10005,-27864,12,-1,27027,2020-11-02 15:10:35,2020-11-02 15:11:05,1,DF:DC:EF:28:D6:3E,12,12,22768.426709055635,16691.160523986957,10892.786537744198
13126,7438,-13068,14601,-14085,22017,-20740,14821,31723,40,12,-1,27053,2020-11-02 15:10:35,2020-11-02 15:11:05,1,DF:DC:EF:28:D6:3E,12,12,19331.064920929522,-7838.444869083723,2038.229637980772
13127,14093,25844,-12792,-20483,22017,8700,22245,4075,18983,12,-1,27078,2020-11-02 15:10:35,2020-11-02 15:11:05,1,DF:DC:EF:28:D6:3E,12,12,-10596.108033447816,25530.98319120341,16311.089504812106
13128,-18421,-23564,-6649,12543,-8960,6396,-20507,-27414,-24794,12,-1,27104,2020-11-02 15:10:35,2020-11-02 15:11:05,1,DF:DC:EF:28:D6:3E,12,12,-29716.273903125457,152.18382259272494,7464.880668742533
13129,-502,-17164,-12537,-28928,26881,-13828,16358,12010,-3291,12,-1,27130,2020-11-02 15:10:35,2020-11-02 15:11:05,1,DF:DC:EF:28:D6:3E,12,12,-9238.647400467104,18542.606142608725,4780.211360382684
13130,16650,-7692,-30970,-6143,1026,-259,7911,-279,11045,12,-1,27155,2020-11-02 15:10:35,2020-11-02 15:11:05,1,DF:DC:EF:28:D6:3E,12,12,-9435.842467656403,25845.46328480747,-23205.75722787863
13131,25610,30197,28165,-11774,-18943,-23042,4328,-3095,32548,12,-1,27181,2020-11-02 15:10:35,2020-11-02 15:11:05,1,DF:DC:EF:28:D6:3E,12,12,36221.22489171602,-15992.303659689933,28165.0
13132,16394,-29707,-7676,17155,7168,-6402,-12824,-8215,11556,12,-1,27207,2020-11-02 15:10:35,2020-11-02 15:11:05,1,DF:DC:EF:28:D6:3E,12,12,1997.103430549153,-17298.384616410814,30115.901589532576
13133,17929,-14603,-2813,-30973,-20226,28159,18921,-17431,14884,12,-1,27232,2020-11-02 15:10:35,2020-11-02 15:11:05,1,DF:DC:EF:28:D6:3E,12,12,-6077.598231478982,-22413.931233399904,1813.3133764310764
13134,19978,13046,12548,23299,6142,-27904,24297,-25111,-17372,12,-1,27258,2020-11-02 15:10:35,2020-11-02 15:11:05,1,DF:DC:EF:28:D6:3E,12,12,26606.97819299492,2814.015210492351,-3304.6836206527105
13135,-13814,-25098,-21757,8963,-24322,-22783,25577,-21783,19749,12,1,27283,2020-11-02 15:10:35,2020-11-02 15:11:05,1,DF:DC:EF:28:D6:3E,12,12,-8889.873506707463,1328.4376592888493,-34832.580315275576
13136,1547,-9,-5118,-11006,7167,6914,23529,-9239,-8667,12,1,27309,2020-11-02 15:10:35,2020-11-02 15:11:05,1,DF:DC:EF:28:D6:3E,12,12,-4326.776611294076,-419.34931572196507,3112.9349988976746
13137,28426,-12297,-4862,27650,-2050,-13567,19945,2538,25894,12,1,27335,2020-11-02 15:10:35,2020-11-02 15:11:05,1,DF:DC:EF:28:D6:3E,12,12,-8847.945639612082,-29918.766012665852,3077.9907793591783
13138,14858,17143,-20477,29698,12542,-2559,7657,10730,3111,12,1,27360,2020-11-02 15:10:35,2020-11-02 15:11:05,1,DF:DC:EF:28:D6:3E,12,12,10856.472565497908,26493.203785408816,-10686.313612251479
13139,25355,30966,-14079,-15870,-9731,27394,-7448,20970,-11737,12,1,27386,2020-11-02 15:10:35,2020-11-02 15:11:05,1,DF:DC:EF:28:D6:3E,12,12,16863.724213913192,25111.832911465448,29748.917214979752
13140,23052,-25611,-5119,-22527,-12291,8707,26856,-31510,-14552,12,1,27411,2020-11-02 15:10:35,2020-11-02 15:11:05,1,DF:DC:EF:28:D6:3E,12,12,-91.6676427942557,-31118.217933889508,-15657.914792916135
13141,-15859,30197,29187,-30463,-9730,-8957,-4121,-6934,-25047,12,1,27437,2020-11-02 15:10:35,2020-11-02 15:11:05,1,DF:DC:EF:28:D6:3E,12,12,-1198.8225087327428,-44809.934953945325,2424.915053304965
13142,-28914,-12043,11011,-32766,-28930,-24317,-22553,20715,23850,12,1,27463,2020-11-02 15:10:35,2020-11-02 15:11:05,1,DF:DC:EF:28:D6:3E,12,12,-7662.630461476211,-29489.23432268312,13189.561003791758
13143,-27121,-18186,-26878,-13310,-5379,8451,27111,-23829,12587,12,1,27488,2020-11-02 15:10:35,2020-11-02 15:11:05,1,DF:DC:EF:28:D6:3E,12,12,-9557.551784523976,41198.99592782193,45.38089305386529
13144,-19697,-11785,-4351,-24318,16126,20994,15079,-10261,-4053,12,1,27514,2020-11-02 15:10:35,2020-11-02 15:11:05,1,DF:DC:EF:28:D6:3E,12,12,-3148.6859450539496,8860.643572826615,-21386.070403296308
13145,-30449,16120,16129,258,-15106,-27135,10983,-1301,29996,12,1,27539,2020-11-02 15:10:35,2020-11-02 15:11:05,1,DF:DC:EF:28:D6:3E,12,12,-13299.915114651005,27819.00272727359,22279.04816645052
13146,-28400,6136,28416,3841,27903,-4352,7143,4076,-12244,12,1,27565,2020-11-02 15:10:35,2020-11-02 15:11:05,1,DF:DC:EF:28:D6:3E,12,12,-6909.269229416515,34394.98409431864,20516.49628633031
13147,4368,-21769,13312,17407,-24064,-4865,5351,5612,-10708,12,1,27591,2020-11-02 15:10:35,2020-11-02 15:11:05,1,DF:DC:EF:28:D6:3E,12,12,-15957.941396251064,-15437.386158084428,13312.0
13148,-7410,20983,-18431,-28163,-13312,32255,-3866,4332,-23764,12,1,27616,2020-11-02 15:10:35,2020-11-02 15:11:05,1,DF:DC:EF:28:D6:3E,12,12,-11036.487528446894,-19323.310586812917,-18431.0
13149,270,21495,8707,8445,-11265,14847,-25882,-1557,-31700,12,1,27642,2020-11-02 15:10:35,2020-11-02 15:11:05,1,DF:DC:EF:28:D6:3E,12,12,19868.353303145603,-5595.750009989877,10576.194629784448
13150,-16115,-17673,-11517,12285,31742,11007,4326,-13589,-22740,12,1,27667,2020-11-02 15:10:35,2020-11-02 15:11:05,1,DF:DC:EF:28:D6:3E,12,12,-19500.68389300847,15071.895376059363,-9860.564916782421
13151,-9203,-521,-29692,14077,-18691,11263,21733,-29973,2861,12,1,27693,2020-11-02 15:10:35,2020-11-02 15:11:05,1,DF:DC:EF:28:D6:3E,12,12,25506.39554309334,4705.92137004241,17142.333693469114
13152,10766,-30217,-1020,-516,-27907,2303,-31516,18411,-31699,12,1,27719,2020-11-02 15:10:35,2020-11-02 15:11:05,1,DF:DC:EF:28:D6:3E,12,12,3086.575411192748,-16334.660198179668,27452.98113941408
13153,-11509,-9481,-12797,12028,-31748,25599,27363,747,15662,12,1,27744,2020-11-02 15:10:35,2020-11-02 15:11:05,1,DF:DC:EF:28:D6:3E,12,12,7960.705433521168,-9013.747730232804,15539.92187420611
13154,-14067,-524,6152,12541,29183,12799,-28190,-10006,-23250,12,1,27770,2020-11-02 15:10:35,2020-11-02 15:11:05,1,DF:DC:EF:28:D6:3E,12,12,5802.443636396321,-119.27620283893339,-14223.909098200824
13155,-20467,3572,32264,30463,31744,-16642,-27422,-18454,25390,12,1,27795,2020-11-02 15:10:35,2020-11-02 15:11:05,1,DF:DC:EF:28:D6:3E,12,12,-35186.39472089507,188.38919672162956,15313.559516191057
13156,23055,30965,-24056,-11519,-15359,-1539,8163,-27670,-4819,12,-1,27821,2020-11-02 15:10:35,2020-11-02 15:11:05,1,DF:DC:EF:28:D6:3E,12,12,-5186.944782663924,36972.88691174571,-25983.776154224746
13157,-20211,-10507,-18426,16387,29953,1277,6116,17642,17709,12,-1,27847,2020-11-02 15:10:35,2020-11-02 15:11:05,1,DF:DC:EF:28:D6:3E,12,12,-18569.347577756,-7280.339581586997,21461.011907952176
13158,20491,4854,11012,-6141,7169,-31747,10981,-3607,-20948,12,-1,27872,2020-11-02 15:10:35,2020-11-02 15:11:05,1,DF:DC:EF:28:D6:3E,12,12,-21223.488343492623,3685.4746459770176,10034.309152477485
13159,7947,-18698,22275,22019,-29183,14590,11238,-16151,9004,12,-1,27898,2020-11-02 15:10:35,2020-11-02 15:11:05,1,DF:DC:EF:28:D6:3E,12,12,24303.61397276423,-15538.620928474124,8765.343433319962
13160,28681,31478,3586,-8958,-31743,-8706,8935,-20759,-30165,12,-1,27923,2020-11-02 15:10:35,2020-11-02 15:11:05,1,DF:DC:EF:28:D6:3E,12,12,-22607.641929062785,-27105.818117836792,-24093.418013433315
13161,-27127,25846,13058,25858,-2304,-3841,-14617,-18455,14891,12,-1,27949,2020-11-02 15:10:35,2020-11-02 15:11:05,1,DF:DC:EF:28:D6:3E,12,12,-13891.622253234409,27667.497854219066,24818.009643406655
13162,-9463,-4619,-18432,-4608,-31746,-12800,-10777,-15639,28971,12,-1,27975,2020-11-02 15:10:35,2020-11-02 15:11:05,1,DF:DC:EF:28:D6:3E,12,12,-14582.797296967718,-14178.312895890493,-6077.79733306207
13163,24844,17141,28676,19969,6144,-30207,-24345,-7447,-10965,12,-1,28000,2020-11-02 15:10:35,2020-11-02 15:11:05,1,DF:DC:EF:28:D6:3E,12,12,-17812.946352775754,-33161.24317123594,17787.13261240527
13164,-22003,30453,-18174,771,13057,-18175,-25,13802,-11221,12,-1,28026,2020-11-02 15:10:35,2020-11-02 15:11:05,1,DF:DC:EF:28:D6:3E,12,12,21643.778181506965,22654.70371994105,27570.323889853244
13165,8206,-10506,-29439,14851,-14336,-9728,32744,29674,-13013,12,-1,28052,2020-11-02 15:10:35,2020-11-02 15:11:05,1,DF:DC:EF:28:D6:3E,12,12,-28659.92515736692,12374.311159976995,8357.888865628416
13166,-12020,32503,26112,-20990,-26880,11520,233,-29974,-18133,12,-1,28077,2020-11-02 15:10:35,2020-11-02 15:11:05,1,DF:DC:EF:28:D6:3E,12,12,-16826.52715974301,-35230.12524657433,18933.25676826669
13167,-31988,12792,-29697,27393,-32768,-19200,20201,-24598,-19413,12,-1,28103,2020-11-02 15:10:35,2020-11-02 15:11:05,1,DF:DC:EF:28:D6:3E,12,12,-45274.9329357496,2105.0101324123025,3811.6396741844437
13168,15630,12280,-32257,23807,-20224,31489,16361,-12054,-13781,12,-1,28128,2020-11-02 15:10:35,2020-11-02 15:11:05,1,DF:DC:EF:28:D6:3E,12,12,34035.61783200363,16166.350864435703,3979.342599193489
13169,30991,-14089,-10752,-7427,1281,13569,-2072,3307,-12245,12,-1,28154,2020-11-02 15:10:35,2020-11-02 15:11:05,1,DF:DC:EF:28:D6:3E,12,12,-25707.89805797952,-22316.94377464201,-10752.0
13170,527,-5129,-19711,-30467,-10496,22528,-21784,13035,-18133,12,-1,28180,2020-11-02 15:10:35,2020-11-02 15:11:05,1,DF:DC:EF:28:D6:3E,12,12,-17676.657551954147,-4839.0115166017995,-8900.99075008718
13171,-21235,19448,-16383,15613,15616,1536,22248,15851,-24789,12,-1,28205,2020-11-02 15:10:35,2020-11-02 15:11:05,1,DF:DC:EF:28:D6:3E,12,12,-4225.979310707177,30811.341266812153,11417.309937350095
13172,-30707,23032,-16894,-2820,-14593,28416,-11289,16875,-20693,12,-1,28231,2020-11-02 15:10:35,2020-11-02 15:11:05,1,DF:DC:EF:28:D6:3E,12,12,12762.6558186595,3608.748766129327,39785.5709748823
13173,-12786,7672,-6654,-17924,-16385,7936,16615,17899,-13781,12,-1,28256,2020-11-02 15:10:35,2020-11-02 15:11:05,1,DF:DC:EF:28:D6:3E,12,12,-3241.328230200713,-13949.686643045614,-7843.285654936883
13174,-27377,27383,29954,15868,3584,13055,-18202,12523,-14805,12,-1,28282,2020-11-02 15:10:35,2020-11-02 15:11:05,1,DF:DC:EF:28:D6:3E,12,12,-12864.06044603829,26876.56800102831,38842.4635589296
13175,-15602,22774,9474,19195,-3328,17918,18150,1515,-32213,12,-1,28308,2020-11-02 15:10:35,2020-11-02 15:11:05,1,DF:DC:EF:28:D6:3E,12,12,18476.348640539643,-21735.85754941698,-6165.321849237205
13176,3085,22005,-6142,-519,22785,26622,-13339,-10006,3371,12,-1,28333,2020-11-02 15:10:35,2020-11-02 15:11:05,1,DF:DC:EF:28:D6:3E,12,12,16353.12332817062,-14742.215933783205,-6834.0208351563
13177,-21237,-10764,-2812,-22791,-29183,29439,14821,-12054,-28374,12,-1,28359,2020-11-02 15:10:35,2020-11-02 15:11:05,1,DF:DC:EF:28:D6:3E,12,12,-16223.68994913872,8019.324225726392,-15724.615492815496
13178,-3061,27126,-14842,-28166,-6913,30464,29924,-7446,26666,12,-1,28384,2020-11-02 15:10:35,2020-11-02 15:11:05,1,DF:DC:EF:28:D6:3E,12,12,-20489.44546350025,-13721.13109698545,-18904.701717233937
13179,-30451,26615,25606,-2565,32253,-13568,29411,-3862,-11990,12,-1,28410,2020-11-02 15:10:35,2020-11-02 15:11:05,1,DF:DC:EF:28:D6:3E,12,12,41864.06647122347,14329.086158844797,-18258.315649188058
13180,-2802,-27145,-23546,30972,-5125,-3329,11234,-10262,-18645,12,1,28436,2020-11-02 15:10:35,2020-11-02 15:11:05,1,DF:DC:EF:28:D6:3E,12,12,-27401.240269717724,-9104.748767451358,-21572.944318353788
13181,-20211,-21770,-23034,9725,23548,-24577,-4128,-22294,-21972,12,1,28461,2020-11-02 15:10:35,2020-11-02 15:11:05,1,DF:DC:EF:28:D6:3E,12,12,-26098.711699965614,18269.78452529471,19951.310683796684
13182,11279,-26379,-22008,23294,-16641,11776,16608,-24086,7725,12,1,28487,2020-11-02 15:10:35,2020-11-02 15:11:05,1,DF:DC:EF:28:D6:3E,12,12,-36123.11092887416,1097.1736318236617,1156.1197350980647
13183,-11761,-19468,-23288,32000,27651,15614,-13600,-28182,26924,12,1,28512,2020-11-02 15:10:35,2020-11-02 15:11:05,1,DF:DC:EF:28:D6:3E,12,12,-28470.41079570188,-12961.659534622871,-9004.786517874923
13184,-30452,26613,-28411,25090,5378,21244,-6943,14570,27691,12,1,28538,2020-11-02 15:10:35,2020-11-02 15:11:05,1,DF:DC:EF:28:D6:3E,12,12,6939.654471434991,22611.579509240117,43397.21951824108
13185,-10488,-1291,17152,-23551,3582,10749,21218,-17943,19755,12,1,28564,2020-11-02 15:10:35,2020-11-02 15:11:05,1,DF:DC:EF:28:D6:3E,12,12,-12515.655511127341,2938.021734229749,15510.716437869058
13186,20495,7158,22021,-17408,-12031,-28675,31202,25065,17707,12,1,28589,2020-11-02 15:10:35,2020-11-02 15:11:05,1,DF:DC:EF:28:D6:3E,12,12,9533.251892553591,-24739.84201286484,15914.262644923614
13187,7181,24308,-3324,-15102,13829,-11523,1508,14825,-12759,12,1,28615,2020-11-02 15:10:35,2020-11-02 15:11:05,1,DF:DC:EF:28:D6:3E,12,12,24604.600177769647,-4650.042245509498,-5146.392737352518
13188,16653,17141,22020,4612,10500,31998,-12571,16617,23848,12,1,28640,2020-11-02 15:10:35,2020-11-02 15:11:05,1,DF:DC:EF:28:D6:3E,12,12,28994.87549478839,13851.336451795298,-4842.970528599845
13189,29963,15094,-14333,32260,-22014,-30210,22247,17897,22055,12,1,28692,2020-11-02 15:10:35,2020-11-02 15:11:05,1,DF:DC:EF:28:D6:3E,12,12,28909.621799816603,8929.913748967736,-20384.687925684942
13190,28938,19703,2563,4613,17153,511,-26392,17385,-18138,12,1,28694,2020-11-02 15:10:35,2020-11-02 15:11:05,1,DF:DC:EF:28:D6:3E,12,12,24421.357109226323,18449.399598640008,-17187.26253343861
13191,11785,9208,26114,261,-9729,27647,-32023,13545,-29402,12,1,28717,2020-11-02 15:10:35,2020-11-02 15:11:05,1,DF:DC:EF:28:D6:3E,12,12,24305.069792762344,3092.8842891803515,-17473.183285901083
13192,-13305,28919,-17151,-16381,-28674,15617,-8471,12265,-6362,12,1,28743,2020-11-02 15:10:35,2020-11-02 15:11:05,1,DF:DC:EF:28:D6:3E,12,12,-12512.747212203176,21695.34927938309,26081.245442828713
13193,5132,24567,15874,22530,1023,-28926,-17175,26601,-28633,12,1,28769,2020-11-02 15:10:35,2020-11-02 15:11:05,1,DF:DC:EF:28:D6:3E,12,12,-15312.32902819186,11287.03862784858,22803.37974392934
13194,-4083,2039,-32254,-7935,-17154,23298,30441,-24599,15912,12,1,28794,2020-11-02 15:10:35,2020-11-02 15:11:05,1,DF:DC:EF:28:D6:3E,12,12,29984.49854358915,7415.481069340659,10348.401499736588
13195,28432,10999,17666,-29183,-3841,-14847,19177,-11031,-16600,12,1,28820,2020-11-02 15:10:35,2020-11-02 15:11:05,1,DF:DC:EF:28:D6:3E,12,12,-24141.728394364494,-20593.831847272428,15313.889805630804
13196,-28657,31223,-15359,-18432,-21503,257,32489,4074,-19928,12,-1,28845,2020-11-02 15:10:35,2020-11-02 15:11:05,1,DF:DC:EF:28:D6:3E,12,12,27541.652341720226,9856.652198664813,-34297.260134336866
13197,16655,12792,30978,-8961,-3070,26625,-13335,26858,22312,12,-1,28871,2020-11-02 15:10:35,2020-11-02 15:11:05,1,DF:DC:EF:28:D6:3E,12,12,-10819.813708388907,-21533.469425844152,28633.932646459765
13198,29455,8953,-31998,-14593,-5630,-26879,7914,-9750,-6617,12,-1,28922,2020-11-02 15:10:35,2020-11-02 15:11:05,1,DF:DC:EF:28:D6:3E,12,12,39761.15493967522,-3137.3974707430516,19514.931026619484
13199,-30192,-6407,-28670,-12545,-14079,769,20202,12011,-25049,12,-1,28924,2020-11-02 15:10:35,2020-11-02 15:11:05,1,DF:DC:EF:28:D6:3E,12,12,-32407.12115866097,21627.989856532746,16018.23854153712
13200,529,4602,28161,-31745,-4608,-12801,26602,19435,28199,12,-1,28948,2020-11-02 15:10:35,2020-11-02 15:11:05,1,DF:DC:EF:28:D6:3E,12,12,16214.20443209343,-9230.254164401837,21596.345725488474
13201,-14320,8185,3330,23806,30977,28158,-32278,14315,4647,12,-1,28973,2020-11-02 15:10:35,2020-11-02 15:11:05,1,DF:DC:EF:28:D6:3E,12,12,13955.02984103948,-871.4428466117442,9361.797610543972
13202,3600,-23561,-3837,23037,4,-16387,-8982,13803,12070,12,-1,28999,2020-11-02 15:10:35,2020-11-02 15:11:05,1,DF:DC:EF:28:D6:3E,12,12,8417.059504173818,19957.321597330956,-10661.224787232686
13203,-16626,5367,-13820,15869,19461,-4611,-32533,25579,-9692,12,-1,29025,2020-11-02 15:10:35,2020-11-02 15:11:05,1,DF:DC:EF:28:D6:3E,12,12,17802.794913305108,-380.873708239129,-13384.184453793585
13204,-4596,-24585,-25082,-24579,-22013,24830,492,-28181,-18909,12,-1,29050,2020-11-02 15:10:35,2020-11-02 15:11:05,1,DF:DC:EF:28:D6:3E,12,12,12348.639077490427,26593.777363516227,19872.953566936354
13205,-1268,14072,-31481,-20482,-24318,5374,25836,-23061,-7390,12,-1,29076,2020-11-02 15:10:35,2020-11-02 15:11:05,1,DF:DC:EF:28:D6:3E,12,12,-23280.63054657959,-24862.002491399362,-5529.5065305429525
13206,-12789,-23304,30982,-3586,9473,-9987,-14356,-26901,12578,12,-1,29101,2020-11-02 15:10:35,2020-11-02 15:11:05,1,DF:DC:EF:28:D6:3E,12,12,-40526.743999186525,-2448.353877151276,4255.331375655407
13207,-22263,-1800,2821,-16387,-13058,12542,-17684,21739,-4831,12,-1,29127,2020-11-02 15:10:35,2020-11-02 15:11:05,1,DF:DC:EF:28:D6:3E,12,12,21681.9341336208,2180.086036617687,5655.100980378132
13208,18443,22777,-8696,7933,8190,30718,13292,-1302,2594,12,-1,29153,2020-11-02 15:10:35,2020-11-02 15:11:05,1,DF:DC:EF:28:D6:3E,12,12,18443.0,-1571.3260723581343,24329.880381422503
13209,-500,-29448,27912,-4099,11773,-26627,-17173,-32278,12578,12,-1,29178,2020-11-02 15:10:35,2020-11-02 15:11:05,1,DF:DC:EF:28:D6:3E,12,12,-40212.63446172618,-2570.6233577199164,4780.206397252878
13210,17420,-27401,-3575,-27137,-25347,-18436,-26645,-5911,11810,12,-1,29204,2020-11-02 15:10:35,2020-11-02 15:11:05,1,DF:DC:EF:28:D6:3E,12,12,-29106.288129441687,14058.055019903548,4716.662631913219
13211,29196,24567,-15096,-22273,-25345,21758,-20757,-30231,2338,12,1,29229,2020-11-02 15:10:35,2020-11-02 15:11:05,1,DF:DC:EF:28:D6:3E,12,12,19288.364188539163,-26451.493305654898,-24740.869625604795
13212,-17652,17399,-12536,-10497,3074,-14850,4332,-32023,-30687,12,1,29255,2020-11-02 15:10:35,2020-11-02 15:11:05,1,DF:DC:EF:28:D6:3E,12,12,-21514.602462289746,-11393.392304086108,13370.942139386716
13213,17931,6647,-23289,-21248,25345,26110,-21012,-30487,-8672,12,1,29281,2020-11-02 15:10:35,2020-11-02 15:11:05,1,DF:DC:EF:28:D6:3E,12,12,5904.838876323054,-27458.284771084393,-10920.45632172479
13214,-5116,20726,6403,-26624,18176,-22017,4333,32745,-29664,12,1,29306,2020-11-02 15:10:35,2020-11-02 15:11:05,1,DF:DC:EF:28:D6:3E,12,12,-22028.003131802958,-1400.2110460824433,-3089.567615655579
13215,-22008,-12298,-254,-24065,6142,15106,28140,-31511,17697,12,1,29332,2020-11-02 15:10:35,2020-11-02 15:11:05,1,DF:DC:EF:28:D6:3E,12,12,-3920.061048433942,-7366.8057019282205,23791.18910703265
13216,-8949,17142,13575,14593,13311,-16640,-533,-27415,-10463,12,1,29358,2020-11-02 15:10:35,2020-11-02 15:11:05,1,DF:DC:EF:28:D6:3E,12,12,23135.817058330154,-4305.217170359607,-2100.5866227128827
13217,-9205,-2059,7430,14083,-30979,5633,-3605,-30743,24354,12,1,29383,2020-11-02 15:10:35,2020-11-02 15:11:05,1,DF:DC:EF:28:D6:3E,12,12,-4508.605551507372,-2070.124894590377,10934.50798626596
13218,-3570,-7690,10757,10243,-30722,10754,-16661,-29207,12835,12,1,29409,2020-11-02 15:10:35,2020-11-02 15:11:05,1,DF:DC:EF:28:D6:3E,12,12,-12386.627109405055,-4129.199803698319,4137.055333650927
13219,15,-13833,-12285,-21246,4353,10754,-8725,-10775,-28637,12,1,29434,2020-11-02 15:10:35,2020-11-02 15:11:05,1,DF:DC:EF:28:D6:3E,12,12,16225.930246244916,8462.78946175575,2715.4596609027676
13220,23566,249,-4606,-31230,27137,-6143,12780,13802,-24285,12,1,29460,2020-11-02 15:10:35,2020-11-02 15:11:05,1,DF:DC:EF:28:D6:3E,12,12,2045.1730032766964,-8616.920961354122,-22320.383812390955
13221,-32499,-21767,-8191,-1023,9984,-29695,26348,30442,-13789,12,1,29486,2020-11-02 15:10:35,2020-11-02 15:11:05,1,DF:DC:EF:28:D6:3E,12,12,19847.260813597586,24073.646249949525,-24972.496179383525
13222,25614,-32007,-15358,257,-32257,-20223,19180,-26390,11044,12,1,29511,2020-11-02 15:10:35,2020-11-02 15:11:05,1,DF:DC:EF:28:D6:3E,12,12,-33163.008197510455,11009.210382259806,-26370.54005990392
13223,-29680,-20232,17155,-31744,17664,-7167,7660,-13590,-32476,12,1,29537,2020-11-02 15:10:35,2020-11-02 15:11:05,1,DF:DC:EF:28:D6:3E,12,12,29828.91663016265,11410.901462161582,-23760.414758409523
13224,17170,28408,-23037,2560,-21504,4353,236,-790,-21212,12,1,29562,2020-11-02 15:10:35,2020-11-02 15:11:05,1,DF:DC:EF:28:D6:3E,12,12,-12989.233977664939,-30546.737381813375,-23037.0
13225,-5615,-16137,-19197,-25601,-17919,-1026,11500,4843,27172,12,1,29588,2020-11-02 15:10:35,2020-11-02 15:11:05,1,DF:DC:EF:28:D6:3E,12,12,21962.991179285444,-11549.86820685254,-6684.561755490532
13226,-14578,-25609,-7675,13823,-18942,1278,-23572,4075,-19933,12,1,29614,2020-11-02 15:10:35,2020-11-02 15:11:05,1,DF:DC:EF:28:D6:3E,12,12,17614.030739392714,-20264.72579051435,-14364.24031221251
13227,26635,-21512,17158,8447,-3837,26111,15341,18155,-12766,12,1,29639,2020-11-02 15:10:35,2020-11-02 15:11:05,1,DF:DC:EF:28:D6:3E,12,12,6494.769427364428,30170.244075324605,22675.111367327678
13228,7691,21497,13065,-2049,-23037,-17152,-20243,-18965,8482,12,1,29665,2020-11-02 15:10:35,2020-11-02 15:11:05,1,DF:DC:EF:28:D6:3E,12,12,13460.260643579395,-15013.293347990159,16893.46386192311
13229,-24309,-3591,15625,6145,26369,-13567,-8211,3308,4130,12,1,29690,2020-11-02 15:10:35,2020-11-02 15:11:05,1,DF:DC:EF:28:D6:3E,12,12,-24309.0,11207.758557250894,11463.94583563484
13230,-11763,24825,25099,19201,12546,-27904,10990,24556,-3807,12,-1,29716,2020-11-02 15:10:35,2020-11-02 15:11:05,1,DF:DC:EF:28:D6:3E,12,12,-18383.46347263441,-7707.075504516824,-31420.659651223003
13231,-1269,16377,27915,5634,10240,-7682,-19730,30700,-26079,12,-1,29742,2020-11-02 15:10:35,2020-11-02 15:11:05,1,DF:DC:EF:28:D6:3E,12,12,-9246.384345948036,29483.082557987793,-9711.639120451453
13232,13324,26617,1290,13571,14590,-6147,12527,9452,-30687,12,-1,29767,2020-11-02 15:10:35,2020-11-02 15:11:05,1,DF:DC:EF:28:D6:3E,12,12,19437.400598837223,22524.755039739834,1575.0026539778842
13233,15368,-5640,-23035,-7678,-14850,-15363,-9745,-15637,20769,12,-1,29793,2020-11-02 15:10:35,2020-11-02 15:11:05,1,DF:DC:EF:28:D6:3E,12,12,2565.2557939214057,22291.664126358657,17178.399872786966
13234,30990,-520,-11249,-13309,-22012,-29187,-6416,-8981,-29152,12,-1,29818,2020-11-02 15:10:35,2020-11-02 15:11:05,1,DF:DC:EF:28:D6:3E,12,12,15442.245607356592,17842.631554092488,23029.721032330788
13235,14087,-21257,12550,-24827,-18172,3326,-18446,20460,18463,12,-1,29844,2020-11-02 15:10:35,2020-11-02 15:11:05,1,DF:DC:EF:28:D6:3E,12,12,11903.452482041188,-24742.75511754609,7342.3433725844125
13236,-27122,-3593,14856,14596,16383,-14851,-18957,20972,-6114,12,-1,29870,2020-11-02 15:10:35,2020-11-02 15:11:05,1,DF:DC:EF:28:D6:3E,12,12,18181.96732294159,-17853.10920237305,17885.631805324265
13237,21005,15608,-9720,2566,11522,-29701,9973,4076,4638,12,-1,29895,2020-11-02 15:10:35,2020-11-02 15:11:05,1,DF:DC:EF:28:D6:3E,12,12,21005.0,16612.13636232268,7881.940717843329
13238,19466,-22535,23303,-25084,-29947,17918,-16650,29932,2589,12,-1,29921,2020-11-02 15:10:35,2020-11-02 15:11:05,1,DF:DC:EF:28:D6:3E,12,12,-4828.426875150031,30567.226898908717,21728.141283182977
13239,-31222,8443,-5882,27139,-12538,19456,-13321,23277,26908,12,-1,29946,2020-11-02 15:10:35,2020-11-02 15:11:05,1,DF:DC:EF:28:D6:3E,12,12,-22633.2803221165,-12647.423695962865,-20210.708862266332
13240,-10233,30713,11271,259,-1789,-15359,26872,10222,13852,12,-1,29972,2020-11-02 15:10:35,2020-11-02 15:11:05,1,DF:DC:EF:28:D6:3E,12,12,23518.258903158792,-23644.674996776877,-7928.36310096773
13241,27911,9723,14853,-12797,19454,-4352,-15112,23790,28700,12,-1,29998,2020-11-02 15:10:35,2020-11-02 15:11:05,1,DF:DC:EF:28:D6:3E,12,12,7120.843628208279,9275.995577020049,30942.232483738302
13242,-29687,-21509,20483,2818,22265,-22015,-17928,-19731,5917,12,-1,30023,2020-11-02 15:10:35,2020-11-02 15:11:05,1,DF:DC:EF:28:D6:3E,12,12,-3156.250685003712,39845.13138004737,12880.680336076097
13243,2059,17404,-3067,-28928,5629,-16383,21496,2029,-10723,12,-1,30049,2020-11-02 15:10:35,2020-11-02 15:11:05,1,DF:DC:EF:28:D6:3E,12,12,-13021.717755874866,-10808.05434062537,5492.359607347495
13244,2059,-2309,-30715,-29698,17921,-1790,-12553,10221,26142,12,-1,30074,2020-11-02 15:10:35,2020-11-02 15:11:05,1,DF:DC:EF:28:D6:3E,12,12,-29321.922898985482,7308.696741922908,6307.929647717761
13245,-28660,31739,-11258,31484,-16896,-16894,-522,31213,-4322,12,1,30100,2020-11-02 15:10:35,2020-11-02 15:11:05,1,DF:DC:EF:28:D6:3E,12,12,2665.811248781549,31739.0,-30676.23859579055
13246,29964,-24838,10248,-28165,-21505,18690,-1035,-24083,27935,12,1,30126,2020-11-02 15:10:35,2020-11-02 15:11:05,1,DF:DC:EF:28:D6:3E,12,12,-11064.813540677176,25188.223332686564,-29375.369796017054
13247,-5619,5370,1801,-27397,-6402,-12031,-5644,-25619,-3297,12,1,30151,2020-11-02 15:10:35,2020-11-02 15:11:05,1,DF:DC:EF:28:D6:3E,12,12,5035.824799682215,5370.0,3075.2610599598834
13248,-13299,9722,10,12796,21761,27649,5364,-16915,15136,12,1,30177,2020-11-02 15:10:35,2020-11-02 15:11:05,1,DF:DC:EF:28:D6:3E,12,12,-11139.502314190151,978.3104295344326,-12096.907947720212
13249,-30451,6650,-1015,-16388,3842,19969,-29965,7150,16416,12,1,30202,2020-11-02 15:10:35,2020-11-02 15:11:05,1,DF:DC:EF:28:D6:3E,12,12,2114.281204753414,-11491.549883835247,28913.49550390877
13250,2830,20730,19209,-6916,11520,-19712,1523,19950,20512,12,1,30228,2020-11-02 15:10:35,2020-11-02 15:11:05,1,DF:DC:EF:28:D6:3E,12,12,-2835.422963922363,-20535.372902612155,-19416.13549000738
13251,3343,-10503,-19704,27388,-20994,-17921,27378,12270,28960,12,1,30254,2020-11-02 15:10:35,2020-11-02 15:11:05,1,DF:DC:EF:28:D6:3E,12,12,-2738.655373844811,-19109.541480999374,-11707.325276478623
13252,1550,14329,10503,18684,29951,24319,-9743,-531,29728,12,1,30279,2020-11-02 15:10:35,2020-11-02 15:11:05,1,DF:DC:EF:28:D6:3E,12,12,16338.603937257514,3216.7754866192613,-6382.642622779277
13253,-10997,-24329,-26619,-29189,15872,25343,19697,-5139,22560,12,1,30305,2020-11-02 15:10:35,2020-11-02 15:11:05,1,DF:DC:EF:28:D6:3E,12,12,6957.884087447312,-29115.26875387134,22919.30159091875
13254,30991,-3849,9992,-9222,21250,-24833,-20752,3822,8224,12,1,30330,2020-11-02 15:10:35,2020-11-02 15:11:05,1,DF:DC:EF:28:D6:3E,12,12,12351.565526568304,28898.70370333121,-9348.834115009222
13255,8973,-12552,5385,7421,7681,-7684,-26384,9710,26655,12,1,30356,2020-11-02 15:10:35,2020-11-02 15:11:05,1,DF:DC:EF:28:D6:3E,12,12,7116.88153861173,1922.944514817943,-14584.85308662035
13256,-31218,-22536,-6389,20734,3329,5116,-15632,-7699,-18914,12,1,30382,2020-11-02 15:10:35,2020-11-02 15:11:05,1,DF:DC:EF:28:D6:3E,12,12,36487.66658334986,1596.3312442445522,-13760.670581804598
13257,17676,-7176,-7413,30463,4610,26875,25329,-20499,-21219,12,1,30407,2020-11-02 15:10:35,2020-11-02 15:11:05,1,DF:DC:EF:28:D6:3E,12,12,18629.881992587005,3584.5517855281987,-7678.997749651253
13258,22535,-8199,-14585,-7938,8960,-30468,-4879,28909,-13284,12,1,30433,2020-11-02 15:10:35,2020-11-02 15:11:05,1,DF:DC:EF:28:D6:3E,12,12,-15935.66883710945,-15117.89136865668,17472.14555455267
13259,26632,-23303,-28661,-1284,-17666,5630,-18959,4077,-28132,12,1,30458,2020-11-02 15:10:35,2020-11-02 15:11:05,1,DF:DC:EF:28:D6:3E,12,12,-31806.121383677535,7719.493116587055,31662.694492884453
13260,-32761,-10505,12044,10237,-29442,8448,12785,-12820,-21476,12,1,30484,2020-11-02 15:10:35,2020-11-02 15:11:05,1,DF:DC:EF:28:D6:3E,12,12,-27536.209849015166,2721.2787411830877,-23728.629778471935
13261,5895,27638,12046,2559,-2050,10498,-24336,-10260,4125,12,1,30510,2020-11-02 15:10:35,2020-11-02 15:11:05,1,DF:DC:EF:28:D6:3E,12,12,-7789.985243504531,-27181.84525190781,12007.481151653683
13262,-27125,29942,-28144,15874,-20739,-22014,14064,-1812,-12771,12,1,30535,2020-11-02 15:10:35,2020-11-02 15:11:05,1,DF:DC:EF:28:D6:3E,12,12,23227.96581687899,19200.269340724313,38938.220121797334
13263,15115,-3338,10510,-24827,-20995,-7679,24560,-3860,-32738,12,1,30561,2020-11-02 15:10:35,2020-11-02 15:11:05,1,DF:DC:EF:28:D6:3E,12,12,-5431.965035777257,17369.299655345003,-4343.587725938696
13264,29708,18423,22026,27399,21246,-6399,-3088,-5396,9759,12,1,30587,2020-11-02 15:10:35,2020-11-02 15:11:05,1,DF:DC:EF:28:D6:3E,12,12,548.8809496148187,34952.40939768173,22026.0
13265,20746,-24584,29703,-12793,16895,28415,-1551,-11540,23839,12,1,30612,2020-11-02 15:10:35,2020-11-02 15:11:05,1,DF:DC:EF:28:D6:3E,12,12,4692.092709273591,43043.31377612417,6503.47493096582
13266,-6135,-17159,-18683,-14331,21503,15871,1779,-21268,21023,12,1,30638,2020-11-02 15:10:35,2020-11-02 15:11:05,1,DF:DC:EF:28:D6:3E,12,12,-6201.504012426001,18216.457557147853,17630.25856453884
13267,28937,-18183,-22267,2563,-27904,20224,-21517,-23316,19487,12,-1,30663,2020-11-02 15:10:35,2020-11-02 15:11:05,1,DF:DC:EF:28:D6:3E,12,12,-1810.2946812792925,-14750.86487660294,-37985.86007396875
13268,14091,16633,-19450,17409,-11007,12033,-6157,-6676,22303,12,-1,30689,2020-11-02 15:10:35,2020-11-02 15:11:05,1,DF:DC:EF:28:D6:3E,12,12,-26909.721431411366,11290.249718740488,-1382.976417846754
13269,-32757,24057,-24825,21249,-12287,19969,3316,16365,24607,12,-1,30715,2020-11-02 15:10:35,2020-11-02 15:11:05,1,DF:DC:EF:28:D6:3E,12,12,24051.00873397512,-8957.689463440161,40116.701027811665
13270,-3317,-26119,17671,8194,-14080,15617,14836,-32019,-32481,12,-1,30740,2020-11-02 15:10:35,2020-11-02 15:11:05,1,DF:DC:EF:28:D6:3E,12,12,-3742.117646608367,-30977.914949396894,-5642.183257115526
13271,28683,-2055,-31738,31234,30463,-4352,27892,-27667,-18401,12,-1,30766,2020-11-02 15:10:35,2020-11-02 15:11:05,1,DF:DC:EF:28:D6:3E,12,12,-1347.4545669446816,22713.310689804115,-36283.99153481395
13272,14347,-20230,-21499,5122,-16386,12289,-31500,-32531,3616,12,-1,30791,2020-11-02 15:10:35,2020-11-02 15:11:05,1,DF:DC:EF:28:D6:3E,12,12,-20380.46207327269,14877.426969061744,-20990.3607034307
13273,-6902,4347,-1020,12801,-1282,-14591,28660,29933,32032,12,-1,30817,2020-11-02 15:10:35,2020-11-02 15:11:05,1,DF:DC:EF:28:D6:3E,12,12,901.7022616824124,-2149.343333155399,-7882.998748414036
13274,9740,-7942,-13564,-12033,13567,10754,7668,31469,-224,12,-1,30843,2020-11-02 15:10:35,2020-11-02 15:11:05,1,DF:DC:EF:28:D6:3E,12,12,16198.955145113316,7122.6315247295415,5365.354822333354
13275,-3571,6906,22277,-2819,4351,2562,-30989,-32019,-31455,12,-1,30894,2020-11-02 15:10:35,2020-11-02 15:11:05,1,DF:DC:EF:28:D6:3E,12,12,21838.872953508755,5424.904944693844,7095.325254104995
13276,32270,-23559,29190,24316,-6146,-26623,-20238,32749,290,12,-1,30896,2020-11-02 15:10:35,2020-11-02 15:11:05,1,DF:DC:EF:28:D6:3E,12,12,33676.574266028896,27442.52626267742,23690.32669734423
13277,-21235,-26375,31494,-12805,-17921,21505,-12047,-31251,23074,12,-1,30919,2020-11-02 15:10:35,2020-11-02 15:11:05,1,DF:DC:EF:28:D6:3E,12,12,27099.30942020759,-29227.64083401107,23448.034591963078
13278,-17652,10233,-17660,4603,-31233,-28671,-6672,-26131,-22750,12,-1,30945,2020-11-02 15:10:35,2020-11-02 15:11:05,1,DF:DC:EF:28:D6:3E,12,12,860.8783788102219,9548.507985642027,25224.350867069454
13279,-17906,-1033,-16638,-21000,27902,-12799,-28177,-23571,8995,12,-1,30971,2020-11-02 15:10:35,2020-11-02 15:11:05,1,DF:DC:EF:28:D6:3E,12,12,-712.6585736971547,23444.675560085623,6953.723796618594
13280,-15341,-10,17928,11255,-20992,-769,1774,-24851,29219,12,-1,30996,2020-11-02 15:10:35,2020-11-02 15:11:05,1,DF:DC:EF:28:D6:3E,12,12,6683.562399989096,-22629.136189206743,-108.41575432390891
13281,-32499,11766,-2810,20985,-3326,19453,23789,-24851,-14302,12,-1,31022,2020-11-02 15:10:35,2020-11-02 15:11:05,1,DF:DC:EF:28:D6:3E,12,12,-15541.09313153862,-10366.749812313166,29215.146407398817
13282,32523,2295,20745,9723,13060,15613,19181,-18195,-19423,12,-1,31047,2020-11-02 15:10:35,2020-11-02 15:11:05,1,DF:DC:EF:28:D6:3E,12,12,28317.560201745204,9288.69835113242,24600.88303622871
13283,8973,-27657,-8692,-4868,1795,-31235,27629,-12307,-17376,12,-1,31073,2020-11-02 15:10:35,2020-11-02 15:11:05,1,DF:DC:EF:28:D6:3E,12,12,29275.93430913697,-7442.757670027711,-2915.5223532568616
13284,-27895,-10505,20999,-16899,-24323,-24579,26605,-31251,20768,12,-1,31099,2020-11-02 15:10:35,2020-11-02 15:11:05,1,DF:DC:EF:28:D6:3E,12,12,10104.860218290662,-24429.0940331775,25110.858521503764
13285,23053,-20744,12,-7427,-25347,30205,-6164,-1044,31264,12,-1,31124,2020-11-02 15:10:35,2020-11-02 15:11:05,1,DF:DC:EF:28:D6:3E,12,12,-4198.705783724255,-25282.51155936689,17461.957736525423
13286,19981,-24841,-27381,3326,14078,-15619,-29716,29164,-28128,12,-1,31150,2020-11-02 15:10:35,2020-11-02 15:11:05,1,DF:DC:EF:28:D6:3E,12,12,-38041.75803004815,14656.67816802646,10200.060493063926
13287,-7926,15095,13579,12031,18431,-20995,-32532,3308,26912,12,-1,31175,2020-11-02 15:10:35,2020-11-02 15:11:05,1,DF:DC:EF:28:D6:3E,12,12,-1433.1840893173212,11710.838286677943,18326.810742445225
13288,26379,12279,-16116,27392,14080,-29443,-15380,-13845,3616,12,-1,31201,2020-11-02 15:10:35,2020-11-02 15:11:05,1,DF:DC:EF:28:D6:3E,12,12,-6923.306898176211,-19764.10433668505,25841.80603909667
13289,11275,32246,12811,-2303,9471,-17924,27373,32235,-30945,12,-1,31227,2020-11-02 15:10:35,2020-11-02 15:11:05,1,DF:DC:EF:28:D6:3E,12,12,20737.581370546,29978.52790689613,1514.0823740580827
13290,25610,-26889,-27637,-18429,9728,19964,23022,5611,-3298,12,-1,31252,2020-11-02 15:10:35,2020-11-02 15:11:05,1,DF:DC:EF:28:D6:3E,12,12,25610.0,-3339.9272414235493,38414.41104614253
13291,-16631,-23561,-19448,-17660,8705,5885,-25617,-11030,15134,12,-1,31278,2020-11-02 15:10:35,2020-11-02 15:11:05,1,DF:DC:EF:28:D6:3E,12,12,-25440.076715276162,-16787.81471086872,-16760.29116556164
13292,14089,29943,2568,-30716,26370,-23298,-7696,-4886,-31203,12,-1,31304,2020-11-02 15:10:35,2020-11-02 15:11:05,1,DF:DC:EF:28:D6:3E,12,12,-13589.358216044422,18712.412986843305,-23808.669376633465
13293,6921,-777,-15610,-12285,4098,-7170,-1295,7659,-3300,12,-1,31329,2020-11-02 15:10:35,2020-11-02 15:11:05,1,DF:DC:EF:28:D6:3E,12,12,-9395.92981393787,-777.0,-14257.939680457113
13294,27399,28407,-15098,-12285,28160,14079,-11534,11755,-25828,12,-1,31355,2020-11-02 15:10:35,2020-11-02 15:11:05,1,DF:DC:EF:28:D6:3E,12,12,38407.334792913265,-5380.165829123491,-16779.240261591287
13295,-13308,-27147,-5881,-11005,-27904,4098,12787,16875,-11236,12,-1,31380,2020-11-02 15:10:35,2020-11-02 15:11:05,1,DF:DC:EF:28:D6:3E,12,12,6073.1805138427535,21347.884370907457,21354.92789340779
13296,-30710,7159,3077,-24572,7421,-12797,243,26091,-7395,12,1,31406,2020-11-02 15:10:35,2020-11-02 15:11:05,1,DF:DC:EF:28:D6:3E,12,12,15611.6008435826,-11063.638025146784,-25252.666052303808
13297,25869,-6153,15880,27398,21500,-28671,-270,8939,-3810,12,1,31432,2020-11-02 15:10:35,2020-11-02 15:11:05,1,DF:DC:EF:28:D6:3E,12,12,27339.639589252303,-6153.0,-13188.012288809416
13298,-12020,-25352,-30715,-6137,-12548,-5375,28915,-11030,-13537,12,1,31457,2020-11-02 15:10:35,2020-11-02 15:11:05,1,DF:DC:EF:28:D6:3E,12,12,-25156.325768472343,33089.715752102304,-1686.8652215181082
13299,-2291,-17159,-23548,-1786,-13314,30722,-6157,-15894,-25312,12,1,31483,2020-11-02 15:10:35,2020-11-02 15:11:05,1,DF:DC:EF:28:D6:3E,12,12,22408.95726091821,18552.695776811543,-2797.209304185185
13300,30221,-32262,-10749,23557,-8192,-8446,20980,-2582,14625,12,1,31508,2020-11-02 15:10:35,2020-11-02 15:11:05,1,DF:DC:EF:28:D6:3E,12,12,-42997.861804934655,13557.253620105666,6088.615645930751
13301,-4595,-28677,18435,-25853,28673,24067,32500,23019,-12511,12,1,31534,2020-11-02 15:10:35,2020-11-02 15:11:05,1,DF:DC:EF:28:D6:3E,12,12,17735.211638700206,15819.881873948056,-24870.20676682931
13302,-31986,17660,-29437,-16639,-10240,13315,26356,-17941,26402,12,1,31560,2020-11-02 15:10:35,2020-11-02 15:11:05,1,DF:DC:EF:28:D6:3E,12,12,-45752.25780957547,-1230.1527189466287,-10331.233934734422
13303,-2033,26876,-509,4864,-16641,-22270,1780,-4117,1315,12,1,31585,2020-11-02 15:10:35,2020-11-02 15:11:05,1,DF:DC:EF:28:D6:3E,12,12,-2033.0,26876.0,-509.0
13304,1809,13564,-24828,25598,19199,-19711,30707,-789,-29917,12,1,31611,2020-11-02 15:10:35,2020-11-02 15:11:05,1,DF:DC:EF:28:D6:3E,12,12,19653.82768140635,-3927.3671679115196,-20049.613602211793
13305,22545,9212,22277,5629,-30465,-19712,-8206,-533,-10973,12,1,31636,2020-11-02 15:10:35,2020-11-02 15:11:05,1,DF:DC:EF:28:D6:3E,12,12,32143.090972636644,-6153.526292932305,4284.683755774207
13306,20497,22266,2822,26108,14335,16127,19442,-10005,-5853,12,1,31662,2020-11-02 15:10:35,2020-11-02 15:11:05,1,DF:DC:EF:28:D6:3E,12,12,-13058.587624814541,-21197.37576317628,17435.882512788026
13307,-8690,30970,263,19452,-257,25343,-13583,-19221,-11741,12,1,31688,2020-11-02 15:10:35,2020-11-02 15:11:05,1,DF:DC:EF:28:D6:3E,12,12,-16741.98325227797,-6186.56628032187,26761.139053478804
13308,-5875,12795,17672,7165,-23041,-2305,20977,-21525,-14301,12,1,31713,2020-11-02 15:10:35,2020-11-02 15:11:05,1,DF:DC:EF:28:D6:3E,12,12,-17127.48915753376,-992.8107249872958,14703.423955763285
13309,3085,18939,32007,-22530,19965,-2561,-6928,-31765,-2269,12,1,31739,2020-11-02 15:10:35,2020-11-02 15:11:05,1,DF:DC:EF:28:D6:3E,12,12,2176.201704037383,37165.74718158304,-2573.3980605411607
13310,-15857,7164,15367,-19714,29434,-8450,15088,-4118,-28380,12,1,31764,2020-11-02 15:10:35,2020-11-02 15:11:05,1,DF:DC:EF:28:D6:3E,12,12,23195.99658046339,-918.4494104014975,119.2783285592468
13311,-29938,27387,27141,-19459,-29958,11262,31471,8426,10533,12,1,31816,2020-11-02 15:10:35,2020-11-02 15:11:05,1,DF:DC:EF:28:D6:3E,12,12,-45616.78608231206,-8495.95096427542,15162.227367151843
13312,-22002,-31494,-12793,-11781,-18946,17406,-18194,-28695,27941,12,1,31818,2020-11-02 15:10:35,2020-11-02 15:11:05,1,DF:DC:EF:28:D6:3E,12,12,15585.31127426072,-26893.053647625413,25951.543826723348
13313,-7670,-3849,-25338,5883,24321,17663,26606,-30743,-1500,12,1,31841,2020-11-02 15:10:35,2020-11-02 15:11:05,1,DF:DC:EF:28:D6:3E,12,12,16499.318010196403,-16659.987329408243,12879.25744685482
13314,-3063,-14856,29446,31482,-31999,767,9198,-15895,21284,12,1,31867,2020-11-02 15:10:35,2020-11-02 15:11:05,1,DF:DC:EF:28:D6:3E,12,12,6436.133451666232,32218.848708032252,-4203.759641234439
13315,-19444,12535,26636,6395,5377,30718,-27155,-16919,-1245,12,1,31893,2020-11-02 15:10:35,2020-11-02 15:11:05,1,DF:DC:EF:28:D6:3E,12,12,15296.770255659976,-28351.614052547353,-14382.859846392013
13316,-24823,23799,-19959,11006,-23040,-2818,-30483,-19223,-31965,12,1,31918,2020-11-02 15:10:35,2020-11-02 15:11:05,1,DF:DC:EF:28:D6:3E,12,12,-18542.628240698177,28587.065986743684,-20491.120203561946
13317,26378,24055,-27896,27903,14080,-13057,29677,-19735,28963,12,1,31944,2020-11-02 15:10:35,2020-11-02 15:11:05,1,DF:DC:EF:28:D6:3E,12,12,-25275.57570178627,15196.616337155312,34392.39523273387
13318,22538,16887,29959,-16896,26368,7424,-25875,-14871,20515,12,1,31969,2020-11-02 15:10:35,2020-11-02 15:11:05,1,DF:DC:EF:28:D6:3E,12,12,7919.078892024014,32923.06296998071,23324.53661225844
13319,4364,-21769,-27897,27649,-29697,1792,-16147,-12055,22563,12,1,31995,2020-11-02 15:10:35,2020-11-02 15:11:05,1,DF:DC:EF:28:D6:3E,12,12,32368.79080509286,11858.35837379735,-9100.39474389578
13320,8716,27384,30215,-9727,-14594,-14593,-9235,-18711,-31453,12,1,32046,2020-11-02 15:10:35,2020-11-02 15:11:05,1,DF:DC:EF:28:D6:3E,12,12,-40747.33886306893,4043.7952075602025,7880.3827887702155
13321,-32245,-15624,27399,26370,-16642,26880,-2579,-25879,-13277,12,1,32048,2020-11-02 15:10:35,2020-11-02 15:11:05,1,DF:DC:EF:28:D6:3E,12,12,-31606.948552235917,-31518.002388740948,6493.914893162044
13322,-4341,11513,18182,-18174,12286,10241,-2323,-28695,18212,12,1,32072,2020-11-02 15:10:35,2020-11-02 15:11:05,1,DF:DC:EF:28:D6:3E,12,12,-17666.338848011517,-9111.105539035872,9320.236132405063
13323,-29171,24057,32261,-12286,-24067,-30975,-15891,32745,1317,12,1,32097,2020-11-02 15:10:35,2020-11-02 15:11:05,1,DF:DC:EF:28:D6:3E,12,12,25575.587020222243,19323.599840008712,-37986.134954668065
13324,6414,3065,12805,-7166,18174,23553,-27411,28649,-16859,12,1,32123,2020-11-02 15:10:35,2020-11-02 15:11:05,1,DF:DC:EF:28:D6:3E,12,12,-13805.109307554925,-2063.3984080393093,4434.297014878599
13325,3342,-6408,-20988,-3326,-20481,-28415,-24851,-32023,14630,12,1,32148,2020-11-02 15:10:35,2020-11-02 15:11:05,1,DF:DC:EF:28:D6:3E,12,12,-22185.45133752816,242.35368698395087,-688.9017640965776
13326,14094,2041,-5629,-11262,18432,-22527,-13843,-19223,-30170,12,1,32174,2020-11-02 15:10:35,2020-11-02 15:11:05,1,DF:DC:EF:28:D6:3E,12,12,1745.2546956633214,-15138.513471016719,1507.20069503383
13327,8718,22777,-9214,24322,17408,19201,-1299,-7191,-14298,12,1,32200,2020-11-02 15:10:35,2020-11-02 15:11:05,1,DF:DC:EF:28:D6:3E,12,12,15524.35099952826,-20811.758788917617,2357.5985992862024
13328,-243,-32263,17154,27905,-20225,14081,1518,490,3367,12,1,32225,2020-11-02 15:10:35,2020-11-02 15:11:05,1,DF:DC:EF:28:D6:3E,12,12,-243.0,-32263.0,17154.0
13329,9743,31737,25602,30976,10495,24321,-13331,4330,30503,12,-1,32276,2020-11-02 15:10:35,2020-11-02 15:11:05,1,DF:DC:EF:28:D6:3E,12,12,12422.562690132048,-6485.588990275538,-39512.5637444466
13330,29968,31737,-2815,-17665,-2817,-11520,-31251,7658,-14041,12,-1,32279,2020-11-02 15:10:35,2020-11-02 15:11:05,1,DF:DC:EF:28:D6:3E,12,12,-6475.002265890219,-42267.92076141367,-9205.41352485438
13331,22801,31993,-22783,-20994,-12544,-6145,25837,11498,-14809,12,-1,32302,2020-11-02 15:10:35,2020-11-02 15:11:05,1,DF:DC:EF:28:D6:3E,12,12,-27218.068501511545,32212.024180032262,-16854.227489625344
13332,28177,21753,-10495,17149,1793,255,18925,11242,32039,12,-1,32328,2020-11-02 15:10:35,2020-11-02 15:11:05,1,DF:DC:EF:28:D6:3E,12,12,-11699.25244413158,-31148.15996867088,-16437.79139101632
13333,22544,30969,-30206,21756,-7936,32254,7661,6122,4135,12,-1,32353,2020-11-02 15:10:35,2020-11-02 15:11:05,1,DF:DC:EF:28:D6:3E,12,12,20375.781836657297,42150.09467753774,-13708.040203455459
13334,28688,-7687,21508,18428,20738,-13315,5613,2794,26150,12,-1,32379,2020-11-02 15:10:35,2020-11-02 15:11:05,1,DF:DC:EF:28:D6:3E,12,12,-24569.268976767344,-16686.59147181526,21508.0
13335,-10227,10234,-1277,26108,26370,23805,21229,-1047,28965,12,-1,32405,2020-11-02 15:10:35,2020-11-02 15:11:05,1,DF:DC:EF:28:D6:3E,12,12,-12443.62626822272,6984.090354810346,2708.44258064345
13336,-13557,-17414,-6141,-12549,17409,-23811,28397,-7447,-26332,12,-1,32430,2020-11-02 15:10:35,2020-11-02 15:11:05,1,DF:DC:EF:28:D6:3E,12,12,9147.297561538753,-20894.755297825206,-2118.413171379139
13337,-16117,-30214,13316,23034,-13570,19454,-5396,-23831,19236,12,-1,32456,2020-11-02 15:10:35,2020-11-02 15:11:05,1,DF:DC:EF:28:D6:3E,12,12,-16142.278116063766,32820.44917453257,3493.4673614580224
13338,-12534,-14600,24070,13561,6142,7679,-13845,19689,30756,12,-1,32481,2020-11-02 15:10:35,2020-11-02 15:11:05,1,DF:DC:EF:28:D6:3E,12,12,30464.25512518909,-4407.992802249655,-1457.6745599431906
13339,8972,-8458,30729,-17159,-32768,-26368,-20246,18409,-27100,12,-1,32507,2020-11-02 15:10:35,2020-11-02 15:11:05,1,DF:DC:EF:28:D6:3E,12,12,-1116.9875323918761,-18151.31966942554,27669.259515043163
13340,31757,-26122,26890,-1286,23554,9472,16106,-28951,8484,12,1,32533,2020-11-02 15:10:35,2020-11-02 15:11:05,1,DF:DC:EF:28:D6:3E,12,12,-1809.4947971364054,-27952.97622826572,-40364.52503822072
13341,7437,-10763,27917,3070,24579,-4354,24810,-15383,22563,12,1,32558,2020-11-02 15:10:35,2020-11-02 15:11:05,1,DF:DC:EF:28:D6:3E,12,12,-10004.495495108298,-27021.403858940987,10966.486692663557
13342,18186,18165,19723,8194,20736,-3331,6123,-16407,-25310,12,1,32584,2020-11-02 15:10:35,2020-11-02 15:11:05,1,DF:DC:EF:28:D6:3E,12,12,25497.862345792746,-19146.679630266004,5740.925442031239
13343,14858,27894,-18166,-10236,26624,-24067,3308,-30231,12322,12,1,32609,2020-11-02 15:10:35,2020-11-02 15:11:05,1,DF:DC:EF:28:D6:3E,12,12,-19868.65452423333,-23615.422979462943,-19400.704134069878
13344,-5879,-29962,-507,5125,30974,-23042,-2836,17897,4642,12,1,32635,2020-11-02 15:10:35,2020-11-02 15:11:05,1,DF:DC:EF:28:D6:3E,12,12,5748.618043427666,-29962.0,1331.5707231603851
13345,-20469,14072,19464,-31483,15616,7678,-3603,4329,-10975,12,1,32661,2020-11-02 15:10:35,2020-11-02 15:11:05,1,DF:DC:EF:28:D6:3E,12,12,781.7317994017667,24827.2036362093,19464.0
13346,19979,-30217,-28152,29702,-6143,-29953,20975,7657,20257,12,1,32686,2020-11-02 15:10:35,2020-11-02 15:11:05,1,DF:DC:EF:28:D6:3E,12,12,-35133.879142633275,-29221.75726405522,-4057.3479997991617
13347,21773,15608,15878,-15867,-13312,-32000,26864,20201,9505,12,1,32712,2020-11-02 15:10:35,2020-11-02 15:11:05,1,DF:DC:EF:28:D6:3E,12,12,-14865.059431844464,-19792.76360129383,18896.04704987342
13348,-22004,-24840,22022,-26876,9473,-4352,9201,30441,11553,12,1,32737,2020-11-02 15:10:35,2020-11-02 15:11:05,1,DF:DC:EF:28:D6:3E,12,12,28058.40397297858,15471.8195749394,-23654.151126803557
13349,-26101,7929,18693,27140,26369,20738,-19471,-10519,20001,12,1,32763,2020-11-02 15:10:35,2020-11-02 15:11:05,1,DF:DC:EF:28:D6:3E,12,12,-1651.7227338502926,5499.824836140079,-32566.596840662656
13350,-17909,11002,-18172,26884,3073,27651,-2831,18922,-14303,12,1,32789,2020-11-02 15:10:35,2020-11-02 15:11:05,1,DF:DC:EF:28:D6:3E,12,12,3693.0808439341617,-18368.254712626,20517.461872567455
13351,-3828,-31750,6405,-32508,-24577,-14077,-271,-23318,-28638,12,1,32814,2020-11-02 15:10:35,2020-11-02 15:11:05,1,DF:DC:EF:28:D6:3E,12,12,19224.546505925027,26315.28050472892,-1289.5474395926858
13352,24334,5627,23300,-10492,12542,-7166,-783,-14102,29987,12,1,32840,2020-11-02 15:10:35,2020-11-02 15:11:05,1,DF:DC:EF:28:D6:3E,12,12,-3486.4888651895917,31623.10405077217,12430.622292827722
13353,30734,-29445,-26622,-2301,19196,7682,-8719,-26390,28452,12,-1,32865,2020-11-02 15:10:35,2020-11-02 15:11:05,1,DF:DC:EF:28:D6:3E,12,12,-21003.931531336973,34292.4086523405,-30053.007071635788
13354,22543,-11781,-15615,-7679,-22532,-511,28401,19434,30757,12,-1,32891,2020-11-02 15:10:35,2020-11-02 15:11:05,1,DF:DC:EF:28:D6:3E,12,12,-9512.910770771861,17645.163333226017,-22112.43484130838
13355,-2800,29947,8450,-18177,21246,3586,-13328,10986,21798,12,-1,32917,2020-11-02 15:10:35,2020-11-02 15:11:05,1,DF:DC:EF:28:D6:3E,12,12,27786.01841347338,866.2923384614423,-14256.648530087343
13356,-19439,16635,24066,766,6912,-29951,12528,15594,-12250,12,-1,32942,2020-11-02 15:10:35,2020-11-02 15:11:05,1,DF:DC:EF:28:D6:3E,12,12,-31493.48348410643,405.65250351091527,15548.834235488892
13357,3859,-22534,-11517,-30468,7681,-7681,-19985,21738,-8922,12,-1,32968,2020-11-02 15:10:35,2020-11-02 15:11:05,1,DF:DC:EF:28:D6:3E,12,12,16451.98276464795,12658.36842130234,-14980.397124986457
13358,30993,24058,11012,-6661,-5887,14590,-29969,24042,21030,12,-1,32993,2020-11-02 15:10:35,2020-11-02 15:11:05,1,DF:DC:EF:28:D6:3E,12,12,40207.686167637614,-1958.378218003736,6334.373276024289
13359,-32497,18682,1284,12027,5122,-20483,32751,23018,-30939,12,-1,33019,2020-11-02 15:10:35,2020-11-02 15:11:05,1,DF:DC:EF:28:D6:3E,12,12,3530.667205123086,34958.0547370019,-13122.10299805055
13360,21517,25338,18693,31994,15106,-6659,25071,23018,-20444,12,-1,33045,2020-11-02 15:10:35,2020-11-02 15:11:05,1,DF:DC:EF:28:D6:3E,12,12,-9938.72574439069,1022.7955938806845,36804.882852020106
13361,-13557,-20742,-8186,-1543,-3328,15615,-3090,24810,8484,12,-1,33070,2020-11-02 15:10:35,2020-11-02 15:11:05,1,DF:DC:EF:28:D6:3E,12,12,25588.92404413622,1462.7683558075469,-4909.244748500056
13362,18700,-30214,-14840,14074,4863,30208,2542,24554,9508,12,-1,33096,2020-11-02 15:10:35,2020-11-02 15:11:05,1,DF:DC:EF:28:D6:3E,12,12,24888.12358404906,-17159.590172047632,23852.277995874258
13363,30224,-2311,31245,-19461,-27394,-29953,2797,16618,27940,12,1,33121,2020-11-02 15:10:35,2020-11-02 15:11:05,1,DF:DC:EF:28:D6:3E,12,12,-12098.355859893636,-10472.168143929734,-40485.11333629487
13364,-26352,28408,11532,-6915,-3332,-28162,21996,-12567,-13788,12,1,33147,2020-11-02 15:10:35,2020-11-02 15:11:05,1,DF:DC:EF:28:D6:3E,12,12,-34419.25923051917,-3715.6141520017827,-20879.133063797566
13365,-20210,1785,19724,28672,18174,-28932,22764,16873,-19164,12,1,33173,2020-11-02 15:10:35,2020-11-02 15:11:05,1,DF:DC:EF:28:D6:3E,12,12,8382.710615994787,5791.514435499161,26398.011748461155
13366,2827,14328,21513,22272,10239,-13571,-19220,-11544,26916,12,1,33198,2020-11-02 15:10:35,2020-11-02 15:11:05,1,DF:DC:EF:28:D6:3E,12,12,-21528.58530278299,-7870.02145435131,12274.993245164995
13367,-500,22008,13835,-26879,-12287,-22275,25837,-17432,-15325,12,1,33224,2020-11-02 15:10:35,2020-11-02 15:11:05,1,DF:DC:EF:28:D6:3E,12,12,-5275.122793812576,-2118.5534042194236,25371.12729036038
13368,-10741,12023,14344,-13053,2304,-20996,-27410,-31768,-4574,12,1,33249,2020-11-02 15:10:35,2020-11-02 15:11:05,1,DF:DC:EF:28:D6:3E,12,12,-3312.2723322105685,-18714.332246340127,10221.280084748014
13369,-23541,6391,-18682,5125,-30210,13308,-10001,4072,18978,12,1,33275,2020-11-02 15:10:35,2020-11-02 15:11:05,1,DF:DC:EF:28:D6:3E,12,12,25036.573271106245,8822.41785625665,-15471.768742135853
13370,11275,-5130,12549,26885,768,24573,13809,-19225,-22239,12,1,33301,2020-11-02 15:10:35,2020-11-02 15:11:05,1,DF:DC:EF:28:D6:3E,12,12,8360.159562777062,10561.419362806926,11379.107132276862
13371,-20471,25847,-30460,-12028,-16639,19199,26098,-19993,11041,12,1,33326,2020-11-02 15:10:35,2020-11-02 15:11:05,1,DF:DC:EF:28:D6:3E,12,12,44537.41977376162,-4571.485575547773,-3234.2865563067207
13372,-31992,27384,-14589,-22524,-9982,27393,21747,7400,-6112,12,1,33352,2020-11-02 15:10:35,2020-11-02 15:11:05,1,DF:DC:EF:28:D6:3E,12,12,-22095.685168851043,-11953.080155573152,36811.886839898056
13373,20488,-1032,-23550,-23804,19201,-1790,-17933,-27160,16673,12,1,33378,2020-11-02 15:10:35,2020-11-02 15:11:05,1,DF:DC:EF:28:D6:3E,12,12,277.40753140801917,4924.843345756566,-30839.822163580568
13374,11273,9209,12803,-13052,-21762,1028,-31501,-12312,20002,12,1,33403,2020-11-02 15:10:35,2020-11-02 15:11:05,1,DF:DC:EF:28:D6:3E,12,12,17226.858816427535,7306.932115547517,5064.2963358845
13375,13836,29434,3330,-15356,11261,-9725,1523,-7192,-17629,12,1,33429,2020-11-02 15:10:35,2020-11-02 15:11:05,1,DF:DC:EF:28:D6:3E,12,12,-473.02769678100685,-29798.96693529041,13441.799224342962
13376,-21748,-1286,2817,20483,14076,14595,22514,-19992,14373,12,1,33454,2020-11-02 15:10:35,2020-11-02 15:11:05,1,DF:DC:EF:28:D6:3E,12,12,-9930.40153977343,19594.269530424554,-128.5139211970427
13377,3598,-5126,28928,-19456,765,-17149,20977,-27160,-18394,12,1,33480,2020-11-02 15:10:35,2020-11-02 15:11:05,1,DF:DC:EF:28:D6:3E,12,12,24467.087902180567,2485.2851976030315,16469.23286232679
13378,-17393,9722,-26111,-25603,-13827,-6141,-8209,-24344,10792,12,1,33506,2020-11-02 15:10:35,2020-11-02 15:11:05,1,DF:DC:EF:28:D6:3E,12,12,11097.149797715509,-13660.686281849432,27731.876436259296
13379,-752,22521,4612,-11525,-14081,-3325,22254,-6680,18985,12,1,33531,2020-11-02 15:10:35,2020-11-02 15:11:05,1,DF:DC:EF:28:D6:3E,12,12,2484.4385682753937,22824.276527270504,-1382.5537990090752
13380,-13296,-32007,-4603,-24836,-15360,17923,15341,23273,-7383,12,1,33557,2020-11-02 15:10:35,2020-11-02 15:11:05,1,DF:DC:EF:28:D6:3E,12,12,30543.102188173285,-15169.334528673335,7709.0513476045235
13381,-31472,-4359,-1275,-21251,31999,15106,28140,-22807,23594,12,1,33582,2020-11-02 15:10:35,2020-11-02 15:11:05,1,DF:DC:EF:28:D6:3E,12,12,-18558.38073094954,-24370.066041243976,-8532.272604091348
13382,-29680,-5639,-15867,-15619,2559,-29183,-20245,-15639,-10198,12,1,33608,2020-11-02 15:10:35,2020-11-02 15:11:05,1,DF:DC:EF:28:D6:3E,12,12,1378.456098859544,4041.229670330308,-33856.02947091048
13383,-7918,16890,23301,-25859,-1793,-13823,235,-6167,15147,12,1,33634,2020-11-02 15:10:35,2020-11-02 15:11:05,1,DF:DC:EF:28:D6:3E,12,12,-5418.271019373649,-28747.497406204966,5926.816771324601
13384,-31469,-18694,15877,26109,-16128,-15616,-31510,3562,23851,12,1,33659,2020-11-02 15:10:35,2020-11-02 15:11:05,1,DF:DC:EF:28:D6:3E,12,12,5034.155852406562,37233.56663772094,-13422.425871953066
13385,25618,-4102,31492,-20484,-18688,-18690,21738,3562,2859,12,1,33685,2020-11-02 15:10:35,2020-11-02 15:11:05,1,DF:DC:EF:28:D6:3E,12,12,25618.0,-383.2020727663112,-31755.7179760028
13386,-496,-26374,24070,8700,-8960,-14851,9962,-10519,-27606,12,1,33710,2020-11-02 15:10:35,2020-11-02 15:11:05,1,DF:DC:EF:28:D6:3E,12,12,21234.45185924718,28201.68801060543,-5381.60195385984
13387,6414,-3846,9735,10748,-1024,-27138,-1303,-23575,5674,12,1,33736,2020-11-02 15:10:35,2020-11-02 15:11:05,1,DF:DC:EF:28:D6:3E,12,12,3175.0021076034736,-3846.0,-11217.351854012313
13388,-30706,14075,12295,-23044,19456,-27137,-18455,-25623,-15063,12,1,33762,2020-11-02 15:10:35,2020-11-02 15:11:05,1,DF:DC:EF:28:D6:3E,12,12,-14985.974482491089,-3430.601940158077,32492.80882192719
13389,-31729,-12038,17416,-25091,-16130,9471,18153,31209,-13527,12,-1,33787,2020-11-02 15:10:35,2020-11-02 15:11:05,1,DF:DC:EF:28:D6:3E,12,12,4788.936673925156,-12267.823206907631,-35798.415332207
13390,14352,-3847,12297,-15873,31999,32765,13289,11241,-19927,12,-1,33813,2020-11-02 15:10:35,2020-11-02 15:11:05,1,DF:DC:EF:28:D6:3E,12,12,-1851.7673637706416,9413.598773910187,-16731.725486461655
13391,-26353,17657,-506,-27136,26880,14332,-14615,-16920,8489,12,-1,33838,2020-11-02 15:10:35,2020-11-02 15:11:05,1,DF:DC:EF:28:D6:3E,12,12,20280.081224997786,17133.16902215019,-17368.91242323265
13392,20238,6904,-22779,15871,-25343,-5893,-29206,20200,13352,12,-1,33864,2020-11-02 15:10:35,2020-11-02 15:11:05,1,DF:DC:EF:28:D6:3E,12,12,-13314.49408441243,-28102.831845564026,-3013.2690779448776
13393,25098,-28426,-13052,6142,-10237,-7684,-23317,11496,-19674,12,-1,33890,2020-11-02 15:10:35,2020-11-02 15:11:05,1,DF:DC:EF:28:D6:3E,12,12,26041.885850474406,-25033.753972296385,-17419.332002272517
13394,-1270,-19722,6663,-27138,-23291,30205,-7188,27368,-4316,12,-1,33915,2020-11-02 15:10:35,2020-11-02 15:11:05,1,DF:DC:EF:28:D6:3E,12,12,-14453.896335521877,-5049.120904556437,-14161.815272526273
13395,-10745,19959,23044,-8193,-12798,16382,-1043,-23576,-28381,12,-1,33941,2020-11-02 15:10:35,2020-11-02 15:11:05,1,DF:DC:EF:28:D6:3E,12,12,-31095.207789808766,5467.7055407101325,-6930.720787097385
13396,5644,-7690,-4094,30463,25342,23806,2798,30440,26403,12,-1,33966,2020-11-02 15:10:35,2020-11-02 15:11:05,1,DF:DC:EF:28:D6:3E,12,12,-9432.385325988276,843.8042244755129,4250.8556189123055
13397,-23285,24823,-16377,-17408,-11522,10750,3054,5096,24867,12,-1,33992,2020-11-02 15:10:35,2020-11-02 15:11:05,1,DF:DC:EF:28:D6:3E,12,12,34006.20005283791,1396.7505025476694,-16377.0
13398,11275,503,23817,31747,-18688,10752,-28434,2792,12579,12,-1,34018,2020-11-02 15:10:35,2020-11-02 15:11:05,1,DF:DC:EF:28:D6:3E,12,12,11996.778180172187,17890.099332212245,-15187.158462968759
13399,18441,14584,-23801,13573,19968,9474,10991,19176,22563,12,-1,34043,2020-11-02 15:10:35,2020-11-02 15:11:05,1,DF:DC:EF:28:D6:3E,12,12,14217.535970825194,-30216.389146089758,-2020.5533624136115
13400,1034,-1288,-28670,-6908,-24323,515,13551,31464,15140,12,-1,34069,2020-11-02 15:10:35,2020-11-02 15:11:05,1,DF:DC:EF:28:D6:3E,12,12,-20020.70510340633,-20187.05413816159,4043.663238373453
13401,4617,-7946,-19197,-764,20732,18948,-28690,30696,-11739,12,-1,34094,2020-11-02 15:10:35,2020-11-02 15:11:05,1,DF:DC:EF:28:D6:3E,12,12,8930.560036138322,-19305.57584121998,721.2855743965733
13402,-28917,-1291,-30717,-27643,-6149,21253,-22803,-24088,-13273,12,-1,34120,2020-11-02 15:10:35,2020-11-02 15:11:05,1,DF:DC:EF:28:D6:3E,12,12,-20279.82161178039,-36966.96762434545,1888.3323475913749
13403,-11508,17654,30465,6405,-11015,-6652,30700,-19992,6186,12,-1,34146,2020-11-02 15:10:35,2020-11-02 15:11:05,1,DF:DC:EF:28:D6:3E,12,12,-22008.872178518566,29060.71792157617,6580.13862408788
13404,-10481,30198,6147,28933,31738,7684,16875,-22040,25132,12,-1,34171,2020-11-02 15:10:35,2020-11-02 15:11:05,1,DF:DC:EF:28:D6:3E,12,12,-18226.06245291164,6674.468731114141,-26130.791963121672
13405,4369,-32008,12032,4614,-13315,29955,-7702,-10776,-8147,12,-1,34197,2020-11-02 15:10:35,2020-11-02 15:11:05,1,DF:DC:EF:28:D6:3E,12,12,-19958.48213058769,17814.223985611876,21741.243382876306
13406,14352,21498,-6148,2307,-2050,-14590,-14614,4073,-14034,12,-1,34222,2020-11-02 15:10:35,2020-11-02 15:11:05,1,DF:DC:EF:28:D6:3E,12,12,-19190.709910724254,-7000.841079888574,-16989.605330806673
13407,-10226,4091,-27908,-23810,13824,-21246,20202,21481,24111,12,-1,34248,2020-11-02 15:10:35,2020-11-02 15:11:05,1,DF:DC:EF:28:D6:3E,12,12,-9303.575521765131,-10601.016869628133,-26480.667379064904
13408,24844,-30726,-8453,29435,-24576,-26365,31465,-15895,-18129,12,-1,34274,2020-11-02 15:10:35,2020-11-02 15:11:05,1,DF:DC:EF:28:D6:3E,12,12,32226.272621933596,21585.378808221296,11327.108881016546
13409,17681,5369,5122,-21511,1537,-5628,5352,25066,19248,12,-1,34299,2020-11-02 15:10:35,2020-11-02 15:11:05,1,DF:DC:EF:28:D6:3E,12,12,14521.291962687686,-7493.2333975134425,10033.062293476058
13410,-10992,-7944,-2301,4604,-23040,-7678,14823,-3094,26416,12,-1,34325,2020-11-02 15:10:35,2020-11-02 15:11:05,1,DF:DC:EF:28:D6:3E,12,12,11270.194551277029,4790.29766437393,-6265.904887808241
13411,-4590,-12551,-25853,-20995,4348,-8960,22758,3819,-2256,12,-1,34350,2020-11-02 15:10:35,2020-11-02 15:11:05,1,DF:DC:EF:28:D6:3E,12,12,-4590.0,16073.771393203937,23823.07879345192
13412,-15087,14587,23041,-7684,-7175,-7425,1509,-16918,8498,12,-1,34376,2020-11-02 15:10:35,2020-11-02 15:11:05,1,DF:DC:EF:28:D6:3E,12,12,-20202.23883493671,-4465.273943042022,-23307.00953940177
13413,32529,-12296,-22780,-27142,16891,-29183,1251,-31254,-18637,12,1,34402,2020-11-02 15:10:35,2020-11-02 15:11:05,1,DF:DC:EF:28:D6:3E,12,12,10755.570978579513,13953.465617791227,-37654.67231536953
13414,-14571,23545,-31223,16636,-17920,-27136,3810,-22806,2612,12,1,34427,2020-11-02 15:10:35,2020-11-02 15:11:05,1,DF:DC:EF:28:D6:3E,12,12,18831.370679618325,23545.0,28854.27608391538
13415,4369,25849,21766,-5635,20223,19966,-6431,32234,-13773,12,1,34453,2020-11-02 15:10:35,2020-11-02 15:11:05,1,DF:DC:EF:28:D6:3E,12,12,24851.02950094469,-23272.445516809763,1355.4816156251954
13416,-2800,8953,5894,-6403,-30724,29181,11233,4330,20020,12,1,34478,2020-11-02 15:10:35,2020-11-02 15:11:05,1,DF:DC:EF:28:D6:3E,12,12,2789.2384529226597,-274.0565346391222,10718.231517771914
13417,4113,-14344,-20473,-5634,29437,4604,27616,29417,-4300,12,1,34504,2020-11-02 15:10:35,2020-11-02 15:11:05,1,DF:DC:EF:28:D6:3E,12,12,-22075.340417276224,-6118.153388771565,10819.352040341128
13418,-12786,24311,-9722,21248,-30209,-18437,20192,-14872,4149,12,1,34530,2020-11-02 15:10:35,2020-11-02 15:11:05,1,DF:DC:EF:28:D6:3E,12,12,-6550.456887778864,-22695.7388664954,-17059.27175659033
13419,-8437,-7435,2822,-4608,-21503,-5380,-7456,17128,-30156,12,1,34555,2020-11-02 15:10:35,2020-11-02 15:11:05,1,DF:DC:EF:28:D6:3E,12,12,4577.992649453825,9685.576353091761,4433.674774944194
13420,-16120,-22029,-7163,-5119,19715,-28162,994,4328,-31181,12,1,34581,2020-11-02 15:10:35,2020-11-02 15:11:05,1,DF:DC:EF:28:D6:3E,12,12,16551.50841688707,-21706.653591139202,-7163.0
13421,20233,-9742,7172,26627,-5377,17923,-798,25576,-6606,12,1,34607,2020-11-02 15:10:35,2020-11-02 15:11:05,1,DF:DC:EF:28:D6:3E,12,12,-18275.84702665754,10432.298612280196,10624.452838731486
13422,-23795,-6669,-30970,3847,-17926,-15108,6115,19432,-19405,12,1,34632,2020-11-02 15:10:35,2020-11-02 15:11:05,1,DF:DC:EF:28:D6:3E,12,12,-17030.22241858871,-25111.69077746252,25479.266015144593
13423,-24057,14837,-30462,-32246,4343,9469,-23582,30695,-10187,12,-1,34658,2020-11-02 15:10:35,2020-11-02 15:11:05,1,DF:DC:EF:28:D6:3E,12,12,-8582.598975627097,38085.37368443292,-14235.609159451833
13424,-18168,-20234,11264,2827,1274,-29184,9442,7143,18744,12,-1,34683,2020-11-02 15:10:35,2020-11-02 15:11:05,1,DF:DC:EF:28:D6:3E,12,12,21712.215043390748,17522.13085195964,9376.743801360935
13425,28426,22263,28669,-31736,13309,29187,18402,23015,-14279,12,-1,34709,2020-11-02 15:10:35,2020-11-02 15:11:05,1,DF:DC:EF:28:D6:3E,12,12,-23936.919405482287,10381.415553199506,38011.05505622321
13426,23310,-5897,32253,20485,-14852,-22013,7650,-11545,5179,12,-1,34734,2020-11-02 15:10:35,2020-11-02 15:11:05,1,DF:DC:EF:28:D6:3E,12,12,-21034.06218131726,-30326.126370713508,16008.779013403675
13427,-31472,-19465,-14851,17155,27132,7938,32737,6888,30524,12,-1,34760,2020-11-02 15:10:35,2020-11-02 15:11:05,1,DF:DC:EF:28:D6:3E,12,12,-20324.426776216267,-961.9986474090263,34291.65269888003
13428,-1520,-23049,21501,-17919,2815,-4864,8673,15080,18493,12,-1,34786,2020-11-02 15:10:35,2020-11-02 15:11:05,1,DF:DC:EF:28:D6:3E,12,12,10686.183538982445,29331.39522256238,4618.932524840046
13429,-20208,19959,26876,10495,16643,28416,30945,23016,-5060,12,-1,34811,2020-11-02 15:10:35,2020-11-02 15:11:05,1,DF:DC:EF:28:D6:3E,12,12,21923.76271113132,31433.662365507043,-7766.454781772329
13430,-6128,13559,-20739,253,12550,16128,24802,-28696,30011,12,-1,34837,2020-11-02 15:10:35,2020-11-02 15:11:05,1,DF:DC:EF:28:D6:3E,12,12,-23146.30491902518,-8328.66441473235,6810.793174240551
13431,-8176,-31754,-25346,-16644,1799,20224,-27933,-7704,31033,12,-1,34862,2020-11-02 15:10:35,2020-11-02 15:11:05,1,DF:DC:EF:28:D6:3E,12,12,38825.833130320665,9541.919399207254,-10912.82107960752
13432,-6385,29175,-2306,-14083,4357,3584,-29980,13033,-10697,12,-1,34888,2020-11-02 15:10:35,2020-11-02 15:11:05,1,DF:DC:EF:28:D6:3E,12,12,23683.662828561584,-17475.386174363975,-5564.304006779188
13433,18959,-28679,-18691,17919,-29184,18176,-9756,21737,14647,12,-1,34914,2020-11-02 15:10:35,2020-11-02 15:11:05,1,DF:DC:EF:28:D6:3E,12,12,35377.84961016812,-2272.5719074591934,-16568.80734650972
13434,20241,-9733,21757,-3841,-16901,10496,10724,13801,-1481,12,-1,34939,2020-11-02 15:10:35,2020-11-02 15:11:05,1,DF:DC:EF:28:D6:3E,12,12,-5181.291658852109,-23566.64655948001,-19888.785927915727
13435,26385,-2820,-28932,-7170,3323,22784,-10270,-2072,26937,12,-1,34965,2020-11-02 15:10:35,2020-11-02 15:11:05,1,DF:DC:EF:28:D6:3E,12,12,-36824.179583130084,-3059.0675061252077,-13259.078136218752
13436,-18670,5373,24317,12540,5116,-19201,17889,-14616,-17094,12,-1,34991,2020-11-02 15:10:35,2020-11-02 15:11:05,1,DF:DC:EF:28:D6:3E,12,12,-20012.937701615596,-22700.804152347748,-7273.948954179174
13437,12561,-27142,-30465,5626,14078,-23041,-17953,-26392,-25285,12,1,35016,2020-11-02 15:10:35,2020-11-02 15:11:05,1,DF:DC:EF:28:D6:3E,12,12,-28529.561216535418,-1499.1535864397301,-31723.804710598986
13438,-25322,-22023,4868,-18952,18177,-11523,-23074,26344,-23749,12,1,35042,2020-11-02 15:10:35,2020-11-02 15:11:05,1,DF:DC:EF:28:D6:3E,12,12,-28743.880499209878,16893.550581775933,-6189.581535784153
13439,4107,-30473,31492,10745,8703,6397,-22051,-7961,-30661,12,1,35067,2020-11-02 15:10:35,2020-11-02 15:11:05,1,DF:DC:EF:28:D6:3E,12,12,-26145.77490674004,33632.87351536018,-11065.510183713459
13440,-12528,-2061,-15355,-29958,-28674,-26880,27100,-12313,-4805,12,1,35093,2020-11-02 15:10:35,2020-11-02 15:11:05,1,DF:DC:EF:28:D6:3E,12,12,-5331.150709068858,-10273.542812853333,-16217.511528889512
13441,18705,-26123,6918,20733,-30722,18172,-31781,31463,18492,12,1,35119,2020-11-02 15:10:35,2020-11-02 15:11:05,1,DF:DC:EF:28:D6:3E,12,12,-25188.62566372128,17776.46246823974,11387.59839861705
13442,-31473,11766,2822,3839,19455,14844,5339,-7450,-31172,12,1,35144,2020-11-02 15:10:35,2020-11-02 15:11:05,1,DF:DC:EF:28:D6:3E,12,12,-16779.952944760546,-15245.966604162515,-24958.883197699037
13443,-502,-10506,-28922,-12032,29952,-6147,6619,31206,-29636,12,1,35170,2020-11-02 15:10:35,2020-11-02 15:11:05,1,DF:DC:EF:28:D6:3E,12,12,-11279.18863333988,27655.149047584735,-7421.775995636737
13444,6668,-31241,11524,25858,9730,29695,8156,23782,-15557,12,1,35195,2020-11-02 15:10:35,2020-11-02 15:11:05,1,DF:DC:EF:28:D6:3E,12,12,-28670.677350224025,1217.173319993064,18159.72550421532
13445,-11768,-27401,2053,-27389,-26622,31999,-28963,17126,-19654,12,1,35221,2020-11-02 15:10:35,2020-11-02 15:11:05,1,DF:DC:EF:28:D6:3E,12,12,16905.99147893018,12249.661260233133,21392.72505137865
13446,-30452,-5640,-30974,-2813,1536,32510,-17698,12518,6202,12,1,35247,2020-11-02 15:10:35,2020-11-02 15:11:05,1,DF:DC:EF:28:D6:3E,12,12,21282.822781436673,35390.158784986175,14597.968887055013
13447,7689,19704,-13056,4,-28674,22271,4575,-1051,26426,12,1,35272,2020-11-02 15:10:35,2020-11-02 15:11:05,1,DF:DC:EF:28:D6:3E,12,12,9886.170566727105,-18698.44829191927,-13056.0
13448,25098,-26888,-11009,-16638,24319,8705,9183,3814,-8134,12,-1,35298,2020-11-02 15:10:35,2020-11-02 15:11:05,1,DF:DC:EF:28:D6:3E,12,12,9131.092928207849,-23963.33302020684,-28573.65992481707
13449,3596,-8969,25599,-27391,-1536,-13566,-32289,26854,-12742,12,-1,35323,2020-11-02 15:10:35,2020-11-02 15:11:05,1,DF:DC:EF:28:D6:3E,12,12,-24077.975284292457,12489.888719250333,3596.7713285313093
13450,-5363,-15370,-14339,16385,-1025,-29949,-17441,-4122,-14790,12,-1,35349,2020-11-02 15:10:35,2020-11-02 15:11:05,1,DF:DC:EF:28:D6:3E,12,12,14227.8517101942,-613.5236541982586,16364.516932633947
13451,15886,31222,-6405,-12288,-18178,-27645,28127,30951,18747,12,-1,35375,2020-11-02 15:10:35,2020-11-02 15:11:05,1,DF:DC:EF:28:D6:3E,12,12,-19354.238215906866,28269.55907461546,9718.42568571457
13452,15887,-26378,5370,-29953,-23041,-20989,223,1512,-14789,12,-1,35400,2020-11-02 15:10:35,2020-11-02 15:11:05,1,DF:DC:EF:28:D6:3E,12,12,-30596.772317032282,-3468.8869655390827,5370.0
13453,2320,24823,-32520,-6148,-6655,-31741,-13858,-27416,-22469,12,-1,35426,2020-11-02 15:10:35,2020-11-02 15:11:05,1,DF:DC:EF:28:D6:3E,12,12,2642.363116614406,40680.36443365957,4152.107381150105
13454,13072,-9,-21512,12281,25348,-19709,-22818,10473,-10694,12,-1,35451,2020-11-02 15:10:35,2020-11-02 15:11:05,1,DF:DC:EF:28:D6:3E,12,12,10952.149459575672,-22659.129045832186,507.6436736930809
13455,18449,-7177,-519,-2571,9222,-21245,30942,-14359,27449,12,-1,35477,2020-11-02 15:10:35,2020-11-02 15:11:05,1,DF:DC:EF:28:D6:3E,12,12,7103.944320862787,12101.101792635305,13972.888086947522
13456,-21742,1016,19707,29684,-30458,-19710,10974,20202,-17865,12,-1,35503,2020-11-02 15:10:35,2020-11-02 15:11:05,1,DF:DC:EF:28:D6:3E,12,12,-25178.730747681806,12606.862083960048,-8319.327817303109
13457,-25068,-24328,-11526,-25869,-19707,-6656,-27683,-27926,12086,12,-1,35528,2020-11-02 15:10:35,2020-11-02 15:11:05,1,DF:DC:EF:28:D6:3E,12,12,-25784.209350344317,-2833.6929437472177,26081.595359144998
13458,-29422,3064,-15367,2801,-21243,-13058,-27428,31466,-12748,12,1,35554,2020-11-02 15:10:35,2020-11-02 15:11:05,1,DF:DC:EF:28:D6:3E,12,12,17160.597341691922,14362.88009327248,-24706.44537975047
13459,-30967,29172,-5,16366,31751,-18433,23515,17386,10035,12,1,35579,2020-11-02 15:10:35,2020-11-02 15:11:05,1,DF:DC:EF:28:D6:3E,12,12,30929.43075225713,12871.207023937477,26223.33009150961
13460,3854,11000,3583,-27410,10250,-4608,-9510,24042,32048,12,1,35605,2020-11-02 15:10:35,2020-11-02 15:11:05,1,DF:DC:EF:28:D6:3E,12,12,9447.250866127844,-355.64233237988856,7701.569619490958
13461,-24301,-13582,-22017,-22034,22020,14077,16089,8426,13615,12,1,35631,2020-11-02 15:10:35,2020-11-02 15:11:05,1,DF:DC:EF:28:D6:3E,12,12,-16763.34100355276,-25061.454335219736,18726.2254339283
13462,-4337,-8208,-19964,-7695,25604,-7943,-31785,13033,28206,12,1,35659,2020-11-02 15:10:35,2020-11-02 15:11:05,1,DF:DC:EF:28:D6:3E,12,12,19590.372799543886,-3043.8941326416016,9575.705252573367
13463,-24562,-10511,-7163,31479,-15869,12794,-19754,11496,-31955,12,1,35682,2020-11-02 15:10:35,2020-11-02 15:11:05,1,DF:DC:EF:28:D6:3E,12,12,-3897.956876693689,19943.169492770296,18765.858807154884
13464,27405,-25614,31748,-21252,2820,-7430,-20266,15847,-23508,12,1,35707,2020-11-02 15:10:35,2020-11-02 15:11:05,1,DF:DC:EF:28:D6:3E,12,12,1405.451235459699,-47275.90668598577,-13343.907929939789
13465,-31222,-11276,-3327,3584,-26366,28412,17879,-32026,-11989,12,1,35733,2020-11-02 15:10:35,2020-11-02 15:11:05,1,DF:DC:EF:28:D6:3E,12,12,13583.79144517055,1727.86354719059,30422.450370349878
13466,-5880,22260,-10499,12289,-17152,31488,-21033,21478,-30421,12,1,35759,2020-11-02 15:10:35,2020-11-02 15:11:05,1,DF:DC:EF:28:D6:3E,12,12,24494.36437983333,-107.91478120420209,-6350.233777425032
13467,-241,-16393,-13569,4608,-9214,9726,-22312,15334,-28630,12,1,35784,2020-11-02 15:10:35,2020-11-02 15:11:05,1,DF:DC:EF:28:D6:3E,12,12,-20257.580183400543,1555.7370894978776,-6333.752301871154
13468,27407,-15626,1278,-18690,30975,-14853,-20008,-19227,27178,12,1,35810,2020-11-02 15:10:35,2020-11-02 15:11:05,1,DF:DC:EF:28:D6:3E,12,12,29665.772939584327,10404.992333208858,2937.151586638157
13469,1036,-13066,-31486,-7937,23553,5371,-31528,-3868,29994,12,1,35835,2020-11-02 15:10:35,2020-11-02 15:11:05,1,DF:DC:EF:28:D6:3E,12,12,25692.287188950242,6519.733099636802,-21460.69214424371
13470,522,-5131,-30976,9218,31233,-3075,15577,28644,-4567,12,1,35861,2020-11-02 15:10:35,2020-11-02 15:11:05,1,DF:DC:EF:28:D6:3E,12,12,-6565.871701098791,30301.646511675703,-4981.14128349736
13471,-27638,30453,8447,-31742,18944,-9472,-2087,27364,-29143,12,-1,35887,2020-11-02 15:10:35,2020-11-02 15:11:05,1,DF:DC:EF:28:D6:3E,12,12,-25891.019694041617,19831.591970623762,-26437.83503075545
13472,-9971,8950,13567,14338,32766,-31998,8666,-14108,-15575,12,-1,35912,2020-11-02 15:10:35,2020-11-02 15:11:05,1,DF:DC:EF:28:D6:3E,12,12,-2086.829855277758,11253.196671149764,-15251.1486726589
13473,-28144,22775,-18433,-11263,19709,-767,-27175,14053,-21462,12,-1,35938,2020-11-02 15:10:35,2020-11-02 15:11:05,1,DF:DC:EF:28:D6:3E,12,12,-38089.09861334057,-4483.408560561389,13404.494190468442
13474,-12529,-2057,-26367,5634,-17666,-26368,16345,28645,22827,12,-1,35963,2020-11-02 15:10:35,2020-11-02 15:11:05,1,DF:DC:EF:28:D6:3E,12,12,-4792.190708239799,-24399.362002708058,-15431.520374761072
13475,-30706,-18441,-6143,-20221,-3074,17664,27609,-32027,-22229,12,-1,35989,2020-11-02 15:10:35,2020-11-02 15:11:05,1,DF:DC:EF:28:D6:3E,12,12,-7392.940958384044,-8533.495153056841,34542.571566960716
13476,7439,-2313,-15872,18949,19454,31744,-22055,-25371,11820,12,-1,36015,2020-11-02 15:10:35,2020-11-02 15:11:05,1,DF:DC:EF:28:D6:3E,12,12,-3073.484009945889,6595.545090998494,-16114.01734494575
13477,4112,1016,-3330,18950,766,-26880,-5415,-16411,-6868,12,-1,36040,2020-11-02 15:10:35,2020-11-02 15:11:05,1,DF:DC:EF:28:D6:3E,12,12,1566.3854915440288,-559.0720951542162,5124.799984809188
13478,-21233,-5897,-29442,28678,-27906,13312,20954,-10267,-31187,12,-1,36066,2020-11-02 15:10:35,2020-11-02 15:11:05,1,DF:DC:EF:28:D6:3E,12,12,-19595.266222695296,-31014.128320668442,-2568.1994024624473
13479,-29426,17400,32766,-30202,-15106,20480,-9510,-5915,814,12,-1,36091,2020-11-02 15:10:35,2020-11-02 15:11:05,1,DF:DC:EF:28:D6:3E,12,12,-18475.477918200886,36972.89841032117,-23106.746435492423
13480,-1265,-27144,-1027,-10746,25598,-8960,25563,2534,-29394,12,-1,36117,2020-11-02 15:10:35,2020-11-02 15:11:05,1,DF:DC:EF:28:D6:3E,12,12,-16627.238328583804,3599.3653030803607,21213.938931265333
13481,-23790,30713,24060,18950,-23299,-15104,-24357,12006,25903,12,-1,36143,2020-11-02 15:10:35,2020-11-02 15:11:05,1,DF:DC:EF:28:D6:3E,12,12,-39912.38744719194,12358.76843758988,18504.006051967976
13482,-18925,-26119,-30213,2564,9983,-3585,-17189,14822,7472,12,-1,36168,2020-11-02 15:10:35,2020-11-02 15:11:05,1,DF:DC:EF:28:D6:3E,12,12,2590.3437157392764,44000.65303158318,3227.3529755142154
13483,28177,-15624,-3332,-18175,259,18687,-29220,8678,-24273,12,-1,36194,2020-11-02 15:10:35,2020-11-02 15:11:05,1,DF:DC:EF:28:D6:3E,12,12,-254.69946739057627,2187.062566427074,-32315.736329408377
13484,32525,-29448,14078,-5631,-16380,30975,18398,3302,814,12,-1,36219,2020-11-02 15:10:35,2020-11-02 15:11:05,1,DF:DC:EF:28:D6:3E,12,12,32525.0,27166.611566423107,-18092.81636448804
13485,18444,-2567,-5379,-14077,17666,1792,-3617,5350,-20436,12,-1,36245,2020-11-02 15:10:35,2020-11-02 15:11:05,1,DF:DC:EF:28:D6:3E,12,12,-18621.676667988297,-61.50668988284724,-5379.0
13486,-4595,21499,8956,22276,-19970,1280,-29984,5862,-16084,12,-1,36271,2020-11-02 15:10:35,2020-11-02 15:11:05,1,DF:DC:EF:28:D6:3E,12,12,-9339.49027262241,-14424.480656769027,16378.010905787298
13487,-32753,16380,8186,-9727,24317,5632,6368,1254,-17363,12,-1,36296,2020-11-02 15:10:35,2020-11-02 15:11:05,1,DF:DC:EF:28:D6:3E,12,12,32702.08339207748,2679.8667590836176,18206.209406989936
13488,-10225,30458,20474,23549,27647,-28672,14303,1254,-29906,12,-1,36322,2020-11-02 15:10:35,2020-11-02 15:11:05,1,DF:DC:EF:28:D6:3E,12,12,27106.170233681838,-18681.34529633997,19175.19069479042
13489,-30447,-32006,-15620,22779,28423,-7169,-15649,8166,15917,12,-1,36348,2020-11-02 15:10:35,2020-11-02 15:11:05,1,DF:DC:EF:28:D6:3E,12,12,-4817.658440703515,12651.098404660434,44856.75112292816
13490,-1781,30197,20225,-24326,-32508,-9983,-545,17894,4908,12,-1,36373,2020-11-02 15:10:35,2020-11-02 15:11:05,1,DF:DC:EF:28:D6:3E,12,12,4617.328799456208,30197.0,-19771.263509389384
13491,8206,-28681,21507,5372,18946,-25599,26336,-19994,-8150,12,-1,36399,2020-11-02 15:10:35,2020-11-02 15:11:05,1,DF:DC:EF:28:D6:3E,12,12,24498.9444451077,26667.576449534048,-6413.371452191395
13492,-31984,-24073,22528,-6659,18685,-19456,-25889,-10266,20267,12,1,36424,2020-11-02 15:10:35,2020-11-02 15:11:05,1,DF:DC:EF:28:D6:3E,12,12,-10150.290442498064,2774.256176419349,-44713.21365771568
13493,-24304,-8,17410,-3075,6652,27389,9950,-27674,-28116,12,1,36450,2020-11-02 15:10:35,2020-11-02 15:11:05,1,DF:DC:EF:28:D6:3E,12,12,-3943.3981776328746,26985.203070555443,12249.122664645281
13494,7438,-11018,28671,24317,-24323,9984,-22052,25574,-11219,12,1,36476,2020-11-02 15:10:35,2020-11-02 15:11:05,1,DF:DC:EF:28:D6:3E,12,12,20926.86028891095,-4914.9460011134615,23165.841950046637
13495,26895,1016,8193,-14340,14081,15617,8412,-29978,-6355,12,1,36527,2020-11-02 15:10:35,2020-11-02 15:11:05,1,DF:DC:EF:28:D6:3E,12,12,1519.1556156423317,-14109.786178851853,-24292.069286138296
13496,23311,11510,-22271,12285,-9215,-4607,20956,-13338,12845,12,1,36529,2020-11-02 15:10:35,2020-11-02 15:11:05,1,DF:DC:EF:28:D6:3E,12,12,20498.086496929056,-24959.76529900007,11345.432040396123
13497,4368,-23050,22785,-3075,-2817,-17153,-31268,-5914,-27348,12,1,36552,2020-11-02 15:10:35,2020-11-02 15:11:05,1,DF:DC:EF:28:D6:3E,12,12,11338.782496692429,30301.349930880795,-4774.762073550008
13498,-19441,-8714,-7166,29183,24575,-3074,10972,-13850,-14548,12,1,36578,2020-11-02 15:10:35,2020-11-02 15:11:05,1,DF:DC:EF:28:D6:3E,12,12,-6404.612930570635,-17170.5855093562,-13014.982115833061
13499,-20210,23799,4355,23552,-20738,14847,-11813,-23066,11821,12,1,36604,2020-11-02 15:10:35,2020-11-02 15:11:05,1,DF:DC:EF:28:D6:3E,12,12,7293.617813867708,-1653.6942751991892,30624.678944103314
13500,9995,-10250,-11006,-14848,-2307,-23807,30171,-16410,-19411,12,1,36629,2020-11-02 15:10:35,2020-11-02 15:11:05,1,DF:DC:EF:28:D6:3E,12,12,8255.696010600623,14774.356276156206,6297.3360245231215
13501,-1521,-18696,-7679,16897,22781,-18686,5083,13031,21806,12,1,36655,2020-11-02 15:10:35,2020-11-02 15:11:05,1,DF:DC:EF:28:D6:3E,12,12,8924.372273768811,17612.853201082173,4578.632944047368
13502,18196,8953,19202,-7167,5116,8448,11226,29927,-24785,12,1,36683,2020-11-02 15:10:35,2020-11-02 15:11:05,1,DF:DC:EF:28:D6:3E,12,12,16418.665332958004,-1690.6576496601438,22528.57151254754
13503,-12529,21240,-6399,-20990,-23554,13053,-17447,12263,-30672,12,1,36706,2020-11-02 15:10:35,2020-11-02 15:11:05,1,DF:DC:EF:28:D6:3E,12,12,23369.516226057603,1689.0825125307229,10003.66700894693
13504,-2035,-30985,-19967,27394,-21248,22526,4570,-9498,-25552,12,1,36732,2020-11-02 15:10:35,2020-11-02 15:11:05,1,DF:DC:EF:28:D6:3E,12,12,13185.924312133151,32136.563269572856,-12500.609595353217
13505,24846,19703,-8447,-30462,13313,-12801,-10534,-16922,11312,12,1,36757,2020-11-02 15:10:35,2020-11-02 15:11:05,1,DF:DC:EF:28:D6:3E,12,12,1824.3264025169046,9388.796981411759,31391.17803490199
13506,13071,8951,-16895,-17149,22784,-24065,-28197,-18714,-5841,12,1,36783,2020-11-02 15:10:35,2020-11-02 15:11:05,1,DF:DC:EF:28:D6:3E,12,12,-2514.2010596791097,16751.809591165045,-15794.56031210933
13507,32014,-1034,-29184,5637,-8449,-8962,17372,-26650,-5073,12,-1,36808,2020-11-02 15:10:35,2020-11-02 15:11:05,1,DF:DC:EF:28:D6:3E,12,12,829.3150071320633,5142.098556704025,-43017.92959978533
13508,8973,-1802,-10497,-19707,18688,-15618,5853,27622,-4049,12,-1,36834,2020-11-02 15:10:35,2020-11-02 15:11:05,1,DF:DC:EF:28:D6:3E,12,12,-425.3356482025538,7859.296172354102,11489.103327135163
13509,4363,-8202,-6146,2822,-5377,19967,4830,19174,-9937,12,-1,36860,2020-11-02 15:10:35,2020-11-02 15:11:05,1,DF:DC:EF:28:D6:3E,12,12,-9704.109824789984,-67.13491439150152,5468.787288941137
13510,-16630,15863,-26370,-1275,-4355,19456,-30498,19174,22832,12,-1,36885,2020-11-02 15:10:35,2020-11-02 15:11:05,1,DF:DC:EF:28:D6:3E,12,12,-21582.411108191758,-27011.170724178897,-5307.047754285013
13511,-7414,5880,21758,-17659,-26116,25089,25822,27622,31025,12,-1,36911,2020-11-02 15:10:35,2020-11-02 15:11:05,1,DF:DC:EF:28:D6:3E,12,12,17487.67100278313,-14616.921966135897,6593.8846770558575
13512,2828,-20232,-22019,7173,-29445,25858,-12835,-19226,1587,12,-1,36936,2020-11-02 15:10:35,2020-11-02 15:11:05,1,DF:DC:EF:28:D6:3E,12,12,-6688.97223306345,-11602.3372442529,-26885.148129328358
13513,-21746,30968,-22788,-9469,28667,-13054,-3364,7143,-18636,12,-1,36962,2020-11-02 15:10:35,2020-11-02 15:11:05,1,DF:DC:EF:28:D6:3E,12,12,34985.57856581545,-26293.971883828206,5986.21908950935
13514,14097,-30729,13820,-28927,-3331,-26110,19164,-31001,-8139,12,-1,36988,2020-11-02 15:10:35,2020-11-02 15:11:05,1,DF:DC:EF:28:D6:3E,12,12,16782.865125532622,26557.18236943731,-18629.0298398663
13515,21777,-30730,-31747,-5889,-17151,21250,27100,-7193,-13515,12,-1,37013,2020-11-02 15:10:35,2020-11-02 15:11:05,1,DF:DC:EF:28:D6:3E,12,12,6931.593096541532,24612.995261180025,42102.210386357474
13516,4368,-24330,30973,15105,-23806,7682,13277,15592,-1484,12,-1,37039,2020-11-02 15:10:35,2020-11-02 15:11:05,1,DF:DC:EF:28:D6:3E,12,12,-33654.525873429986,-18038.816667879866,10598.539260542044
13517,-20466,-10249,-6405,28930,-29697,257,-17187,30696,-18380,12,-1,37065,2020-11-02 15:10:35,2020-11-02 15:11:05,1,DF:DC:EF:28:D6:3E,12,12,16904.845398435187,3984.44738063183,-16225.706860595652
13518,-19186,32761,-19462,9986,-18437,-9728,17885,-27672,-22219,12,-1,37090,2020-11-02 15:10:35,2020-11-02 15:11:05,1,DF:DC:EF:28:D6:3E,12,12,-34504.11236383281,25068.317239377586,-1095.8383867722769
13519,29200,14586,6394,13056,30203,9985,6108,-18200,12599,12,-1,37116,2020-11-02 15:10:35,2020-11-02 15:11:05,1,DF:DC:EF:28:D6:3E,12,12,10679.873446065827,-29344.607065105505,-11450.282589114477
13520,5393,17914,3579,-16643,6398,5377,4827,-6424,8504,12,-1,37141,2020-11-02 15:10:35,2020-11-02 15:11:05,1,DF:DC:EF:28:D6:3E,12,12,-15126.938911902585,9596.701254756195,6471.794973771058
13521,-17903,14841,-15107,-2309,-16641,-8192,16090,3305,30520,12,-1,37167,2020-11-02 15:10:35,2020-11-02 15:11:05,1,DF:DC:EF:28:D6:3E,12,12,2171.7548193044586,19312.311939167223,19781.613371237625
13522,26127,15607,-16132,-9222,-19969,-8704,29913,8681,-29128,12,1,37193,2020-11-02 15:10:35,2020-11-02 15:11:05,1,DF:DC:EF:28:D6:3E,12,12,9928.452237315814,-5364.186303721326,-32543.683618642608
13523,8975,10999,-7428,-20742,-10751,24576,-40,11753,9784,12,1,37218,2020-11-02 15:10:35,2020-11-02 15:11:05,1,DF:DC:EF:28:D6:3E,12,12,-14922.667040324151,-2883.5548422814372,-5069.80570388832
13524,-9457,-18954,20480,-23814,28161,-7937,29400,12009,-13001,12,1,37244,2020-11-02 15:10:35,2020-11-02 15:11:05,1,DF:DC:EF:28:D6:3E,12,12,2254.970411167631,-29344.92399536701,-1381.9946276639766
13525,11022,1014,-13823,-25348,770,-19457,21976,6121,12599,12,1,37269,2020-11-02 15:10:35,2020-11-02 15:11:05,1,DF:DC:EF:28:D6:3E,12,12,-8181.35373725486,15601.306681187138,-1803.5215178787057
13526,-1011,-267,-9216,-5635,1536,-29697,17112,1257,-9418,12,1,37295,2020-11-02 15:10:35,2020-11-02 15:11:05,1,DF:DC:EF:28:D6:3E,12,12,6598.849673938414,5438.540101238202,3592.4268326560077
13527,27918,-3594,-11777,25086,-24833,15359,-9257,-3864,2103,12,1,37321,2020-11-02 15:10:35,2020-11-02 15:11:05,1,DF:DC:EF:28:D6:3E,12,12,27918.0,-11851.850275372692,-3338.8935368095017
13528,30732,23798,-11011,27134,-30465,10496,30423,-5400,14647,12,1,37346,2020-11-02 15:10:35,2020-11-02 15:11:05,1,DF:DC:EF:28:D6:3E,12,12,-9326.308591696472,29529.266652209026,-25943.88421256895
13529,-11762,-29192,29692,6397,28159,17664,-4138,489,27703,12,1,37372,2020-11-02 15:10:35,2020-11-02 15:11:05,1,DF:DC:EF:28:D6:3E,12,12,-14404.422174431238,27982.67553006241,29692.0
13530,18443,30711,16126,-9478,14079,-18945,-4651,4841,-11465,12,1,37397,2020-11-02 15:10:35,2020-11-02 15:11:05,1,DF:DC:EF:28:D6:3E,12,12,20250.437168804565,-29550.457940145337,16126.0
13531,29967,15862,-14585,-6917,27908,21249,-21547,8681,15927,12,1,37423,2020-11-02 15:10:35,2020-11-02 15:11:05,1,DF:DC:EF:28:D6:3E,12,12,5140.200597227251,31449.296192643924,-18624.351392937613
13532,28170,-29452,-12285,20738,-24573,32256,6615,233,-26827,12,-1,37449,2020-11-02 15:10:35,2020-11-02 15:11:05,1,DF:DC:EF:28:D6:3E,12,12,-14193.57905430428,24963.52444800497,-31420.617272152263
13533,-23282,12021,-17662,-764,19198,-32001,-10793,3305,32053,12,-1,37474,2020-11-02 15:10:35,2020-11-02 15:11:05,1,DF:DC:EF:28:D6:3E,12,12,-14627.625369237825,19952.248915948876,-19658.14203461881
13534,-6385,24309,20481,10502,-12292,11006,-553,-4888,22838,12,-1,37500,2020-11-02 15:10:35,2020-11-02 15:11:05,1,DF:DC:EF:28:D6:3E,12,12,2890.6158148665318,-24966.77885132248,20481.0
13535,-8178,15350,12286,-23034,767,-14849,32216,-10776,-2762,12,-1,37525,2020-11-02 15:10:35,2020-11-02 15:11:05,1,DF:DC:EF:28:D6:3E,12,12,5034.841159539533,16135.558185371841,-12951.529505996052
13536,-29425,9207,-20226,22533,-15873,-2,8665,-13592,16951,12,-1,37551,2020-11-02 15:10:35,2020-11-02 15:11:05,1,DF:DC:EF:28:D6:3E,12,12,-26298.58981071505,4611.556322517922,-25432.425606929428
13537,-27892,-18697,-18948,26372,-22529,-1538,-13607,-24600,22583,12,-1,37577,2020-11-02 15:10:35,2020-11-02 15:11:05,1,DF:DC:EF:28:D6:3E,12,12,-35361.1010550036,14584.786405998793,4841.974253258247
13538,-4342,-2570,32765,-22014,16384,-17663,7386,-18200,-29385,12,-1,37602,2020-11-02 15:10:35,2020-11-02 15:11:05,1,DF:DC:EF:28:D6:3E,12,12,28367.09224947306,-6195.680897027412,-15997.646843585937
13539,6671,-3594,12799,14083,19201,4098,-11302,2793,15159,12,-1,37628,2020-11-02 15:10:35,2020-11-02 15:11:05,1,DF:DC:EF:28:D6:3E,12,12,-10803.521120820327,2392.1203314010627,9939.575932205902
13540,-26866,4343,-10243,14596,-8193,21248,-27173,11497,2103,12,-1,37679,2020-11-02 15:10:35,2020-11-02 15:11:05,1,DF:DC:EF:28:D6:3E,12,12,20256.866789212447,4913.153714028442,20275.179961382106
13541,4623,4855,-19461,20227,29949,-14337,-18469,11753,-29129,12,-1,37681,2020-11-02 15:10:35,2020-11-02 15:11:05,1,DF:DC:EF:28:D6:3E,12,12,11489.478754791337,12214.493897695636,-11936.150625991384
13542,6929,17655,-25349,20225,25343,-19713,-28709,10217,6712,12,-1,37705,2020-11-02 15:10:35,2020-11-02 15:11:05,1,DF:DC:EF:28:D6:3E,12,12,-18217.71889765848,25885.7778490332,-568.410341566374
