id,accelerationx,accelerationy,accelerationz,angularvelocityx,angularvelocityy,angularvelocityz,pitch,roll,yaw,mdlcircle_id,hallsensor,timestamp,starttime,endtime,train_mode,blemac,training_id,training_handle_id,accelerationWorldx,accelerationWorldy,accelerationWorldz
15290,22286,26376,13049,12545,5887,-19458,-14289,7149,19699,14,1,25364,2020-11-02 15:12:46,2020-11-02 15:13:16,2,DF:DC:EF:28:D6:3E,14,14,12457.12286242099,-2673.840912651729,-34645.43603080178
15291,11530,-29942,16122,17153,-15618,-16386,304,23789,16883,14,1,25388,2020-11-02 15:12:46,2020-11-02 15:13:16,2,DF:DC:EF:28:D6:3E,14,14,35439.956970519925,-5487.15376296744,-1812.1096846627406
15292,3597,-1272,15351,11521,28414,-1538,20016,-23315,7155,14,1,25415,2020-11-02 15:12:46,2020-11-02 15:13:16,2,DF:DC:EF:28:D6:3E,14,14,-6794.706864028088,-12260.935021851772,7328.780595832995
15293,-2037,-24819,19961,-3584,-1282,26367,-27088,-8723,-3598,14,1,25439,2020-11-02 15:12:46,2020-11-02 15:13:16,2,DF:DC:EF:28:D6:3E,14,14,25683.81394373269,1116.2464173724293,-18912.148112771996
15294,-15351,19976,27381,-15616,-1025,-9217,-17616,-2579,-4878,14,1,25465,2020-11-02 15:12:46,2020-11-02 15:13:16,2,DF:DC:EF:28:D6:3E,14,14,-15351.0,-15912.083171403272,-29925.997830420703
15295,-30195,-14069,26104,22272,-5889,16128,-11472,-3091,-5902,14,1,25490,2020-11-02 15:12:46,2020-11-02 15:13:16,2,DF:DC:EF:28:D6:3E,14,14,8585.598582065504,41396.33967189089,1929.80847678391
15296,23820,-2036,19451,6912,20223,24832,-3536,-2323,-14862,14,1,25516,2020-11-02 15:12:46,2020-11-02 15:13:16,2,DF:DC:EF:28:D6:3E,14,14,-11763.94720757002,-20812.189747777757,19451.0
15297,14602,-25593,-11019,25088,6399,-3329,6449,1006,-25102,14,1,25541,2020-11-02 15:12:46,2020-11-02 15:13:16,2,DF:DC:EF:28:D6:3E,14,14,-6096.672325091502,14028.691887291394,-27489.358022549524
15298,24077,-3576,-20746,16896,-28673,22783,13617,8686,-29454,14,1,25567,2020-11-02 15:12:46,2020-11-02 15:13:16,2,DF:DC:EF:28:D6:3E,14,14,-14541.728521072253,22590.282943552305,-17352.33324800108
15299,14349,15885,-9480,-21761,4352,27391,10545,15854,-26126,14,1,25593,2020-11-02 15:12:46,2020-11-02 15:13:16,2,DF:DC:EF:28:D6:3E,14,14,-13529.728500471378,-9669.664895295524,-16478.5149062718
15300,-29943,10,-1031,32255,22784,-6657,1841,17134,-20750,14,1,25618,2020-11-02 15:12:46,2020-11-02 15:13:16,2,DF:DC:EF:28:D6:3E,14,14,-11406.46942562963,-1636.0538719650267,27656.14023992149
15301,3850,-30970,8438,-21761,22784,-18177,-6352,16110,-14606,14,1,25644,2020-11-02 15:12:46,2020-11-02 15:13:16,2,DF:DC:EF:28:D6:3E,14,14,-19678.801199382393,-19851.293642477212,-16242.972882921707
15302,5131,-29942,10232,-28673,27904,-30721,-15568,18414,-7182,14,1,25670,2020-11-02 15:12:46,2020-11-02 15:13:16,2,DF:DC:EF:28:D6:3E,14,14,17320.659952545917,13306.19356108757,-23462.401853244774
15303,30986,8,-12295,-11777,29184,3072,-24016,18414,-14,14,1,25695,2020-11-02 15:12:46,2020-11-02 15:13:16,2,DF:DC:EF:28:D6:3E,14,14,-29540.93533638471,9299.657530844068,-12334.860933977006
15304,-4853,7179,250,17152,-3073,-10240,-22224,14062,-1550,14,1,25721,2020-11-02 15:12:46,2020-11-02 15:13:16,2,DF:DC:EF:28:D6:3E,14,14,873.3014781359659,-7071.876131079631,4937.414557736845
15305,-28407,14345,-5640,-32000,-13826,-24319,-4560,8174,-20750,14,1,25746,2020-11-02 15:12:46,2020-11-02 15:13:16,2,DF:DC:EF:28:D6:3E,14,14,21917.537057869224,-11365.739672148535,20856.361260341604
15306,6155,-30967,-11785,-27392,16894,7170,25649,1518,11250,14,1,25772,2020-11-02 15:12:46,2020-11-02 15:13:16,2,DF:DC:EF:28:D6:3E,14,14,-6201.964744863071,11296.807643025963,31139.09294407828
15307,-3827,-6392,15095,26112,3327,5634,-10703,-8211,-22287,14,1,25797,2020-11-02 15:12:46,2020-11-02 15:13:16,2,DF:DC:EF:28:D6:3E,14,14,14627.130105464657,-7256.834251633374,4092.4368684355027
15308,-16883,-2295,22263,-769,-6657,1,5426,-17427,24305,14,-1,25823,2020-11-02 15:12:46,2020-11-02 15:13:16,2,DF:DC:EF:28:D6:3E,14,14,-10608.301578005703,-8771.429755007226,-24422.732047890455
15309,-27636,-12535,-19209,-31489,9472,1024,4658,-19731,21233,14,-1,25849,2020-11-02 15:12:46,2020-11-02 15:13:16,2,DF:DC:EF:28:D6:3E,14,14,-28000.339872355904,16653.063780865898,15116.773324455466
15310,-7158,10,-6921,16639,-15873,19968,-1231,-19731,20465,14,-1,25874,2020-11-02 15:12:46,2020-11-02 15:13:16,2,DF:DC:EF:28:D6:3E,14,14,-7983.777987519641,1127.9588661343596,5841.601051279154
15311,16906,10250,-30984,-14594,30207,14593,-3023,-22547,7921,14,-1,25900,2020-11-02 15:12:46,2020-11-02 15:13:16,2,DF:DC:EF:28:D6:3E,14,14,-15305.564851701009,-4866.143824016227,33059.70237092832
15312,15882,-22263,-12552,-9474,22783,-13823,-207,-30227,-13072,14,-1,25925,2020-11-02 15:12:46,2020-11-02 15:13:16,2,DF:DC:EF:28:D6:3E,14,14,-17109.56416304126,16112.863882549507,-18790.16308213438
15313,13579,3593,-21513,1023,10495,27394,11570,23277,23024,14,-1,25951,2020-11-02 15:12:46,2020-11-02 15:13:16,2,DF:DC:EF:28:D6:3E,14,14,25519.216675158194,1907.013024665469,2289.310072944323
15314,-246,2313,15861,-23298,-10498,-7422,27954,9197,-13841,14,-1,25977,2020-11-02 15:12:46,2020-11-02 15:13:16,2,DF:DC:EF:28:D6:3E,14,14,13838.848871012076,5026.742490645561,-6340.341304537659
15315,-23542,4618,-12305,5885,22781,6659,-17358,-20,-2578,14,-1,26002,2020-11-02 15:12:46,2020-11-02 15:13:16,2,DF:DC:EF:28:D6:3E,14,14,-23542.0,-6308.267048477523,11530.165473448014
15316,-13816,9739,22509,1017,8701,1796,-12238,-3860,-10003,14,-1,26028,2020-11-02 15:12:46,2020-11-02 15:13:16,2,DF:DC:EF:28:D6:3E,14,14,6347.527115233945,20494.56707156518,-18222.696783694944
15317,-24311,28425,6899,-28683,-9473,23814,15922,32236,-15892,14,-1,26053,2020-11-02 15:12:46,2020-11-02 15:13:16,2,DF:DC:EF:28:D6:3E,14,14,-4421.9423573651875,33837.46969275367,-16795.04741226164
15318,31756,31238,-17415,12789,-20480,-25849,23345,-27669,-14101,14,-1,26079,2020-11-02 15:12:46,2020-11-02 15:13:16,2,DF:DC:EF:28:D6:3E,14,14,-18052.303134977537,41291.48797089615,-16020.792042599463
15319,24335,17156,15614,-18186,-8194,31751,-12752,-24086,-27670,14,-1,26105,2020-11-02 15:12:46,2020-11-02 15:13:16,2,DF:DC:EF:28:D6:3E,14,14,15986.580692819547,-29308.079269724978,-3972.8181775014828
15320,8209,18947,16383,12281,-6916,-15611,-8144,-791,2793,14,-1,26130,2020-11-02 15:12:46,2020-11-02 15:13:16,2,DF:DC:EF:28:D6:3E,14,14,8209.0,24022.926933391413,-7091.5780721174815
15321,8977,-26621,31486,-27909,-18436,-3581,20273,-22039,-30233,14,-1,26156,2020-11-02 15:12:46,2020-11-02 15:13:16,2,DF:DC:EF:28:D6:3E,14,14,-22134.04717763004,2419.816874561478,35844.95512386694
15322,-1521,12805,7421,-30979,-29699,-15614,-13519,32745,25062,14,-1,26182,2020-11-02 15:12:46,2020-11-02 15:13:16,2,DF:DC:EF:28:D6:3E,14,14,-7877.781357334628,-11292.178666803615,-5637.372512351501
15323,-22001,32007,9981,27134,-6147,-21502,19250,24041,28901,14,1,26207,2020-11-02 15:12:46,2020-11-02 15:13:16,2,DF:DC:EF:28:D6:3E,14,14,-26504.920990753824,-27070.920611196823,-13144.079714311545
15324,-2799,22538,-26884,15103,-25859,-27646,-4046,17641,31204,14,1,26233,2020-11-02 15:12:46,2020-11-02 15:13:16,2,DF:DC:EF:28:D6:3E,14,14,21322.08255770001,7374.044043389533,27009.95318116594
15325,20758,3853,28411,18687,-31491,15362,-23501,15849,-31261,14,1,26258,2020-11-02 15:12:46,2020-11-02 15:13:16,2,DF:DC:EF:28:D6:3E,14,14,16545.114177408715,-28747.197798938643,-12360.538401105598
15326,4634,12812,4605,-21763,29695,21760,-11981,15081,483,14,1,26284,2020-11-02 15:12:46,2020-11-02 15:13:16,2,DF:DC:EF:28:D6:3E,14,14,-14264.203221258262,-1144.3586193097244,1431.8780719939127
15327,-7141,-11257,-20481,-11524,-15616,-13315,1843,19945,24803,14,1,26310,2020-11-02 15:12:46,2020-11-02 15:13:16,2,DF:DC:EF:28:D6:3E,14,14,-11251.070716170805,4195.193710439576,21283.774300429235
15328,-6371,771,19969,-20995,32258,-27909,-20175,30953,28644,14,1,26335,2020-11-02 15:12:46,2020-11-02 15:13:16,2,DF:DC:EF:28:D6:3E,14,14,-9723.097243434517,-14401.12804831544,-11747.933176977913
15329,20252,7424,-12542,-25601,-507,-27401,-20177,-11287,-27930,14,1,26361,2020-11-02 15:12:46,2020-11-02 15:13:16,2,DF:DC:EF:28:D6:3E,14,14,6002.556841205973,7002.105266703442,23184.065156958462
15330,-7916,18431,-10492,-24830,-10232,-19981,7469,-25622,-5655,14,1,26386,2020-11-02 15:12:46,2020-11-02 15:13:16,2,DF:DC:EF:28:D6:3E,14,14,12621.406442713356,18787.025372060132,-441.200722350447
15331,268,31486,20230,7686,17674,14578,-9686,-11029,-25619,14,1,26412,2020-11-02 15:12:46,2020-11-02 15:13:16,2,DF:DC:EF:28:D6:3E,14,14,-34413.03443233314,-12225.386802004788,-8183.880418262536
15332,-7167,31484,24072,-17142,-14327,11508,-22487,11501,-6160,14,1,26439,2020-11-02 15:12:46,2020-11-02 15:13:16,2,DF:DC:EF:28:D6:3E,14,14,-35648.717542396145,4118.950640070827,18283.120964625203
15333,20987,1017,-31224,-4337,-2812,17657,6954,8430,8179,14,1,26463,2020-11-02 15:12:46,2020-11-02 15:13:16,2,DF:DC:EF:28:D6:3E,14,14,-23725.626819820412,12695.024313156839,-26312.68940444848
15334,-3077,2038,32258,-3309,27134,26109,-27604,-24338,-25869,14,1,26489,2020-11-02 15:12:46,2020-11-02 15:13:16,2,DF:DC:EF:28:D6:3E,14,14,27836.728904443986,7157.041769471787,15102.755179454143
15335,-4873,-28427,27128,-32234,19450,-259,20016,13551,243,14,1,26514,2020-11-02 15:12:46,2020-11-02 15:13:16,2,DF:DC:EF:28:D6:3E,14,14,-26040.432116346128,24314.213122212786,17276.68305669768
15336,-31504,15609,11758,-31723,-14341,23042,28980,-11281,4594,14,1,26540,2020-11-02 15:12:46,2020-11-02 15:13:16,2,DF:DC:EF:28:D6:3E,14,14,-7233.231358880857,15702.714674384682,-32794.79496755188
15337,-22541,-17418,-11022,-14320,-32509,-21744,-31944,-10514,21232,14,1,26566,2020-11-02 15:12:46,2020-11-02 15:13:16,2,DF:DC:EF:28:D6:3E,14,14,-5255.815512405313,-4936.13304974278,-29681.288429156793
15338,-16642,-17681,1525,13841,11268,10779,21310,-25620,-789,14,1,26591,2020-11-02 15:12:46,2020-11-02 15:13:16,2,DF:DC:EF:28:D6:3E,14,14,7847.032886478436,17288.84932010118,15212.472319296521
15339,-14843,-18962,240,-16109,-17661,11803,-8007,23275,21221,14,1,26617,2020-11-02 15:12:46,2020-11-02 15:13:16,2,DF:DC:EF:28:D6:3E,14,14,3864.1943312951394,9593.9556965893,-21747.49891968886
15340,-21502,9969,-1556,9491,-2559,-9447,15810,-17173,-23842,14,1,26642,2020-11-02 15:12:46,2020-11-02 15:13:16,2,DF:DC:EF:28:D6:3E,14,14,1992.6501662042967,1875.117204875584,-23593.46057243629
15341,4347,-3347,-24348,-16626,-12293,22300,-15416,12526,30681,14,1,26668,2020-11-02 15:12:46,2020-11-02 15:13:16,2,DF:DC:EF:28:D6:3E,14,14,-17009.21780866239,-15638.948947055185,-9435.767449915445
15342,12539,32485,16609,28679,-3595,-7903,-29236,-25102,-43,14,-1,26694,2020-11-02 15:12:46,2020-11-02 15:13:16,2,DF:DC:EF:28:D6:3E,14,14,18944.413952363302,-6712.007183107162,-32930.514216686934
15343,-22787,-29722,29148,16132,-28938,9762,25550,-9481,-21037,14,-1,26719,2020-11-02 15:12:46,2020-11-02 15:13:16,2,DF:DC:EF:28:D6:3E,14,14,20910.0434445918,-38925.59738123317,-17315.26807934016
15344,7415,20448,-28968,1025,19456,-22492,20687,-22276,1489,14,-1,26745,2020-11-02 15:12:46,2020-11-02 15:13:16,2,DF:DC:EF:28:D6:3E,14,14,-11795.067427492204,-16155.402177007676,-30201.4456256658
15345,-1797,-25900,6879,-26371,-19702,24619,16335,20481,-26164,14,-1,26770,2020-11-02 15:12:46,2020-11-02 15:13:16,2,DF:DC:EF:28:D6:3E,14,14,-2149.533942517224,-4431.120144895216,26402.737132567716
15346,-18171,30933,24037,-10247,4879,27687,-21811,4869,-1338,14,-1,26796,2020-11-02 15:12:46,2020-11-02 15:13:16,2,DF:DC:EF:28:D6:3E,14,14,-18171.0,-27231.33626360655,-28161.71485010078
15347,-30712,21464,15845,-25095,20499,-15074,13259,7943,26305,14,-1,26822,2020-11-02 15:12:46,2020-11-02 15:13:16,2,DF:DC:EF:28:D6:3E,14,14,-13925.46548784736,19584.32085860521,32825.75288480026
15348,32264,-3621,999,26361,24857,16151,-32056,-2042,-13381,14,-1,26847,2020-11-02 15:12:46,2020-11-02 15:13:16,2,DF:DC:EF:28:D6:3E,14,14,-15231.613424841384,-28511.4765454113,-3188.886275277461
15349,-16631,31458,-18709,-12809,23322,-12275,10182,5893,-15805,14,-1,26873,2020-11-02 15:12:46,2020-11-02 15:13:16,2,DF:DC:EF:28:D6:3E,14,14,27779.97637295481,-17973.582646032002,22835.188757361517
15350,3335,11490,27883,32245,16920,17926,18628,20482,-23232,14,-1,26898,2020-11-02 15:12:46,2020-11-02 15:13:16,2,DF:DC:EF:28:D6:3E,14,14,16141.310635885275,4733.586782054164,25251.83678730359
15351,-30713,-20512,-25874,-2573,-1262,9217,-29502,-24833,-8386,14,-1,26924,2020-11-02 15:12:46,2020-11-02 15:13:16,2,DF:DC:EF:28:D6:3E,14,14,15784.581762549773,10569.009815206044,40897.88991020758
15352,1035,32739,-8971,7158,-7151,29945,-576,-13316,22078,14,-1,26950,2020-11-02 15:12:46,2020-11-02 15:13:16,2,DF:DC:EF:28:D6:3E,14,14,-12269.399255965338,-31320.987163625832,4674.376107428995
15353,29446,-16412,18165,21500,-30703,26609,-321,-25095,15423,14,1,26975,2020-11-02 15:12:46,2020-11-02 15:13:16,2,DF:DC:EF:28:D6:3E,14,14,17212.144008180345,1828.7817577157748,-34158.242649824766
15354,-32507,-2585,-8971,-30465,31249,493,13503,17910,9537,14,1,27001,2020-11-02 15:12:46,2020-11-02 15:13:16,2,DF:DC:EF:28:D6:3E,14,14,9723.927077413511,32232.787262634956,3218.5062490015744
15355,-24573,-31511,18169,-6398,23054,11753,8126,15859,6468,14,1,27026,2020-11-02 15:12:46,2020-11-02 15:13:16,2,DF:DC:EF:28:D6:3E,14,14,24512.47537882417,-21631.622443861066,29293.334945833416
15356,19204,-7445,-18434,10248,14092,18406,-20548,-20240,-28741,14,1,27052,2020-11-02 15:12:46,2020-11-02 15:13:16,2,DF:DC:EF:28:D6:3E,14,14,-10738.720734340339,-19489.845195066737,-16396.945089320234
15357,5890,9963,6143,25361,7177,26339,22203,-25362,-11328,14,1,27078,2020-11-02 15:12:46,2020-11-02 15:13:16,2,DF:DC:EF:28:D6:3E,14,14,-13021.131335180733,419.5961266928539,-1401.4263599771348
15358,-4612,-27415,-6915,-7146,28930,23264,-583,-25363,21703,14,1,27103,2020-11-02 15:12:46,2020-11-02 15:13:16,2,DF:DC:EF:28:D6:3E,14,14,6065.286400157183,26827.54346676981,8010.318746632041
15359,-30470,-22037,-17157,-29929,-15359,6368,4421,31469,28110,14,1,27129,2020-11-02 15:12:46,2020-11-02 15:13:16,2,DF:DC:EF:28:D6:3E,14,14,-21782.009948009818,8494.415521394021,-34085.2147649784
15360,-27146,2032,11772,-13543,28161,-27932,7492,-25619,-2092,14,1,27154,2020-11-02 15:12:46,2020-11-02 15:13:16,2,DF:DC:EF:28:D6:3E,14,14,23851.438802167155,-8807.902147634497,15269.055335028772
15361,25587,9972,761,-20454,19969,-32018,-17084,-15123,-15143,14,1,27180,2020-11-02 15:12:46,2020-11-02 15:13:16,2,DF:DC:EF:28:D6:3E,14,14,-2264.0891324379736,3362.059655703824,27171.399104055443
15362,-16141,-5642,-17675,3099,-4351,19450,-23366,-19987,-1829,14,1,27206,2020-11-02 15:12:46,2020-11-02 15:13:16,2,DF:DC:EF:28:D6:3E,14,14,14951.653580213744,17064.341413480128,-9488.202007834177
15363,-3854,16888,25329,3097,-30207,25604,-10050,-31507,-16165,14,1,27231,2020-11-02 15:12:46,2020-11-02 15:13:16,2,DF:DC:EF:28:D6:3E,14,14,28342.043284016196,-11214.543705977818,3546.6453098196675
15364,-20495,-26121,2797,-30187,-29696,6158,-2621,5358,-28199,14,1,27257,2020-11-02 15:12:46,2020-11-02 15:13:16,2,DF:DC:EF:28:D6:3E,14,14,33164.86398953812,1563.157879242417,2797.0
15365,-20753,-29196,-17685,-25839,-11008,-30184,23753,-8465,-3627,14,1,27283,2020-11-02 15:12:46,2020-11-02 15:13:16,2,DF:DC:EF:28:D6:3E,14,14,-39532.84637242516,5699.727025213302,720.9851123871395
15366,4592,-23313,-8217,3086,-1025,5410,9678,25331,-4911,14,1,27308,2020-11-02 15:12:46,2020-11-02 15:13:16,2,DF:DC:EF:28:D6:3E,14,14,15204.773123809024,-5681.700574537457,19199.861323321988
15367,4852,-17173,22499,-30200,-21762,15910,13265,25080,-24882,14,1,27334,2020-11-02 15:12:46,2020-11-02 15:13:16,2,DF:DC:EF:28:D6:3E,14,14,-208.8047771015208,20607.28006596758,19998.881039894077
15368,-533,19169,-17957,17409,-8449,-30170,22738,-16643,-309,14,1,27359,2020-11-02 15:12:46,2020-11-02 15:13:16,2,DF:DC:EF:28:D6:3E,14,14,-18402.809807301954,-16443.0741826029,-9008.351770534324
15369,29419,-27189,-12065,20729,-6392,-22740,-29231,14339,23240,14,1,27410,2020-11-02 15:12:46,2020-11-02 15:13:16,2,DF:DC:EF:28:D6:3E,14,14,28451.5394243324,27041.135649855347,-14476.546347516083
15370,-10758,-21566,-31767,28920,2062,9777,-7474,25096,-19006,14,1,27412,2020-11-02 15:12:46,2020-11-02 15:13:16,2,DF:DC:EF:28:D6:3E,14,14,-11641.382809418214,37111.7320515206,-8784.46124817684
15371,21264,-9507,-30223,-8703,11541,-8410,29131,-24821,-26693,14,1,27436,2020-11-02 15:12:46,2020-11-02 15:13:16,2,DF:DC:EF:28:D6:3E,14,14,32790.49978012553,10498.706749838766,-16447.81914876491
15372,9993,2796,-8985,31240,19483,-3307,14537,-31989,-24767,14,1,27463,2020-11-02 15:12:46,2020-11-02 15:13:16,2,DF:DC:EF:28:D6:3E,14,14,-11092.567037411794,2124.0803764081666,-7800.713369627365
15373,-8959,-16924,1509,-28671,2330,8976,-26937,-16887,22588,14,1,27487,2020-11-02 15:12:46,2020-11-02 15:13:16,2,DF:DC:EF:28:D6:3E,14,14,-17508.647140087418,-7524.733040028419,-2405.869073788793
15374,18440,28637,-23835,1272,11030,14088,-29499,-25593,-28872,14,-1,27513,2020-11-02 15:12:46,2020-11-02 15:13:16,2,DF:DC:EF:28:D6:3E,14,14,-28682.01684045591,12251.586835308866,-27485.616674557074
15375,-14584,-2340,20717,24821,-4333,-8712,-22333,-19708,12087,14,-1,27539,2020-11-02 15:12:46,2020-11-02 15:13:16,2,DF:DC:EF:28:D6:3E,14,14,-11958.289825807386,13537.232592137934,17919.41358382997
15376,27903,-5668,28137,8695,-20203,4846,29634,-10240,-2761,14,-1,27564,2020-11-02 15:12:46,2020-11-02 15:13:16,2,DF:DC:EF:28:D6:3E,14,14,3786.3876579160897,25373.45504899116,30728.577080314113
15377,-516,18911,21741,-25351,-23020,-8726,22721,-15364,-22215,14,-1,27590,2020-11-02 15:12:46,2020-11-02 15:13:16,2,DF:DC:EF:28:D6:3E,14,14,-20260.52698814209,19122.03630995511,7377.128948549322
15378,-14083,-7965,-6158,-13314,28949,-5912,26816,-21000,-5829,14,-1,27641,2020-11-02 15:12:46,2020-11-02 15:13:16,2,DF:DC:EF:28:D6:3E,14,14,7225.752039083829,-10243.115659742802,-11939.856240793171
15379,-31235,-29721,-19209,-26617,-29932,-28185,960,-23308,-19906,14,-1,27643,2020-11-02 15:12:46,2020-11-02 15:13:16,2,DF:DC:EF:28:D6:3E,14,14,-10014.531617667495,28593.902796844926,36194.56625411226
15380,29692,18922,-8455,-25328,-495,25063,19392,-12304,-2495,14,-1,27667,2020-11-02 15:12:46,2020-11-02 15:13:16,2,DF:DC:EF:28:D6:3E,14,14,-22395.47500932244,-17539.468352527452,22404.323734884347
15381,29690,24046,-2828,-9196,-29427,18922,-2112,-17427,32581,14,-1,27692,2020-11-02 15:12:46,2020-11-02 15:13:16,2,DF:DC:EF:28:D6:3E,14,14,14833.85131731258,34623.7898049278,6989.551819683516
15382,-4354,21234,-22028,-31213,2059,27372,27585,4843,26812,14,-1,27718,2020-11-02 15:12:46,2020-11-02 15:13:16,2,DF:DC:EF:28:D6:3E,14,14,-20274.589551528345,23264.135933934595,-1671.4825049849042
15383,14079,-7182,-8456,-17649,-5628,-12054,22208,1257,-5696,14,-1,27744,2020-11-02 15:12:46,2020-11-02 15:13:16,2,DF:DC:EF:28:D6:3E,14,14,14079.0,8303.436898738635,7357.8526533674
15384,-3587,-9998,-3588,-15861,-6663,26344,-24388,-31000,-26937,14,-1,27769,2020-11-02 15:12:46,2020-11-02 15:13:16,2,DF:DC:EF:28:D6:3E,14,14,-3063.1044848615743,-10605.735198437114,1958.5935809792122
15385,-23556,19698,12801,-1783,-13838,-6169,-3260,6890,-29746,14,-1,27795,2020-11-02 15:12:46,2020-11-02 15:13:16,2,DF:DC:EF:28:D6:3E,14,14,-19443.645956954722,3712.2181167741173,26738.100335552866
15386,22266,-25613,-23805,-10994,2034,17129,-25534,-21780,-7469,14,-1,27820,2020-11-02 15:12:46,2020-11-02 15:13:16,2,DF:DC:EF:28:D6:3E,14,14,17628.98479539524,36874.1314790955,6927.90536497878
15387,-6153,-6414,-15617,17433,-12554,-17429,-8382,1263,984,14,-1,27871,2020-11-02 15:12:46,2020-11-02 15:13:16,2,DF:DC:EF:28:D6:3E,14,14,-6153.0,-16606.75135958317,-3040.706214184891
15388,24309,-27662,-5639,26400,-32516,-11792,19525,10992,24027,14,-1,27873,2020-11-02 15:12:46,2020-11-02 15:13:16,2,DF:DC:EF:28:D6:3E,14,14,11818.884638542917,-29429.4722172759,-19548.201372847583
15389,-29966,4597,-2064,29473,-21509,6901,18364,-14352,-12835,14,-1,27897,2020-11-02 15:12:46,2020-11-02 15:13:16,2,DF:DC:EF:28:D6:3E,14,14,-8044.129674351954,-7340.6363702048775,-28368.30443404462
15390,2794,-6917,8937,-26342,29179,17919,7360,-30991,991,14,-1,27923,2020-11-02 15:12:46,2020-11-02 15:13:16,2,DF:DC:EF:28:D6:3E,14,14,-158.48314896745978,-11257.497240918094,-2960.562946842182
15391,-5146,17914,3564,-20975,24315,27150,-6717,-9230,-5923,14,-1,27948,2020-11-02 15:12:46,2020-11-02 15:13:16,2,DF:DC:EF:28:D6:3E,14,14,15143.83322345082,-120.52171241777751,-11434.360402626075
15392,26603,16370,10734,28942,-31238,23065,-21817,29429,9435,14,-1,27974,2020-11-02 15:12:46,2020-11-02 15:13:16,2,DF:DC:EF:28:D6:3E,14,14,23142.274973077278,8850.893023252942,21840.605915619955
15393,12522,-280,31466,16652,6903,287,-14134,21753,16088,14,-1,27999,2020-11-02 15:12:46,2020-11-02 15:13:16,2,DF:DC:EF:28:D6:3E,14,14,-20209.84308892197,-24875.15155783215,10944.27326486478
15394,32487,-17962,-16932,26633,-19719,29734,-5940,20990,31189,14,-1,28025,2020-11-02 15:12:46,2020-11-02 15:13:16,2,DF:DC:EF:28:D6:3E,14,14,-31853.107723281293,23238.98575264302,-10490.96309008341
15395,-5134,16078,-21032,-6648,23816,-26578,974,25859,1233,14,-1,28051,2020-11-02 15:12:46,2020-11-02 15:13:16,2,DF:DC:EF:28:D6:3E,14,14,19272.87643083013,16078.0,9862.008623092583
15396,-12283,-32556,1759,-10488,-20968,13359,-21043,23815,1994,14,-1,28076,2020-11-02 15:12:46,2020-11-02 15:13:16,2,DF:DC:EF:28:D6:3E,14,14,5869.618078500732,32478.425813501406,-11160.588975919807
15397,7694,-22558,-28705,31238,28697,11041,5580,9481,-30270,14,-1,28102,2020-11-02 15:12:46,2020-11-02 15:13:16,2,DF:DC:EF:28:D6:3E,14,14,15958.924995125764,-25574.785066252956,-21983.655447056906
15398,15369,-26139,-24870,24318,18711,14611,11210,-1272,-5956,14,1,28127,2020-11-02 15:12:46,2020-11-02 15:13:16,2,DF:DC:EF:28:D6:3E,14,14,14029.629331452905,-9256.122982682335,-35432.52841883424
15399,15624,-5407,992,29169,1814,5899,10695,31495,23365,14,1,28153,2020-11-02 15:12:46,2020-11-02 15:13:16,2,DF:DC:EF:28:D6:3E,14,14,-8255.436932982811,-3811.834777318273,13843.654346882919
15400,-251,-34,25577,25835,-21230,21760,-17725,4613,10563,14,1,28179,2020-11-02 15:12:46,2020-11-02 15:13:16,2,DF:DC:EF:28:D6:3E,14,14,-3201.1672036803448,1757.158652303991,-25316.24000527556
15401,15616,-24607,12270,30190,-16366,19961,-11072,11778,-16318,14,1,28204,2020-11-02 15:12:46,2020-11-02 15:13:16,2,DF:DC:EF:28:D6:3E,14,14,-10340.41883749757,-15456.434651049596,-25575.206179871922
15402,5886,-284,-16145,15092,-14061,-6409,-10306,-2,7491,14,1,28230,2020-11-02 15:12:46,2020-11-02 15:13:16,2,DF:DC:EF:28:D6:3E,14,14,14741.184944975925,-2470.312410681344,-8484.202968555675
15403,5634,-25881,15860,8953,-21485,23797,-29251,-18181,-7357,14,1,28255,2020-11-02 15:12:46,2020-11-02 15:13:16,2,DF:DC:EF:28:D6:3E,14,14,-20439.49537159273,-9903.266487495628,20910.764185755754
15404,-20478,5098,4343,31999,14866,22769,-13124,-25352,29765,14,1,28281,2020-11-02 15:12:46,2020-11-02 15:13:16,2,DF:DC:EF:28:D6:3E,14,14,4166.258392176771,-7641.357452178697,19709.177666702628
15405,-2042,-25365,-3085,-19453,-29422,-8468,21948,32501,12731,14,1,28307,2020-11-02 15:12:46,2020-11-02 15:13:16,2,DF:DC:EF:28:D6:3E,14,14,-23197.987610088894,-10699.695561046765,-2107.154418422707
15406,3070,-15123,-16650,-9211,8720,-19992,26299,32498,-17730,14,1,28332,2020-11-02 15:12:46,2020-11-02 15:13:16,2,DF:DC:EF:28:D6:3E,14,14,19951.49881425889,5587.178449357105,9277.589182522874
15407,-11261,26351,-29194,11525,7950,-5401,-20039,10992,3779,14,1,28358,2020-11-02 15:12:46,2020-11-02 15:13:16,2,DF:DC:EF:28:D6:3E,14,14,15106.577415241538,-30207.1497932181,23082.339096534342
15408,2562,23793,-22790,19461,25097,-5916,-30909,-20498,30152,14,1,28383,2020-11-02 15:12:46,2020-11-02 15:13:16,2,DF:DC:EF:28:D6:3E,14,14,26054.159383193943,12758.460222332267,-15825.841670833563
15409,29951,22515,10493,23815,5381,-8732,25920,-30226,24526,14,-1,28409,2020-11-02 15:12:46,2020-11-02 15:13:16,2,DF:DC:EF:28:D6:3E,14,14,4298.028835823783,15342.330542574835,-35499.72558554224
15410,-11269,-524,-27904,-15348,14338,6375,20798,19183,-16941,14,-1,28435,2020-11-02 15:12:46,2020-11-02 15:13:16,2,DF:DC:EF:28:D6:3E,14,14,-2208.2476772991313,-15534.234880939039,-25684.807607991144
15411,15872,26868,15614,-27629,-32510,19942,-17603,19696,-27688,14,-1,28460,2020-11-02 15:12:46,2020-11-02 15:13:16,2,DF:DC:EF:28:D6:3E,14,14,30509.11450923537,1998.4844353922367,16816.860462757562
15412,31481,-16396,-2314,-2793,-12543,-10525,7998,-28175,-25123,14,-1,28487,2020-11-02 15:12:46,2020-11-02 15:13:16,2,DF:DC:EF:28:D6:3E,14,14,26124.44320339114,-19673.428526232547,-13989.512155039927
15413,-14865,-23815,12531,-12269,-23553,-22039,-4034,-8462,9698,14,-1,28512,2020-11-02 15:12:46,2020-11-02 15:13:16,2,DF:DC:EF:28:D6:3E,14,14,10002.939838060382,-28498.52054351775,-5737.937994335722
15414,-8211,-18180,-25609,14096,-10757,-23049,25664,5364,23524,14,-1,28537,2020-11-02 15:12:46,2020-11-02 15:13:16,2,DF:DC:EF:28:D6:3E,14,14,-307.2209501847319,11114.938265182787,30497.82885139437
15415,-9231,-31495,-20492,4372,-26371,-510,13635,-16140,26596,14,-1,28563,2020-11-02 15:12:46,2020-11-02 15:13:16,2,DF:DC:EF:28:D6:3E,14,14,9556.980950482508,-37493.092067890364,-24.744712797699776
15416,-4621,-26889,-21,-32491,-11520,17930,-30278,-9228,3043,14,-1,28588,2020-11-02 15:12:46,2020-11-02 15:13:16,2,DF:DC:EF:28:D6:3E,14,14,19205.196687624648,-7607.255095152765,-17823.088764490953
15417,-17165,-19212,30952,14610,-16641,-7665,-18242,11253,-21792,14,-1,28614,2020-11-02 15:12:46,2020-11-02 15:13:16,2,DF:DC:EF:28:D6:3E,14,14,35749.906768510955,-18528.07497615608,-647.3613525017518
15418,-17166,-9237,5093,-17393,3835,-26858,-28990,-17162,-21283,14,-1,28640,2020-11-02 15:12:46,2020-11-02 15:13:16,2,DF:DC:EF:28:D6:3E,14,14,-14804.11802944398,5469.568406773708,-12524.148067390237
15419,508,5090,-13346,21,-3329,7968,-15930,23289,-12583,14,-1,28665,2020-11-02 15:12:46,2020-11-02 15:13:16,2,DF:DC:EF:28:D6:3E,14,14,-12531.143807945911,6870.493262463672,-220.53842073475835
15420,9482,-1054,16085,26648,11533,-24798,-27957,-7685,-10540,14,-1,28691,2020-11-02 15:12:46,2020-11-02 15:13:16,2,DF:DC:EF:28:D6:3E,14,14,-1752.8251838543092,-18525.325763511668,1867.1835021274637
15421,3346,24296,-1077,6159,6935,-18405,15823,-25859,30671,14,-1,28716,2020-11-02 15:12:46,2020-11-02 15:13:16,2,DF:DC:EF:28:D6:3E,14,14,-4537.801100206537,-16850.968611382432,-17265.702390379847
15422,-11246,-27164,-22323,-3846,-20715,26131,-305,31742,-25654,14,-1,28742,2020-11-02 15:12:46,2020-11-02 15:13:16,2,DF:DC:EF:28:D6:3E,14,14,8651.00970926635,31541.490817051814,-17116.253358957256
15423,31764,24288,-24867,-29462,-24562,-7417,-23859,29438,21959,14,-1,28768,2020-11-02 15:12:46,2020-11-02 15:13:16,2,DF:DC:EF:28:D6:3E,14,14,23544.83338300435,-6329.702988237606,40284.01680626275
15424,5647,-26146,8681,25062,-24564,11775,714,16125,-20539,14,-1,28793,2020-11-02 15:12:46,2020-11-02 15:13:16,2,DF:DC:EF:28:D6:3E,14,14,-9177.875613193202,25102.026737403994,-8747.373257350368
15425,-26869,-15136,-28176,-15127,19726,-774,-27450,14843,-10044,14,-1,28819,2020-11-02 15:12:46,2020-11-02 15:13:16,2,DF:DC:EF:28:D6:3E,14,14,35730.19358110745,2130.8363125837327,21534.656632172315
15426,21002,-25885,-8716,-16402,22032,2296,-9789,-24072,-30012,14,-1,28844,2020-11-02 15:12:46,2020-11-02 15:13:16,2,DF:DC:EF:28:D6:3E,14,14,20215.184226743662,-6822.042268377754,-27053.50163966361
15427,-3577,6631,-5639,-8718,21264,3317,-27199,-18187,-5436,14,-1,28870,2020-11-02 15:12:46,2020-11-02 15:13:16,2,DF:DC:EF:28:D6:3E,14,14,2312.858804592146,-66.70157890520386,-9121.932144529037
15428,4100,-12821,-24577,-11019,-7667,21747,26815,-4622,4038,14,-1,28896,2020-11-02 15:12:46,2020-11-02 15:13:16,2,DF:DC:EF:28:D6:3E,14,14,4100.0,-10219.570064090583,25767.564062307938
15429,-28147,1517,19196,-21259,16141,-7440,-10820,-26128,1736,14,-1,28921,2020-11-02 15:12:46,2020-11-02 15:13:16,2,DF:DC:EF:28:D6:3E,14,14,25281.325270960988,16972.51562237435,15356.745097582621
15430,-10742,21229,22273,19446,-20472,31467,-25531,-16914,-27701,14,-1,28947,2020-11-02 15:12:46,2020-11-02 15:13:16,2,DF:DC:EF:28:D6:3E,14,14,21232.47982032461,22433.73640874237,-10395.037538295623
15431,16903,-27151,10757,-11527,-16891,15338,9537,8686,19152,14,-1,28972,2020-11-02 15:12:46,2020-11-02 15:13:16,2,DF:DC:EF:28:D6:3E,14,14,8497.03250855975,22750.02090566488,-23427.297034448722
15432,13059,-20235,-16889,-13312,-20731,-9492,-28355,12782,-8492,14,-1,28998,2020-11-02 15:12:46,2020-11-02 15:13:16,2,DF:DC:EF:28:D6:3E,14,14,16848.7747024037,21895.81802873142,-10095.690708432048
15433,-10747,4856,27139,23304,-11255,-10255,-21957,5614,-17704,14,1,29024,2020-11-02 15:12:46,2020-11-02 15:13:16,2,DF:DC:EF:28:D6:3E,14,14,10501.497826635854,2484.381579796157,-27552.685124378204
15434,-25081,-28424,-32255,-17139,-30967,17907,-4550,-25875,17628,14,1,29049,2020-11-02 15:12:46,2020-11-02 15:13:16,2,DF:DC:EF:28:D6:3E,14,14,11947.597500088666,27008.23999808829,40064.63837577395
15435,774,32503,-29954,24593,-23804,15344,-12486,-17683,-13857,14,1,29075,2020-11-02 15:12:46,2020-11-02 15:13:16,2,DF:DC:EF:28:D6:3E,14,14,-37750.5387498636,15467.252036084921,17027.834258861993
15436,-23810,10235,-8712,-21996,-14846,-22802,20027,-26898,20451,14,1,29100,2020-11-02 15:12:46,2020-11-02 15:13:16,2,DF:DC:EF:28:D6:3E,14,14,-21695.212710349333,12085.712089858322,11437.81350318971
15437,-14089,30461,-30216,27925,-16636,24307,24636,10223,32742,14,1,29126,2020-11-02 15:12:46,2020-11-02 15:13:16,2,DF:DC:EF:28:D6:3E,14,14,-43968.64171760267,-2170.132988893194,10071.155163118441
15438,-7433,25339,-26376,10261,-6398,5628,-32450,7663,12008,14,1,29152,2020-11-02 15:12:46,2020-11-02 15:13:16,2,DF:DC:EF:28:D6:3E,14,14,-33751.64115572832,-4301.42001504152,15340.544030416473
15439,32249,16628,-14092,22807,24831,-16381,1346,2031,1512,14,1,29177,2020-11-02 15:12:46,2020-11-02 15:13:16,2,DF:DC:EF:28:D6:3E,14,14,32249.0,16628.0,-14092.0
15440,-1539,26865,-14102,-7399,5888,23048,25530,8431,32230,14,1,29203,2020-11-02 15:12:46,2020-11-02 15:13:16,2,DF:DC:EF:28:D6:3E,14,14,-29961.55965021984,1756.674726369818,-4709.796941700554
15441,22783,-1292,-9495,-14060,256,13065,21183,25071,-29724,14,1,29229,2020-11-02 15:12:46,2020-11-02 15:13:16,2,DF:DC:EF:28:D6:3E,14,14,-8714.524821806323,-20226.751769111437,11217.172014410262
15442,11258,-22794,9195,-5105,29179,-31223,2243,25072,-286,14,1,29254,2020-11-02 15:12:46,2020-11-02 15:13:16,2,DF:DC:EF:28:D6:3E,14,14,-14317.518828038943,-22794.0,2509.8293983357444
15443,-9484,-7440,-11804,29198,-15618,6930,-28218,-2063,-3616,14,1,29280,2020-11-02 15:12:46,2020-11-02 15:13:16,2,DF:DC:EF:28:D6:3E,14,14,-9484.0,13796.405193840055,2084.99873558309
15444,4094,-27413,-14369,524,6919,4382,-12342,13044,-10276,14,-1,29305,2020-11-02 15:12:46,2020-11-02 15:13:16,2,DF:DC:EF:28:D6:3E,14,14,12868.510970920692,-23109.914505066983,-16584.17447326784
15445,23806,-10524,-7465,-21246,-21235,6433,8654,-11274,-14633,14,-1,29331,2020-11-02 15:12:46,2020-11-02 15:13:16,2,DF:DC:EF:28:D6:3E,14,14,-9324.641738830138,-21805.55365773223,13068.103271792257
15446,23806,23512,8154,-10762,-24564,20776,719,22522,-31022,14,-1,29357,2020-11-02 15:12:46,2020-11-02 15:13:16,2,DF:DC:EF:28:D6:3E,14,14,-28905.10228140905,-14826.806161687846,-11431.901729153231
15447,-25085,-18474,12256,9462,24852,-11989,23502,14590,-28724,14,-1,29382,2020-11-02 15:12:46,2020-11-02 15:13:16,2,DF:DC:EF:28:D6:3E,14,14,-15972.731906052195,21272.286494848035,20325.282279429433
15448,4886,-7719,30694,-25608,-16357,-21724,16333,-26368,-23355,14,-1,29408,2020-11-02 15:12:46,2020-11-02 15:13:16,2,DF:DC:EF:28:D6:3E,14,14,30569.58071732062,2390.6036415228155,9239.228430792109
15449,-14053,-26148,-19994,1016,4634,9742,-3381,-32512,12480,14,-1,29433,2020-11-02 15:12:46,2020-11-02 15:13:16,2,DF:DC:EF:28:D6:3E,14,14,33413.86895182395,-10177.044942414905,7804.221095689339
15450,24841,17376,-10009,-2316,28952,5370,-27190,-16643,23741,14,-1,29459,2020-11-02 15:12:46,2020-11-02 15:13:16,2,DF:DC:EF:28:D6:3E,14,14,15598.529760250116,23847.676514743915,14392.877827825921
15451,-10495,-27936,25835,-15120,23574,1013,-16184,12538,14268,14,-1,29485,2020-11-02 15:12:46,2020-11-02 15:13:16,2,DF:DC:EF:28:D6:3E,14,14,-39293.41270837839,1471.1682640321924,3446.1177675686795
15452,29699,-8990,-6413,32753,-5868,18161,-24634,24822,-11589,14,-1,29511,2020-11-02 15:12:46,2020-11-02 15:13:16,2,DF:DC:EF:28:D6:3E,14,14,17012.326931420277,11389.332160758036,24183.48848512958
15453,31744,-31769,-32519,10742,788,-5393,-25404,-28174,26044,14,-1,29536,2020-11-02 15:12:46,2020-11-02 15:13:16,2,DF:DC:EF:28:D6:3E,14,14,49282.02371679343,-12360.414384165844,-22202.21954285462
15454,-12286,-7445,-24066,-25349,-23278,10480,4803,-6930,26813,14,-1,29561,2020-11-02 15:12:46,2020-11-02 15:13:16,2,DF:DC:EF:28:D6:3E,14,14,-14532.240330257515,-5435.738422198676,-23341.227812372468
15455,24323,-17427,-24064,19200,-6128,10735,-31295,31467,18367,14,-1,29613,2020-11-02 15:12:46,2020-11-02 15:13:16,2,DF:DC:EF:28:D6:3E,14,14,-31733.819093336868,-13791.918706546192,16647.29582074487
15456,30979,3312,-3583,771,9998,32751,25791,-30232,18882,14,1,29615,2020-11-02 15:12:46,2020-11-02 15:13:16,2,DF:DC:EF:28:D6:3E,14,14,-7855.270802467308,6045.527529246248,-29753.18456086727
15457,17411,31731,-1275,-20731,-3318,23024,12732,14566,-20538,14,1,29638,2020-11-02 15:12:46,2020-11-02 15:13:16,2,DF:DC:EF:28:D6:3E,14,14,-20977.784748735838,9176.853288941162,-28059.629679469326
15458,-12800,-27146,7943,12809,14598,30448,28484,-10012,-16436,14,1,29664,2020-11-02 15:12:46,2020-11-02 15:13:16,2,DF:DC:EF:28:D6:3E,14,14,29854.4495915823,8149.724911687816,-2475.962125616342
15459,16387,22008,-27901,31754,-20732,30961,-25793,29412,-30509,14,1,29690,2020-11-02 15:12:46,2020-11-02 15:13:16,2,DF:DC:EF:28:D6:3E,14,14,-14626.413828066597,-25718.85161734857,25611.722394539356
15460,2564,-16904,-30206,-8181,9217,19699,-11205,-8220,26073,14,1,29715,2020-11-02 15:12:46,2020-11-02 15:13:16,2,DF:DC:EF:28:D6:3E,14,14,-28206.53045306425,20200.564486805233,1024.9791289495988
15461,30466,-18183,18429,24842,-15109,-8205,-5063,1766,23005,14,1,29741,2020-11-02 15:12:46,2020-11-02 15:13:16,2,DF:DC:EF:28:D6:3E,14,14,-33674.84632541486,-11171.542863888284,18429.0
15462,-1278,5370,-22020,-764,29938,10996,-26567,14056,-3618,14,1,29766,2020-11-02 15:12:46,2020-11-02 15:13:16,2,DF:DC:EF:28:D6:3E,14,14,17314.97643741349,13154.724702642983,-6518.8490525161105
15463,-18685,18171,-4867,17667,15596,-18703,-10183,-27669,20447,14,1,29792,2020-11-02 15:12:46,2020-11-02 15:13:16,2,DF:DC:EF:28:D6:3E,14,14,527.5449937793269,-5855.439400348893,25854.161767660928
15464,17663,-31236,22524,-19959,23280,26861,5178,18159,23776,14,1,29817,2020-11-02 15:12:46,2020-11-02 15:13:16,2,DF:DC:EF:28:D6:3E,14,14,-14287.378326066604,31245.277670484393,-24791.193695789865
15465,-8202,11005,28662,-15340,20986,6897,23867,-5391,20962,14,1,29843,2020-11-02 15:12:46,2020-11-02 15:13:16,2,DF:DC:EF:28:D6:3E,14,14,6073.942929974579,-15510.501343064487,-27063.344922056596
15466,15859,-3332,748,1049,32766,32761,20030,3571,-16413,14,1,29869,2020-11-02 15:12:46,2020-11-02 15:13:16,2,DF:DC:EF:28:D6:3E,14,14,-3696.197583553825,-15749.345204180681,-1210.7262543126108
15467,15096,-22275,29418,28692,-2824,7169,-10943,-14861,-17949,14,1,29894,2020-11-02 15:12:46,2020-11-02 15:13:16,2,DF:DC:EF:28:D6:3E,14,14,39195.598933627116,-7260.536170853511,-687.898063652171
15468,32499,-32002,14565,-4081,-21517,11011,-10172,31733,7139,14,1,29920,2020-11-02 15:12:46,2020-11-02 15:13:16,2,DF:DC:EF:28:D6:3E,14,14,-8811.806458041967,-23041.931936319863,41035.029786610525
15469,13549,11516,-6945,21777,32503,-29942,10427,21239,-5663,14,1,29945,2020-11-02 15:12:46,2020-11-02 15:13:16,2,DF:DC:EF:28:D6:3E,14,14,-12575.440502040601,12066.137343868339,-7790.590977489622
15470,-16145,11256,17113,11283,19205,24090,13503,2552,-18210,14,1,29971,2020-11-02 15:12:46,2020-11-02 15:13:16,2,DF:DC:EF:28:D6:3E,14,14,13126.460552064247,22320.736725003393,3113.531022518626
15471,-22533,19443,21469,25616,23562,-16860,-16701,-21512,9945,14,1,29997,2020-11-02 15:12:46,2020-11-02 15:13:16,2,DF:DC:EF:28:D6:3E,14,14,4463.535836825236,28107.411804345313,23167.532205531224
15472,-3326,-14613,1753,-14837,-26869,-21720,-17209,21754,-11822,14,1,30022,2020-11-02 15:12:46,2020-11-02 15:13:16,2,DF:DC:EF:28:D6:3E,14,14,11990.092332989572,-9159.227672585508,145.90506546571237
15473,-7413,18918,17875,29183,-10746,5925,-32055,1277,11213,14,1,30048,2020-11-02 15:12:46,2020-11-02 15:13:16,2,DF:DC:EF:28:D6:3E,14,14,5902.597199351603,-12599.58699567154,23211.39099323242
15474,24596,-23322,-38,31475,-12535,23320,-31288,1791,-6456,14,1,30073,2020-11-02 15:12:46,2020-11-02 15:13:16,2,DF:DC:EF:28:D6:3E,14,14,7753.1282060874555,-24251.539650197734,-22374.811096741316
15475,8717,8935,-11302,-30481,12816,-21752,25542,-31490,-5435,14,1,30099,2020-11-02 15:12:46,2020-11-02 15:13:16,2,DF:DC:EF:28:D6:3E,14,14,3072.4423694978245,-14393.687554386577,-8181.526414600855
15476,23300,31721,8929,-15638,21521,-25854,-25149,31996,3012,14,1,30125,2020-11-02 15:12:46,2020-11-02 15:13:16,2,DF:DC:EF:28:D6:3E,14,14,-10814.4671305137,-27491.718778019123,27497.119509384058
15477,28931,-17687,-10014,-28952,-2288,28930,-31296,10746,-20286,14,-1,30150,2020-11-02 15:12:46,2020-11-02 15:13:16,2,DF:DC:EF:28:D6:3E,14,14,1667.351383580573,-4394.213073773219,-35043.169902649395
15478,-1528,2538,20202,-22297,-20465,6146,14525,-7689,-21567,14,-1,30176,2020-11-02 15:12:46,2020-11-02 15:13:16,2,DF:DC:EF:28:D6:3E,14,14,-7004.989762549858,18623.63920883322,-4581.180311424295
15479,-32501,-4117,-19471,-16661,-7408,-13571,1978,26357,29121,14,-1,30201,2020-11-02 15:12:46,2020-11-02 15:13:16,2,DF:DC:EF:28:D6:3E,14,14,6258.209719984752,-35669.71466395154,-11869.742958167586
15480,31752,-25106,-26121,31473,18,8698,-17597,-17422,23234,14,-1,30227,2020-11-02 15:12:46,2020-11-02 15:13:16,2,DF:DC:EF:28:D6:3E,14,14,39279.363479875006,13093.012971273614,-24627.464281771314
15481,-7418,-28176,20477,-6153,13328,20729,9537,18928,5316,14,-1,30253,2020-11-02 15:12:46,2020-11-02 15:13:16,2,DF:DC:EF:28:D6:3E,14,14,5559.2289986762,-32454.359126052,13565.794324606382
15482,-29943,14578,-16127,27903,-7667,31223,6463,22510,24006,14,-1,30278,2020-11-02 15:12:46,2020-11-02 15:13:16,2,DF:DC:EF:28:D6:3E,14,14,-3472.8771833531464,-36832.32106418094,707.609422236339
15483,24842,-18960,8970,19465,-15093,25332,-20419,6893,24521,14,-1,30304,2020-11-02 15:12:46,2020-11-02 15:13:16,2,DF:DC:EF:28:D6:3E,14,14,9802.710782271415,-19303.161270611152,-24256.180455296693
15484,10509,8433,21506,29203,-17908,-22803,-11460,9452,-15667,14,-1,30329,2020-11-02 15:12:46,2020-11-02 15:13:16,2,DF:DC:EF:28:D6:3E,14,14,18046.806923517448,874.5252331673657,-17821.632121717594
15485,16135,25841,17659,28183,9740,-22809,-31173,-6677,-9773,14,-1,30355,2020-11-02 15:12:46,2020-11-02 15:13:16,2,DF:DC:EF:28:D6:3E,14,14,-16914.273899987715,8568.057981491962,29672.066120544867
15486,-19966,-5902,15610,-29165,-32762,5352,8506,30956,-295,14,-1,30381,2020-11-02 15:12:46,2020-11-02 15:13:16,2,DF:DC:EF:28:D6:3E,14,14,-8988.915793206024,-16324.226282085026,-18162.21046992727
15487,-19967,-15372,6141,-17907,-1030,-15896,22585,25582,24286,14,-1,30406,2020-11-02 15:12:46,2020-11-02 15:13:16,2,DF:DC:EF:28:D6:3E,14,14,-1750.1433459292489,-23982.57863953538,-9719.273330203283
15488,-23554,15606,-17412,-7923,-12556,-29720,-29383,-29967,12769,14,-1,30432,2020-11-02 15:12:46,2020-11-02 15:13:16,2,DF:DC:EF:28:D6:3E,14,14,-20428.066993737688,-6123.878786368389,25430.45582582491
15489,-6921,-6153,-17417,31250,15609,-19992,-23238,-23564,-4125,14,-1,30458,2020-11-02 15:12:46,2020-11-02 15:13:16,2,DF:DC:EF:28:D6:3E,14,14,9615.56293670458,17203.09825995199,840.1777601853146
15490,31215,-23558,-8464,-26347,-4352,2799,-25284,30198,-14362,14,-1,30483,2020-11-02 15:12:46,2020-11-02 15:13:16,2,DF:DC:EF:28:D6:3E,14,14,11234.76060060611,-27846.838706281553,26444.82205108229
15491,-18452,-5122,15599,-20460,24838,-25860,15679,-32522,27112,14,-1,30509,2020-11-02 15:12:46,2020-11-02 15:13:16,2,DF:DC:EF:28:D6:3E,14,14,1287.8702052322897,19930.263882939547,14531.550532922163
15492,6124,-28163,-24848,-6894,16392,26378,-31166,23797,-8729,14,-1,30535,2020-11-02 15:12:46,2020-11-02 15:13:16,2,DF:DC:EF:28:D6:3E,14,14,25089.923294686265,-9760.961888607028,26894.245129319403
15493,28390,-3849,-1288,-28399,-11002,-1771,3002,8180,-3868,14,-1,30560,2020-11-02 15:12:46,2020-11-02 15:13:16,2,DF:DC:EF:28:D6:3E,14,14,14255.367835163917,-3849.0,-24585.270628654347
15494,-9246,27619,-22554,26644,26361,-24538,-14657,14581,-29729,14,-1,30586,2020-11-02 15:12:46,2020-11-02 15:13:16,2,DF:DC:EF:28:D6:3E,14,14,27721.996272001357,-19102.153031184618,14952.56717986404
15495,19970,28625,11471,-4850,2046,28466,16325,13049,-19752,14,1,30611,2020-11-02 15:12:46,2020-11-02 15:13:16,2,DF:DC:EF:28:D6:3E,14,14,-14059.441432140216,20564.484641013514,-27003.878315266833
15496,15119,-28454,17367,519,24336,-31965,27336,-25349,10706,14,1,30637,2020-11-02 15:12:46,2020-11-02 15:13:16,2,DF:DC:EF:28:D6:3E,14,14,-27886.079090096027,15318.902029102139,-18097.646244848514
15497,24324,16874,476,5376,-29942,25114,-22327,-17156,26573,14,1,30662,2020-11-02 15:12:46,2020-11-02 15:13:16,2,DF:DC:EF:28:D6:3E,14,14,-7670.635745978692,16572.95144459905,23304.807565553427
15498,-18175,26098,-12069,-27396,10765,24605,-20535,19966,6601,14,1,30688,2020-11-02 15:12:46,2020-11-02 15:13:16,2,DF:DC:EF:28:D6:3E,14,14,33526.03886158688,1242.2441598429252,-5617.698612305763
15499,31494,-27417,-18465,28922,27155,-10719,13001,31231,-24125,14,1,30714,2020-11-02 15:12:46,2020-11-02 15:13:16,2,DF:DC:EF:28:D6:3E,14,14,-37990.74931704442,844.2200921029325,25308.307109832105
15500,-13805,31201,-799,-5131,-6895,31515,968,5888,5054,14,1,30765,2020-11-02 15:12:46,2020-11-02 15:13:16,2,DF:DC:EF:28:D6:3E,14,14,-8131.208649371179,31201.0,11184.805402884367
15501,-5869,-16158,-21792,22512,-27121,-30967,2502,23295,-30534,14,1,30767,2020-11-02 15:12:46,2020-11-02 15:13:16,2,DF:DC:EF:28:D6:3E,14,14,21260.71790221018,14910.053965380586,9802.527940897602
15502,-14071,14563,13027,14060,17935,-6404,23747,20221,-5563,14,1,30790,2020-11-02 15:12:46,2020-11-02 15:13:16,2,DF:DC:EF:28:D6:3E,14,14,11173.217346051553,339.8540557396009,21326.519930797193
15503,4613,31973,27624,20461,32272,-26375,31680,-15110,-10939,14,1,30816,2020-11-02 15:12:46,2020-11-02 15:13:16,2,DF:DC:EF:28:D6:3E,14,14,40097.76544361023,3364.3184989907277,13692.641873158229
15504,-24571,23015,-20754,14322,28435,-6408,3518,-13577,8518,14,1,30842,2020-11-02 15:12:46,2020-11-02 15:13:16,2,DF:DC:EF:28:D6:3E,14,14,-3645.439144123209,36919.08865960966,-13705.63562883443
15505,-11003,-26902,14833,28409,8725,5112,29372,-30220,11450,14,1,30867,2020-11-02 15:12:46,2020-11-02 15:13:16,2,DF:DC:EF:28:D6:3E,14,14,8311.748372472955,25146.549614250027,19062.197761295913
15506,-17145,-30482,-15630,-28673,13590,-8203,29883,5873,23995,14,1,30893,2020-11-02 15:12:46,2020-11-02 15:13:16,2,DF:DC:EF:28:D6:3E,14,14,-25470.198774088327,6668.2623725404765,27824.512580445873
15507,24071,17393,-18444,-4094,15125,10739,25786,-21011,29629,14,1,30918,2020-11-02 15:12:46,2020-11-02 15:13:16,2,DF:DC:EF:28:D6:3E,14,14,-31002.328688211186,15517.037711188017,4493.081634878943
15508,-17147,28403,-15628,-32509,18706,15088,-5052,-14102,-4672,14,1,30944,2020-11-02 15:12:46,2020-11-02 15:13:16,2,DF:DC:EF:28:D6:3E,14,14,21346.169992705603,28403.0,-9088.180216221223
15509,7173,-24587,-1545,-32255,-9202,-10770,-448,-18456,5830,14,1,30995,2020-11-02 15:12:46,2020-11-02 15:13:16,2,DF:DC:EF:28:D6:3E,14,14,16970.245962565547,-19076.41389922767,2541.7922250611155
15510,32516,21239,-20739,15104,-28151,-30996,24891,744,-22836,14,1,30997,2020-11-02 15:12:46,2020-11-02 15:13:16,2,DF:DC:EF:28:D6:3E,14,14,-36364.652623246584,24693.40305747075,-2517.8131447546384
15511,21763,18168,9473,1,16643,8427,14646,2793,-19246,14,1,31021,2020-11-02 15:12:46,2020-11-02 15:13:16,2,DF:DC:EF:28:D6:3E,14,14,-23827.728318858386,12941.270850331795,12577.956667957907
15512,-25344,24825,-19200,-13822,5886,-24853,15411,15851,-19498,14,1,31046,2020-11-02 15:12:46,2020-11-02 15:13:16,2,DF:DC:EF:28:D6:3E,14,14,-36948.45715538549,-12466.591405206396,10326.40177275109
15513,-5888,-3846,20991,258,21497,-3603,8754,-5139,-22568,14,1,31072,2020-11-02 15:12:46,2020-11-02 15:13:16,2,DF:DC:EF:28:D6:3E,14,14,3043.1805668812767,20374.67338981068,8105.188294906951
15514,-30461,10490,-7679,-27904,-17676,-26131,-12751,-3344,22745,14,1,31098,2020-11-02 15:12:46,2020-11-02 15:13:16,2,DF:DC:EF:28:D6:3E,14,14,31757.573686531578,6935.654790260437,-6342.938449555895
15515,5635,-9481,-7936,773,-2828,-28438,-3535,28404,-6439,14,1,31123,2020-11-02 15:12:46,2020-11-02 15:13:16,2,DF:DC:EF:28:D6:3E,14,14,-6723.024728711003,-7077.093173792414,9451.8978362338
15516,-28929,-4620,-21252,-15604,24825,-18968,-5326,-5385,9691,14,1,31149,2020-11-02 15:12:46,2020-11-02 15:13:16,2,DF:DC:EF:28:D6:3E,14,14,-11742.809456646934,-26839.110772618442,-21252.0
15517,-28167,28915,13048,14869,-6657,-3352,7477,-12294,21725,14,-1,31174,2020-11-02 15:12:46,2020-11-02 15:13:16,2,DF:DC:EF:28:D6:3E,14,14,15989.52966455399,-6969.517792541286,-38671.28367207117
15518,2035,-24843,14327,539,-20988,8171,31288,-25348,14304,14,-1,31200,2020-11-02 15:12:46,2020-11-02 15:13:16,2,DF:DC:EF:28:D6:3E,14,14,-14313.636952683653,15196.23432062302,-19767.98074309786
15519,-281,-7,8950,-10724,-14847,-24594,-30660,-18435,2019,14,-1,31226,2020-11-02 15:12:46,2020-11-02 15:13:16,2,DF:DC:EF:28:D6:3E,14,14,-79.13701324039783,-8584.357893533332,-2546.3791722497585
15520,22747,-29699,-24854,-14308,29692,-27910,-7616,-9730,-29468,14,-1,31251,2020-11-02 15:12:46,2020-11-02 15:13:16,2,DF:DC:EF:28:D6:3E,14,14,36168.649968406215,-8028.428597824882,25388.009368844523
15521,16605,-5382,28388,-1513,17154,-18670,69,3583,14307,14,-1,31277,2020-11-02 15:12:46,2020-11-02 15:13:16,2,DF:DC:EF:28:D6:3E,14,14,-2016.2794696894807,17338.586046737168,28388.0
15522,23027,5362,-3345,-20973,-29954,-5858,-13125,1279,-5666,14,-1,31303,2020-11-02 15:12:46,2020-11-02 15:13:16,2,DF:DC:EF:28:D6:3E,14,14,23027.0,-5272.979230297682,-3483.641634389114
15523,-786,14576,-35,-21737,-6666,-19435,19391,-6144,15835,14,-1,31328,2020-11-02 15:12:46,2020-11-02 15:13:16,2,DF:DC:EF:28:D6:3E,14,14,14025.94998918819,4016.4457576553823,468.7081998470686
15524,31712,-12819,-1073,-16871,-10240,-9445,-7486,-11774,6872,14,-1,31354,2020-11-02 15:12:46,2020-11-02 15:13:16,2,DF:DC:EF:28:D6:3E,14,14,-5557.0716230417265,-23144.72476074045,24587.99920135741
15525,-16136,-10010,24277,30996,6412,24619,29125,27140,12242,14,-1,31379,2020-11-02 15:12:46,2020-11-02 15:13:16,2,DF:DC:EF:28:D6:3E,14,14,-17783.639421704676,-10260.149059849015,-22987.27550599398
15526,-3829,21485,30933,-19446,7945,-2782,16326,8454,-309,14,-1,31405,2020-11-02 15:12:46,2020-11-02 15:13:16,2,DF:DC:EF:28:D6:3E,14,14,3538.3960044762734,-37068.21208721417,6822.34280675018
15527,-1531,-4625,3541,10496,31501,-6122,-31547,-19706,26055,14,-1,31430,2020-11-02 15:12:46,2020-11-02 15:13:16,2,DF:DC:EF:28:D6:3E,14,14,-4869.796550562685,1563.5649926354354,3180.1907285464367
15528,-14335,-17682,-27686,-10505,11536,-29679,-23869,-4347,-32573,14,-1,31456,2020-11-02 15:12:46,2020-11-02 15:13:16,2,DF:DC:EF:28:D6:3E,14,14,-35241.46296872657,-4524.162866659808,4714.995565195175
15529,-14337,13546,-11809,-26639,-23538,-1268,6337,-29180,30912,14,-1,31482,2020-11-02 15:12:46,2020-11-02 15:13:16,2,DF:DC:EF:28:D6:3E,14,14,16758.43891199741,4180.296414117433,15171.552759126798
15530,261,11752,-8218,-5137,-22257,-23800,23742,-17406,18110,14,-1,31507,2020-11-02 15:12:46,2020-11-02 15:13:16,2,DF:DC:EF:28:D6:3E,14,14,1725.4221077919606,13795.590576666296,3523.882544997604
15531,-10238,-19480,1771,2292,25107,-20989,19388,8448,2749,14,-1,31533,2020-11-02 15:12:46,2020-11-02 15:13:16,2,DF:DC:EF:28:D6:3E,14,14,-9320.165167769741,19035.130299502653,6182.379859443102
15532,32256,-16918,18412,16122,16917,-4608,12731,1533,30908,14,-1,31559,2020-11-02 15:12:46,2020-11-02 15:13:16,2,DF:DC:EF:28:D6:3E,14,14,-153.30383614568382,-33683.04187788707,-23045.58942154287
15533,23816,-275,-24345,-10501,-14312,5885,-20806,26617,23996,14,-1,31584,2020-11-02 15:12:46,2020-11-02 15:13:16,2,DF:DC:EF:28:D6:3E,14,14,19723.018912129668,27675.246892881572,2244.9366159925594
15534,15366,-8978,4589,508,-24299,-23820,-18759,-5643,-27971,14,-1,31610,2020-11-02 15:12:46,2020-11-02 15:13:16,2,DF:DC:EF:28:D6:3E,14,14,-17260.569052417817,5396.043448230995,-3276.1001345379564
15535,-30716,29424,17647,-16900,-1516,-18705,-28604,-13326,13760,14,1,31635,2020-11-02 15:12:46,2020-11-02 15:13:16,2,DF:DC:EF:28:D6:3E,14,14,28374.434422874052,16309.876059499064,-32396.61178434868
15536,-15100,6386,-12301,20221,29458,-19477,-13759,14832,11716,14,1,31661,2020-11-02 15:12:46,2020-11-02 15:13:16,2,DF:DC:EF:28:D6:3E,14,14,10232.460681335524,10905.84087000571,14016.596602707654
15537,15874,-22028,14073,28415,-28914,25064,3134,-9746,30921,14,1,31687,2020-11-02 15:12:46,2020-11-02 15:13:16,2,DF:DC:EF:28:D6:3E,14,14,-22049.41538108764,-3117.3712756257464,20961.18476332288
15538,-31490,32759,-7943,28675,-2549,-6937,23354,-18962,13263,14,1,31712,2020-11-02 15:12:46,2020-11-02 15:13:16,2,DF:DC:EF:28:D6:3E,14,14,10812.191810618322,42274.73059828981,14960.183524690372
15539,-11271,22778,-24839,25606,-22006,1517,-18633,9199,19156,14,1,31738,2020-11-02 15:12:46,2020-11-02 15:13:16,2,DF:DC:EF:28:D6:3E,14,14,-8101.537012895838,27473.5596781986,21033.717280526973
15540,-513,14844,-27396,22024,-11255,12786,20278,29935,3544,14,1,31764,2020-11-02 15:12:46,2020-11-02 15:13:16,2,DF:DC:EF:28:D6:3E,14,14,-28162.044685973266,-10829.32487872889,7795.722081769484
15541,-22526,27387,4608,-13044,519,12786,-6091,-7697,12251,14,1,31789,2020-11-02 15:12:46,2020-11-02 15:13:16,2,DF:DC:EF:28:D6:3E,14,14,-19114.134138020007,-3110.2592821377675,-30061.242029424764
15542,-24830,2043,24575,11537,-27645,-27154,24374,-8976,11998,14,1,31815,2020-11-02 15:12:46,2020-11-02 15:13:16,2,DF:DC:EF:28:D6:3E,14,14,-16280.716750560015,-5909.00456437188,-30408.14530921389
15543,-15620,27641,23803,7187,-21761,8683,27703,-24078,14305,14,1,31840,2020-11-02 15:12:46,2020-11-02 15:13:16,2,DF:DC:EF:28:D6:3E,14,14,7287.791038818359,-15796.289994432384,35664.51197179507
15544,-6921,25594,7930,-28653,-2051,26607,4921,-28172,-14877,14,1,31866,2020-11-02 15:12:46,2020-11-02 15:13:16,2,DF:DC:EF:28:D6:3E,14,14,18892.483346089204,-20221.50060511334,54.43615657772807
15545,-30727,-25091,-15366,2070,-14852,23027,32059,2806,-29979,14,1,31891,2020-11-02 15:12:46,2020-11-02 15:13:16,2,DF:DC:EF:28:D6:3E,14,14,12238.515431828419,-35663.50851450865,19701.615833744872
15546,-1292,-8964,6392,-10985,4091,-22796,30526,29687,4327,14,1,31917,2020-11-02 15:12:46,2020-11-02 15:13:16,2,DF:DC:EF:28:D6:3E,14,14,-10347.901607341575,3586.696133154421,1713.6998492130383
15547,-2066,1017,32501,-9704,-30215,10747,-7359,-15624,3304,14,1,31943,2020-11-02 15:12:46,2020-11-02 15:13:16,2,DF:DC:EF:28:D6:3E,14,14,-14329.680658235926,27898.135922309342,-8830.170456640823
15548,-13074,-17167,15858,21020,16632,30471,11078,1018,-32025,14,1,31968,2020-11-02 15:12:46,2020-11-02 15:13:16,2,DF:DC:EF:28:D6:3E,14,14,17981.708207198193,-18953.24910280376,-5877.418429740199
15549,-7953,16619,-5404,16929,31226,31759,-6978,30715,-22043,14,1,31994,2020-11-02 15:12:46,2020-11-02 15:13:16,2,DF:DC:EF:28:D6:3E,14,14,-13188.798474956271,-6356.793801990221,-12421.407059829005
15550,-28431,14827,479,-28387,-13819,-1770,20164,-29956,-22558,14,1,32019,2020-11-02 15:12:46,2020-11-02 15:13:16,2,DF:DC:EF:28:D6:3E,14,14,4366.921798484768,15517.769400382289,27722.192515067734
15551,-30734,-25371,-17439,13334,-28406,32284,-18488,-23043,27614,14,1,32045,2020-11-02 15:12:46,2020-11-02 15:13:16,2,DF:DC:EF:28:D6:3E,14,14,-6296.406695769685,-41951.36804562739,9634.474548296805
15552,31736,11233,31710,-753,-29176,-29664,-13621,-4353,-2599,14,1,32071,2020-11-02 15:12:46,2020-11-02 15:13:16,2,DF:DC:EF:28:D6:3E,14,14,31736.0,24159.243989708317,-23410.15418244277
15553,-25600,-31773,24282,-22772,-17397,29215,-26931,-21246,-26667,14,1,32096,2020-11-02 15:12:46,2020-11-02 15:13:16,2,DF:DC:EF:28:D6:3E,14,14,-22057.834752687035,21880.24689722362,35905.51175989123
15554,17925,-15897,32220,31752,-24044,-28133,18126,-31740,-20272,14,-1,32122,2020-11-02 15:12:46,2020-11-02 15:13:16,2,DF:DC:EF:28:D6:3E,14,14,28956.46489989222,-7176.506411015469,-26873.212130930002
15555,-12541,236,-19488,-1791,-9706,-8172,-12595,13317,-24373,14,-1,32147,2020-11-02 15:12:46,2020-11-02 15:13:16,2,DF:DC:EF:28:D6:3E,14,14,5381.253139860295,21029.88947572448,8117.905165962245
15556,20989,-29974,-15901,-4871,-14571,25103,19660,-2300,11975,14,-1,32173,2020-11-02 15:12:46,2020-11-02 15:13:16,2,DF:DC:EF:28:D6:3E,14,14,-37757.44698325964,5802.675479066953,11511.939566857223
15557,26621,16613,-3355,25073,-7151,19723,-11319,14084,-26685,14,-1,32199,2020-11-02 15:12:46,2020-11-02 15:13:16,2,DF:DC:EF:28:D6:3E,14,14,11970.808596615692,-23273.3012065966,-17634.586116215527
15558,22272,-17182,14571,-19221,9488,1541,-23866,-8190,6849,14,-1,32224,2020-11-02 15:12:46,2020-11-02 15:13:16,2,DF:DC:EF:28:D6:3E,14,14,16572.67379184085,26187.116948044517,6569.515837462558
15559,-14338,31715,-16147,24045,-11248,4096,-26173,-10496,-20801,14,-1,32250,2020-11-02 15:12:46,2020-11-02 15:13:16,2,DF:DC:EF:28:D6:3E,14,14,35255.55240654623,13621.801609635693,6605.877944452094
15560,31745,2276,14065,-21517,24597,3326,26817,2046,-18242,14,-1,32276,2020-11-02 15:12:46,2020-11-02 15:13:16,2,DF:DC:EF:28:D6:3E,14,14,-30135.11339829895,-13544.952822491276,-10915.980006767546
15561,26118,14564,-32019,-19460,-5096,19194,-24384,28666,8126,14,-1,32301,2020-11-02 15:12:46,2020-11-02 15:13:16,2,DF:DC:EF:28:D6:3E,14,14,-24931.265880446288,-11598.217112641905,34108.499269339234
15562,14347,20706,-26134,-9729,14362,16370,-31296,14070,24766,14,-1,32327,2020-11-02 15:12:46,2020-11-02 15:13:16,2,DF:DC:EF:28:D6:3E,14,14,19918.37127652487,-24263.624114850056,-18223.49668707342
15563,-14838,-11549,-2066,26367,-9704,-16666,28607,-26639,-30016,14,-1,32352,2020-11-02 15:12:46,2020-11-02 15:13:16,2,DF:DC:EF:28:D6:3E,14,14,-822.1077819175337,18321.219323226363,4633.687765176619
15564,-29436,-24600,-14091,-256,-6635,30430,-1349,17901,-13627,14,-1,32378,2020-11-02 15:12:46,2020-11-02 15:13:16,2,DF:DC:EF:28:D6:3E,14,14,-33668.30892965171,-14452.84728152217,18103.992826847127
15565,32252,17903,-22021,-508,16403,16349,24386,24298,27086,14,-1,32404,2020-11-02 15:12:46,2020-11-02 15:13:16,2,DF:DC:EF:28:D6:3E,14,14,-7271.171809858036,34980.664989546116,23856.162545570238
15566,21236,5879,-23301,19977,-27889,20963,27451,-31767,11736,14,-1,32429,2020-11-02 15:12:46,2020-11-02 15:13:16,2,DF:DC:EF:28:D6:3E,14,14,12719.881466579582,23815.801137337214,-17305.46646765041
15567,-21252,19196,-15619,-20982,-24048,236,13622,28905,13792,14,-1,32455,2020-11-02 15:12:46,2020-11-02 15:13:16,2,DF:DC:EF:28:D6:3E,14,14,6417.545939506661,-28954.731326415815,-13584.024401089546
15568,4095,-26885,-32515,-32243,-28918,17392,7731,-2839,11750,14,1,32480,2020-11-02 15:12:46,2020-11-02 15:13:16,2,DF:DC:EF:28:D6:3E,14,14,-13374.409625168655,-1617.4226527108985,-40190.876901862866
15569,16893,11003,32510,22030,-17148,28660,13618,-10262,-6167,14,1,32506,2020-11-02 15:12:46,2020-11-02 15:13:16,2,DF:DC:EF:28:D6:3E,14,14,-22194.255077076963,-28621.571930917424,12310.979643268165
15570,-14593,-519,16126,17680,-17408,6136,5427,-18453,-16405,14,1,32532,2020-11-02 15:12:46,2020-11-02 15:13:16,2,DF:DC:EF:28:D6:3E,14,14,-5536.956399419025,-10851.314511737623,-18023.983277796426
15571,7423,761,16891,-18157,-16130,-30727,6453,-30484,-14612,14,1,32558,2020-11-02 15:12:46,2020-11-02 15:13:16,2,DF:DC:EF:28:D6:3E,14,14,-17323.874070259128,-4686.897974035887,-4347.678182522469
15572,30461,-6407,12022,-31211,3326,27131,-6601,19693,24813,14,1,32583,2020-11-02 15:12:46,2020-11-02 15:13:16,2,DF:DC:EF:28:D6:3E,14,14,23651.018634542455,17203.109239673857,-16066.518105562678
15573,-19460,-6918,-30986,25108,5630,-16642,-454,-13587,-27155,14,1,32608,2020-11-02 15:12:46,2020-11-02 15:13:16,2,DF:DC:EF:28:D6:3E,14,14,-18474.517854370366,31973.9389243718,-4800.20204877801
15574,-23815,23549,-25097,30740,4345,-12288,27198,-32530,8685,14,1,32634,2020-11-02 15:12:46,2020-11-02 15:13:16,2,DF:DC:EF:28:D6:3E,14,14,24550.568345949458,-25407.13741123808,22434.705201034645
15575,15349,-8707,-17426,-25834,24567,-22781,30018,-17425,9452,14,1,32660,2020-11-02 15:12:46,2020-11-02 15:13:16,2,DF:DC:EF:28:D6:3E,14,14,7669.639583269337,-23554.002541974576,-1206.1172892398945
15576,-19985,-29447,11752,-7403,-25605,29196,28346,-14096,23274,14,1,32685,2020-11-02 15:12:46,2020-11-02 15:13:16,2,DF:DC:EF:28:D6:3E,14,14,24541.568064646035,-14638.965902694323,-24249.693858440747
15577,-8206,-7436,-18970,3090,-13829,-30186,-25153,-2831,-9754,14,1,32711,2020-11-02 15:12:46,2020-11-02 15:13:16,2,DF:DC:EF:28:D6:3E,14,14,11736.858580584105,17288.120466873806,6772.036132672964
15578,16116,-529,-26912,-7924,2296,19226,-1597,32244,3555,14,1,32736,2020-11-02 15:12:46,2020-11-02 15:13:16,2,DF:DC:EF:28:D6:3E,14,14,30378.069860659736,-529.0,7820.106875284794
15579,-23312,-11294,-3111,7690,-12545,5153,24263,-25097,8927,14,1,32762,2020-11-02 15:12:46,2020-11-02 15:13:16,2,DF:DC:EF:28:D6:3E,14,14,8328.72277960942,22276.81969881875,10726.499054525484
15580,10493,11479,1759,-29434,4113,-30675,30922,-27398,2521,14,1,32788,2020-11-02 15:12:46,2020-11-02 15:13:16,2,DF:DC:EF:28:D6:3E,14,14,-14811.56421297075,4942.906026064835,-1072.2950072326519
15581,-8949,-41,10728,-32253,-30954,-12245,-31028,23037,-23599,14,1,32813,2020-11-02 15:12:46,2020-11-02 15:13:16,2,DF:DC:EF:28:D6:3E,14,14,5456.749022729452,9438.30597377874,-8736.048102447337
15582,-32753,-23584,-25373,-2816,-7147,13087,20941,22527,32203,14,-1,32839,2020-11-02 15:12:46,2020-11-02 15:13:16,2,DF:DC:EF:28:D6:3E,14,14,35892.61720970854,-26403.522580997942,-16950.7291628433
15583,14605,-18975,-22813,32507,-31207,15126,1997,-8449,10182,14,-1,32864,2020-11-02 15:12:46,2020-11-02 15:13:16,2,DF:DC:EF:28:D6:3E,14,14,30602.40076193147,12541.187096621568,-36.2327706505439
15584,-18933,6371,-32536,21751,-26090,22796,716,15615,-15679,14,-1,32890,2020-11-02 15:12:46,2020-11-02 15:13:16,2,DF:DC:EF:28:D6:3E,14,14,14826.014236881178,17085.932106734894,30755.481655988457
15585,-12536,16355,27372,9460,-237,-28925,-26166,-23299,-18242,14,-1,32916,2020-11-02 15:12:46,2020-11-02 15:13:16,2,DF:DC:EF:28:D6:3E,14,14,-8412.755324945349,30523.798236146555,13091.4855567128
15586,-11516,-24095,-19985,-15630,25361,-9475,-1848,-30469,-7492,14,-1,32941,2020-11-02 15:12:46,2020-11-02 15:13:16,2,DF:DC:EF:28:D6:3E,14,14,-32394.63222066364,5856.245740294231,5373.983170538126
15587,17156,10209,-13069,2549,20753,-11526,31431,4601,-18245,14,-1,32967,2020-11-02 15:12:46,2020-11-02 15:13:16,2,DF:DC:EF:28:D6:3E,14,14,-18344.1823495148,7118.784190146867,-13496.839021854885
15588,11526,-1312,10229,-13827,14356,-15111,711,17654,-15174,14,-1,32992,2020-11-02 15:12:46,2020-11-02 15:13:16,2,DF:DC:EF:28:D6:3E,14,14,2954.7942885827324,9609.076634070496,-11753.182460623986
15589,778,739,1269,22023,-25321,26102,21704,-15630,8006,14,-1,33018,2020-11-02 15:12:46,2020-11-02 15:13:16,2,DF:DC:EF:28:D6:3E,14,14,1157.3648433389862,116.97745614696214,1186.8398772186201
15590,-7412,-14619,-7693,1546,-2796,-32274,21962,-10514,22853,14,-1,33044,2020-11-02 15:12:46,2020-11-02 15:13:16,2,DF:DC:EF:28:D6:3E,14,14,6394.959697235739,-16627.189953810703,-3236.695646894681
15591,-5624,-30489,13044,-17913,-16881,11237,-2102,31210,-20039,14,-1,33069,2020-11-02 15:12:46,2020-11-02 15:13:16,2,DF:DC:EF:28:D6:3E,14,14,9659.775375937887,32174.1707015828,-1692.9005735231676
15592,-19708,1769,-19465,261,29963,12768,968,3558,7102,14,-1,33095,2020-11-02 15:12:46,2020-11-02 15:13:16,2,DF:DC:EF:28:D6:3E,14,14,-12136.840016174467,-15627.915389513286,-19465.0
15593,16640,16877,30202,8709,10248,-27937,-30787,-18206,-1335,14,-1,33121,2020-11-02 15:12:46,2020-11-02 15:13:16,2,DF:DC:EF:28:D6:3E,14,14,-19966.32662810556,-24174.064239313237,-22154.998355526
15594,-22278,-26124,29693,-5115,-31994,-10013,2361,-24350,-30500,14,-1,33146,2020-11-02 15:12:46,2020-11-02 15:13:16,2,DF:DC:EF:28:D6:3E,14,14,35555.972238176735,28102.03579098395,-2548.5940438332036
15595,-17926,31225,3584,-1273,-11516,-24854,7216,-19740,999,14,1,33172,2020-11-02 15:12:46,2020-11-02 15:13:16,2,DF:DC:EF:28:D6:3E,14,14,13765.41603163889,13855.107491181163,-30458.76679847224
15596,-1795,12538,-19707,13323,-13820,-30483,-27860,-7450,28908,14,1,33197,2020-11-02 15:12:46,2020-11-02 15:13:16,2,DF:DC:EF:28:D6:3E,14,14,828.2226768149922,20886.535219157966,10576.200250396323
15597,14335,-5639,-3068,14609,-1022,20206,-9173,7913,-11281,14,1,33223,2020-11-02 15:12:46,2020-11-02 15:13:16,2,DF:DC:EF:28:D6:3E,14,14,852.3200131005451,-11744.536671521995,-10394.35322502287
15598,-7941,-5895,-18430,-1517,27645,-22290,13357,-28437,-17935,14,1,33274,2020-11-02 15:12:46,2020-11-02 15:13:16,2,DF:DC:EF:28:D6:3E,14,14,-4157.684390648447,-19998.403725833352,4500.3238690490825
15599,-27146,14331,27133,-25837,-15114,8177,-5329,14574,13298,14,1,33276,2020-11-02 15:12:46,2020-11-02 15:13:16,2,DF:DC:EF:28:D6:3E,14,14,-27999.397610452048,26742.436136703607,13392.475832576341
15600,30197,-27398,7165,-1774,32758,11768,3635,-31504,-10767,14,1,33300,2020-11-02 15:12:46,2020-11-02 15:13:16,2,DF:DC:EF:28:D6:3E,14,14,-14714.278216647135,-27792.518475694393,-26924.196763158776
15601,-7177,-31495,-9223,4888,-13574,26110,-19402,-19471,23025,14,1,33325,2020-11-02 15:12:46,2020-11-02 15:13:16,2,DF:DC:EF:28:D6:3E,14,14,19219.904748565586,-23457.112535638138,-14452.239132621415
15602,-14605,-19207,27890,14364,18938,14593,13371,26610,-15376,14,1,33351,2020-11-02 15:12:46,2020-11-02 15:13:16,2,DF:DC:EF:28:D6:3E,14,14,-28920.553983460217,-21458.80153510351,7949.111143190983
15603,13548,4857,-1051,-4071,-25096,2823,6720,20979,-31505,14,1,33377,2020-11-02 15:12:46,2020-11-02 15:13:16,2,DF:DC:EF:28:D6:3E,14,14,-7028.2368139221635,-11390.001029006651,-5395.842644727201
15604,20971,25336,-12065,-3051,21246,-1261,17989,-10509,-18708,14,1,33402,2020-11-02 15:12:46,2020-11-02 15:13:16,2,DF:DC:EF:28:D6:3E,14,14,-1587.9851426045007,23389.81416527725,26031.80474920367
15605,28402,-16655,-24610,-8944,29954,-32740,-3139,13044,7656,14,1,33428,2020-11-02 15:12:46,2020-11-02 15:13:16,2,DF:DC:EF:28:D6:3E,14,14,-4462.133313851792,-37774.69666940857,-15584.491869277837
15606,20217,5861,16865,13838,-2554,9250,-62,11765,-29982,14,1,33453,2020-11-02 15:12:46,2020-11-02 15:13:16,2,DF:DC:EF:28:D6:3E,14,14,-3656.728361925603,8300.275921711094,-25401.582476502364
15607,1539,-11556,15077,-24818,16144,-4314,6856,-27402,732,14,1,33505,2020-11-02 15:12:46,2020-11-02 15:13:16,2,DF:DC:EF:28:D6:3E,14,14,-2200.1168216842334,-18930.59148456088,-133.3342252133025
15608,-9716,-25893,-11037,6927,13081,30501,10189,18680,-7724,14,1,33507,2020-11-02 15:12:46,2020-11-02 15:13:16,2,DF:DC:EF:28:D6:3E,14,14,-876.1542106682446,-7339.361607300202,28844.9232794337
15609,-238,-29732,-19744,-16889,-2532,-24035,-5680,-775,9934,14,1,33530,2020-11-02 15:12:46,2020-11-02 15:13:16,2,DF:DC:EF:28:D6:3E,14,14,24890.02337151176,-16264.53825245581,-19744.0
15610,14867,-23331,-26140,-24070,-15335,-31983,10706,-3334,-21560,14,1,33556,2020-11-02 15:12:46,2020-11-02 15:13:16,2,DF:DC:EF:28:D6:3E,14,14,-13393.06509956292,-11394.31656118717,-33755.86182194621
15611,782,8926,9708,6130,7446,-28921,21969,-17926,-21052,14,1,33582,2020-11-02 15:12:46,2020-11-02 15:13:16,2,DF:DC:EF:28:D6:3E,14,14,-1840.6669614554398,10047.46112785858,8377.991049241886
15612,-19190,10975,-8975,32496,-21739,-24574,-8497,-29703,24513,14,1,33607,2020-11-02 15:12:46,2020-11-02 15:13:16,2,DF:DC:EF:28:D6:3E,14,14,11158.270737864068,15401.345776440401,14406.557271431919
15613,-6135,13024,-26889,31217,-14318,-514,31950,-9737,-22850,14,1,33633,2020-11-02 15:12:46,2020-11-02 15:13:16,2,DF:DC:EF:28:D6:3E,14,14,-16593.757431729482,19948.017185230492,-16031.373823683098
15614,-18422,-31006,10999,-14,16143,-10503,13773,-11275,-9284,14,1,33658,2020-11-02 15:12:46,2020-11-02 15:13:16,2,DF:DC:EF:28:D6:3E,14,14,11963.049626381708,-13260.859071441218,-33207.75784849233
15615,-2808,29923,27126,-19726,16395,-30476,-28213,31475,16060,14,1,33684,2020-11-02 15:12:46,2020-11-02 15:13:16,2,DF:DC:EF:28:D6:3E,14,14,38744.76087820709,11672.54141734753,-1298.4415084475859
15616,29955,7397,28664,14835,-32760,-19215,18121,5873,-9028,14,-1,33709,2020-11-02 15:12:46,2020-11-02 15:13:16,2,DF:DC:EF:28:D6:3E,14,14,-13248.25440593027,-407.21041544384207,-39974.49768131306
15617,-24825,745,-8967,-7692,-20214,25330,-7738,-14354,-7747,14,-1,33735,2020-11-02 15:12:46,2020-11-02 15:13:16,2,DF:DC:EF:28:D6:3E,14,14,2259.4625860004435,-16739.179551986337,-20296.241911960613
15618,-20984,29673,21243,31736,-26102,11247,26820,9964,31423,14,-1,33761,2020-11-02 15:12:46,2020-11-02 15:13:16,2,DF:DC:EF:28:D6:3E,14,14,-15073.15457028131,39255.151478681306,-1978.2132559945067
15619,-9719,-28948,28412,15097,19210,5866,-30016,26601,-830,14,-1,33786,2020-11-02 15:12:46,2020-11-02 15:13:16,2,DF:DC:EF:28:D6:3E,14,14,21261.41572799113,-35456.40943651856,5521.108594429995
15620,6407,31984,-6914,8698,24582,-3865,-3655,-22809,-30007,14,-1,33812,2020-11-02 15:12:46,2020-11-02 15:13:16,2,DF:DC:EF:28:D6:3E,14,14,-32192.699495969835,3925.933887028849,7748.96401313505
15621,14853,31476,-32512,-3844,14341,32232,-15042,23271,-26415,14,-1,33838,2020-11-02 15:12:46,2020-11-02 15:13:16,2,DF:DC:EF:28:D6:3E,14,14,31167.09585706225,29181.620141548578,21105.106271967925
15622,-2559,-23303,7681,-24321,24835,3564,-26824,16616,25048,14,-1,33863,2020-11-02 15:12:46,2020-11-02 15:13:16,2,DF:DC:EF:28:D6:3E,14,14,19898.117574208998,8628.689275840428,11755.283466762996
15623,-16893,17915,3075,8706,20739,29423,-15820,-26647,1245,14,-1,33889,2020-11-02 15:12:46,2020-11-02 15:13:16,2,DF:DC:EF:28:D6:3E,14,14,-2254.802409056323,-4659.1809892530855,24268.99663367846
15624,13571,-1286,-13819,15623,25091,-19983,-20686,-5910,30432,14,-1,33914,2020-11-02 15:12:46,2020-11-02 15:13:16,2,DF:DC:EF:28:D6:3E,14,14,-1878.0756217267744,3962.196303114373,18909.37414127349
15625,-31230,-14855,15622,-18420,9985,-28685,21810,13548,-3870,14,-1,33940,2020-11-02 15:12:46,2020-11-02 15:13:16,2,DF:DC:EF:28:D6:3E,14,14,-2972.81616066849,12501.76177108837,35705.72959195515
15626,16387,-12554,32514,-752,27391,15091,19507,-26643,-13340,14,-1,33966,2020-11-02 15:12:46,2020-11-02 15:13:16,2,DF:DC:EF:28:D6:3E,14,14,22281.808412741208,29847.159953258168,9796.169536227759
15627,-3586,-3085,27137,-24045,-18437,17393,-1484,21999,29926,14,-1,33991,2020-11-02 15:12:46,2020-11-02 15:13:16,2,DF:DC:EF:28:D6:3E,14,14,-864.9433153628186,-7951.658607605952,-26359.370031343606
15628,12021,5622,-9221,-9704,25845,11501,-28105,754,-9497,14,-1,34017,2020-11-02 15:12:46,2020-11-02 15:13:16,2,DF:DC:EF:28:D6:3E,14,14,9274.934451761097,-8330.330641808067,10281.991456604537
15629,-19487,-25861,-5649,-23783,19448,7155,-12998,-11788,24553,14,1,34042,2020-11-02 15:12:46,2020-11-02 15:13:16,2,DF:DC:EF:28:D6:3E,14,14,14330.30400734581,7985.785355904674,-28483.59721500195
15630,-12834,12028,-14610,-30441,10241,-30200,-24002,29685,13033,14,1,34068,2020-11-02 15:12:46,2020-11-02 15:13:16,2,DF:DC:EF:28:D6:3E,14,14,6053.277207074938,-20903.891629058766,-7015.809989935148
15631,-22295,-26382,-20753,13591,11272,9244,-8381,8436,-10267,14,1,34094,2020-11-02 15:12:46,2020-11-02 15:13:16,2,DF:DC:EF:28:D6:3E,14,14,-28202.561495344344,-14779.995381858997,24696.78561298104
15632,-11,-17951,-18958,-17640,-31477,-216,-27970,-14,9695,14,1,34119,2020-11-02 15:12:46,2020-11-02 15:13:16,2,DF:DC:EF:28:D6:3E,14,14,-21952.36351622643,14082.378169911633,-1193.585828940264
15633,5364,-15661,-1827,-10725,-8693,11567,17351,22772,-7722,14,1,34145,2020-11-02 15:12:46,2020-11-02 15:13:16,2,DF:DC:EF:28:D6:3E,14,14,10363.56774630432,13032.439635927387,-359.6202214415482
15634,-25608,-25396,-16690,18450,-16620,-30153,22734,22008,-21298,14,1,34170,2020-11-02 15:12:46,2020-11-02 15:13:16,2,DF:DC:EF:28:D6:3E,14,14,-23025.31468132924,-31057.280814930593,-9195.801879570263
15635,2070,-11052,-23076,18433,-5100,4915,13265,-20483,3527,14,1,34196,2020-11-02 15:12:46,2020-11-02 15:13:16,2,DF:DC:EF:28:D6:3E,14,14,-1986.267220955152,25582.202258948448,734.2003195395628
15636,-5098,31455,-7971,19446,265,23833,23760,13313,32450,14,1,34222,2020-11-02 15:12:46,2020-11-02 15:13:16,2,DF:DC:EF:28:D6:3E,14,14,-29694.996016681478,6636.132091355908,12373.860854048231
15637,-12793,-23586,-11295,18161,2060,29965,3534,20482,-11585,14,1,34247,2020-11-02 15:12:46,2020-11-02 15:13:16,2,DF:DC:EF:28:D6:3E,14,14,-26053.860523454132,-251.61391041882393,12987.313512211913
15638,24835,23776,9709,-1035,-16880,-18166,-10549,5634,-6980,14,1,34273,2020-11-02 15:12:46,2020-11-02 15:13:16,2,DF:DC:EF:28:D6:3E,14,14,31102.820394357062,-9542.901142051265,-14761.01904711878
15639,29441,3302,-27158,30715,4375,-29687,-18998,-6400,16710,14,1,34299,2020-11-02 15:12:46,2020-11-02 15:13:16,2,DF:DC:EF:28:D6:3E,14,14,9089.424044911506,-2795.8821034295233,39048.6627529741
15640,-27899,-15643,-26390,9467,1303,15110,4042,4351,-6590,14,-1,34324,2020-11-02 15:12:46,2020-11-02 15:13:16,2,DF:DC:EF:28:D6:3E,14,14,-28237.024646765156,15024.250034460194,-26390.0
15641,-12538,-5406,-7191,8695,-8173,-8706,14281,-12036,-28352,14,-1,34350,2020-11-02 15:12:46,2020-11-02 15:13:16,2,DF:DC:EF:28:D6:3E,14,14,-11204.63870186669,-472.3507676444615,-10600.45835390795
15642,-21754,31968,5869,17652,-10990,-778,-10297,-3079,27967,14,-1,34375,2020-11-02 15:12:46,2020-11-02 15:13:16,2,DF:DC:EF:28:D6:3E,14,14,31028.686390169543,1945.4178420606963,-23729.110209198723
15643,-13052,18912,495,-3596,-26094,12784,9670,-32266,32063,14,-1,34401,2020-11-02 15:12:46,2020-11-02 15:13:16,2,DF:DC:EF:28:D6:3E,14,14,12750.33690703427,-8548.684398063697,17105.91642734823
15644,-25342,-8989,7151,30455,-29934,-9748,16324,-14606,-26560,14,-1,34426,2020-11-02 15:12:46,2020-11-02 15:13:16,2,DF:DC:EF:28:D6:3E,14,14,-11430.105098874259,17459.0154048934,-18403.569341852788
15645,22275,30952,-14867,-30728,-12525,-12565,-3647,-2834,-30654,14,-1,34452,2020-11-02 15:12:46,2020-11-02 15:13:16,2,DF:DC:EF:28:D6:3E,14,14,-23362.048968180097,30139.95018257919,-14867.0
15646,4613,747,8688,-13065,8210,-3353,8638,18155,5702,14,-1,34478,2020-11-02 15:12:46,2020-11-02 15:13:16,2,DF:DC:EF:28:D6:3E,14,14,-3815.692355362532,-6907.094093527504,-5920.444665089388
15647,11779,-20244,-23055,22262,1550,15844,-22205,-16408,24000,14,-1,34503,2020-11-02 15:12:46,2020-11-02 15:13:16,2,DF:DC:EF:28:D6:3E,14,14,31172.874325601762,10409.07084993393,23.50151684262346
15648,-5889,30960,-11274,12533,-12279,-30493,13370,-32280,31945,14,-1,34529,2020-11-02 15:12:46,2020-11-02 15:13:16,2,DF:DC:EF:28:D6:3E,14,14,5935.565906493865,-29345.628454046535,14963.560572494835
15649,-28162,2038,28412,-2826,7943,-27674,-24526,19178,-23344,14,-1,34554,2020-11-02 15:12:46,2020-11-02 15:13:16,2,DF:DC:EF:28:D6:3E,14,14,628.2236511895389,34206.647560693586,20832.763371732068
15650,6399,-11527,-4098,-20230,-18937,4330,-8403,-25108,23253,14,-1,34580,2020-11-02 15:12:46,2020-11-02 15:13:16,2,DF:DC:EF:28:D6:3E,14,14,-8292.069987409483,5203.070005107517,-9735.613583429313
15651,11264,13052,-6400,9214,17927,15341,299,-3858,-24872,14,-1,34606,2020-11-02 15:12:46,2020-11-02 15:13:16,2,DF:DC:EF:28:D6:3E,14,14,-17240.427914166805,-6.733232363358184,-6400.0
15652,3584,3070,-19198,-25343,24580,21487,-27863,12273,-11046,14,-1,34631,2020-11-02 15:12:46,2020-11-02 15:13:16,2,DF:DC:EF:28:D6:3E,14,14,17037.961772259372,-3358.383007151015,-9447.871835726157
15653,-17664,27645,14338,-21755,-3073,-22032,-29911,28147,-4645,14,1,34657,2020-11-02 15:12:46,2020-11-02 15:13:16,2,DF:DC:EF:28:D6:3E,14,14,-11594.493818218121,-5907.2151329891885,-33354.36534356313
15654,17410,17403,-19456,22284,1282,1264,-30934,-23819,-10532,14,1,34682,2020-11-02 15:12:46,2020-11-02 15:13:16,2,DF:DC:EF:28:D6:3E,14,14,18271.68031143531,15210.58634480398,-20476.625860819215
15655,-27902,32759,-1797,31507,-32764,-9750,29996,3064,-29986,14,1,34708,2020-11-02 15:12:46,2020-11-02 15:13:16,2,DF:DC:EF:28:D6:3E,14,14,-15173.130315732178,-24608.780190292742,-31923.141260967168
15656,32505,-31500,-18441,-27372,-24063,13796,2607,18683,-13088,14,1,34734,2020-11-02 15:12:46,2020-11-02 15:13:16,2,DF:DC:EF:28:D6:3E,14,14,-14168.407990535688,44735.89953598149,13669.34576782283
15657,-2832,-23308,-9481,-3823,13822,-30746,-17615,-8706,3811,14,1,34759,2020-11-02 15:12:46,2020-11-02 15:13:16,2,DF:DC:EF:28:D6:3E,14,14,-12196.070335517084,21736.78631434758,4465.471766287616
15658,-26384,17653,23802,-1007,-14338,-6932,-31436,-24063,-1820,14,1,34785,2020-11-02 15:12:46,2020-11-02 15:13:16,2,DF:DC:EF:28:D6:3E,14,14,35166.526949472405,-17816.82702554969,4489.446074258305
15659,-5909,1270,27387,-6378,18176,-19729,-1737,29699,-2074,14,1,34810,2020-11-02 15:12:46,2020-11-02 15:13:16,2,DF:DC:EF:28:D6:3E,14,14,-27938.21896410158,1270.0,2102.3727342968923
15660,5853,-10,24564,26138,-25603,-5129,15420,-15356,-30232,14,1,34836,2020-11-02 15:12:46,2020-11-02 15:13:16,2,DF:DC:EF:28:D6:3E,14,14,23362.605784744745,250.82399361915805,9579.850900240373
15661,-12836,18160,28914,-23781,26106,519,19008,-26619,9192,14,1,34862,2020-11-02 15:12:46,2020-11-02 15:13:16,2,DF:DC:EF:28:D6:3E,14,14,12438.138219745013,-21455.165207439626,26749.51393106032
15662,-10525,-11030,-21017,19233,15354,5646,-20924,23814,9190,14,1,34887,2020-11-02 15:12:46,2020-11-02 15:13:16,2,DF:DC:EF:28:D6:3E,14,14,-12120.113665015537,-4155.129321479293,-22582.926273379333
15663,31715,-539,9181,14118,-23811,-2800,189,11783,-21021,14,-1,34913,2020-11-02 15:12:46,2020-11-02 15:13:16,2,DF:DC:EF:28:D6:3E,14,14,4725.238798341081,1218.015026828384,-32659.01199811581
15664,-26916,20967,-18739,-10716,-30716,-12007,-11583,-3321,19680,14,-1,34939,2020-11-02 15:12:46,2020-11-02 15:13:16,2,DF:DC:EF:28:D6:3E,14,14,30282.549210828853,21708.44899154685,-11267.063578197169
15665,-22292,26598,-12077,-9960,31245,22056,14788,-8952,27354,14,-1,34964,2020-11-02 15:12:46,2020-11-02 15:13:16,2,DF:DC:EF:28:D6:3E,14,14,23873.709672501212,27774.724647547988,-2975.13936245221
15666,-1534,14317,18143,-20719,12816,-13785,20676,-27639,5587,14,-1,34990,2020-11-02 15:12:46,2020-11-02 15:13:16,2,DF:DC:EF:28:D6:3E,14,14,-11061.513423398077,-16734.062880058747,11580.680217941603
15667,-14593,18928,-22824,-18930,25620,18209,-61,27913,27852,14,-1,35015,2020-11-02 15:12:46,2020-11-02 15:13:16,2,DF:DC:EF:28:D6:3E,14,14,-3200.6576825930188,-32663.465288017847,3874.743188562483
15668,32258,-17174,9944,-14330,-25319,25375,3011,5384,-8763,14,-1,35041,2020-11-02 15:12:46,2020-11-02 15:13:16,2,DF:DC:EF:28:D6:3E,14,14,2977.6490896036375,-36423.322828912555,9944.0
15669,-20470,5866,-35,14845,-18153,-5356,-30015,-3835,-30528,14,-1,35067,2020-11-02 15:12:46,2020-11-02 15:13:16,2,DF:DC:EF:28:D6:3E,14,14,-7434.362606429601,-19147.656327695116,5615.121618682757
15670,22022,-278,-25119,-31241,5654,-17146,-833,7427,-24643,14,-1,35092,2020-11-02 15:12:46,2020-11-02 15:13:16,2,DF:DC:EF:28:D6:3E,14,14,6248.994206623273,-6809.91027320998,-32102.727648541302
15671,3585,-8726,18407,-7949,27412,1278,19902,0,-21316,14,-1,35118,2020-11-02 15:12:46,2020-11-02 15:13:16,2,DF:DC:EF:28:D6:3E,14,14,-2696.6060484840395,-6486.537651876357,-19454.2050752548
15672,-9219,-11029,31722,22260,-28910,-8454,-29764,4093,-10820,14,-1,35143,2020-11-02 15:12:46,2020-11-02 15:13:16,2,DF:DC:EF:28:D6:3E,14,14,-33210.29994043518,-10368.273884549273,-1577.6439779952925
15673,-18948,-28947,-15891,14584,3348,-21510,6075,5626,23997,14,1,35169,2020-11-02 15:12:46,2020-11-02 15:13:16,2,DF:DC:EF:28:D6:3E,14,14,10668.572551778176,15822.563590963526,-32944.004539784786
15674,22786,24046,30954,-8710,19221,-10758,7098,-5130,-67,14,1,35195,2020-11-02 15:12:46,2020-11-02 15:13:16,2,DF:DC:EF:28:D6:3E,14,14,22786.0,-13054.78361683834,36958.52887653308
15675,-27130,-8466,-23828,17913,3093,-31756,15941,-22029,28607,14,1,35246,2020-11-02 15:12:46,2020-11-02 15:13:16,2,DF:DC:EF:28:D6:3E,14,14,1712.425496675849,-36554.889473453455,-6024.225635045201
15676,-27899,7919,-9230,505,2834,20974,27458,7921,-26686,14,1,35248,2020-11-02 15:12:46,2020-11-02 15:13:16,2,DF:DC:EF:28:D6:3E,14,14,19034.794009702826,-3433.199173487581,23497.81739743812
15677,1539,-2832,14581,-3077,26130,-18710,-26050,12271,22471,14,1,35271,2020-11-02 15:12:46,2020-11-02 15:13:16,2,DF:DC:EF:28:D6:3E,14,14,12439.006419900106,7503.517237832331,3458.7070340283144
15678,-12031,12276,13048,-3075,2064,-16407,17466,17902,1741,14,1,35297,2020-11-02 15:12:46,2020-11-02 15:13:16,2,DF:DC:EF:28:D6:3E,14,14,10332.16779689022,-13994.481753432214,12770.913439130243
15679,-23042,-12553,-32259,768,16908,-14871,12598,-29970,-23854,14,1,35323,2020-11-02 15:12:46,2020-11-02 15:13:16,2,DF:DC:EF:28:D6:3E,14,14,-23140.35350153571,-26075.73777949037,22665.714043003863
15680,25598,29946,-1795,31490,-21495,13291,17715,-16913,18647,14,1,35348,2020-11-02 15:12:46,2020-11-02 15:13:16,2,DF:DC:EF:28:D6:3E,14,14,20097.763649356344,26825.262223442038,20778.059291911362
15681,27901,-7173,-28673,-20987,17672,-22803,-31439,13553,3803,14,1,35374,2020-11-02 15:12:46,2020-11-02 15:13:16,2,DF:DC:EF:28:D6:3E,14,14,-25261.112787743215,25460.52687108845,-19123.190402532193
15682,-20229,24831,19709,-18424,16134,-26640,561,-24078,-2339,14,1,35399,2020-11-02 15:12:46,2020-11-02 15:13:16,2,DF:DC:EF:28:D6:3E,14,14,28138.37718647396,24831.0,2426.6955539831524
15683,-28933,16639,30207,32266,-20478,19699,25137,-1293,2016,14,-1,35425,2020-11-02 15:12:46,2020-11-02 15:13:16,2,DF:DC:EF:28:D6:3E,14,14,-28933.0,11984.756768216948,-32337.049574855744
15684,-3077,8444,11265,-32754,15616,-21259,-20686,15605,25057,14,-1,35451,2020-11-02 15:12:46,2020-11-02 15:13:16,2,DF:DC:EF:28:D6:3E,14,14,1376.3002420586517,11950.498648884626,7934.7759695353725
15685,-1288,-8457,-12032,30995,-7940,19447,309,31222,15586,14,-1,35476,2020-11-02 15:12:46,2020-11-02 15:13:16,2,DF:DC:EF:28:D6:3E,14,14,3040.561108297992,13678.406533972438,-4648.117881259661
15686,-14859,-10764,-31233,-234,-20745,-29192,14648,248,-29470,14,-1,35502,2020-11-02 15:12:46,2020-11-02 15:13:16,2,DF:DC:EF:28:D6:3E,14,14,-35743.87854959388,-4921.98750036659,3209.836643525261
15687,-14093,28917,-30220,-31463,1014,31477,-1733,3066,-4382,14,-1,35527,2020-11-02 15:12:46,2020-11-02 15:13:16,2,DF:DC:EF:28:D6:3E,14,14,-14093.0,28917.0,-30220.0
15688,24039,-10765,14574,16411,10227,-29451,-5057,29692,-7453,14,-1,35553,2020-11-02 15:12:46,2020-11-02 15:13:16,2,DF:DC:EF:28:D6:3E,14,14,-12925.058410717564,205.55460963217956,27185.673329568246
15689,2531,6385,12774,-24804,-28942,-24838,17732,-7682,-26396,14,-1,35579,2020-11-02 15:12:46,2020-11-02 15:13:16,2,DF:DC:EF:28:D6:3E,14,14,-1205.8444502764532,13824.59015010954,-4216.148520063274
15690,30170,-18708,2784,-4326,32243,-4606,-1349,8193,-14108,14,-1,35604,2020-11-02 15:12:46,2020-11-02 15:13:16,2,DF:DC:EF:28:D6:3E,14,14,-24769.601347884945,-9167.28047432255,-23882.97799211734
15691,-7202,-1305,-22565,-1764,-10499,-20973,9152,-10750,6115,14,-1,35630,2020-11-02 15:12:46,2020-11-02 15:13:16,2,DF:DC:EF:28:D6:3E,14,14,-11444.515236112467,16014.12887318559,-13240.913920247096
15692,17901,-23580,-31528,1311,-27379,17956,13508,-19453,26846,14,-1,35656,2020-11-02 15:12:46,2020-11-02 15:13:16,2,DF:DC:EF:28:D6:3E,14,14,39938.805767839716,-12629.640297131373,10763.87313209553
15693,20994,-26391,-2595,10265,3352,2859,13767,17156,12247,14,-1,35707,2020-11-02 15:12:46,2020-11-02 15:13:16,2,DF:DC:EF:28:D6:3E,14,14,175.6733852681159,-32445.031794888575,-9552.80025387206
15694,23555,3053,28374,-25071,-32236,-26844,-5688,5893,13008,14,-1,35709,2020-11-02 15:12:46,2020-11-02 15:13:16,2,DF:DC:EF:28:D6:3E,14,14,-18008.19057257283,32012.261489143482,-4490.311420447402
15695,31237,-24347,22487,-4858,28439,-28126,-1080,-7163,-15415,14,-1,35732,2020-11-02 15:12:46,2020-11-02 15:13:16,2,DF:DC:EF:28:D6:3E,14,14,-21287.754487810922,11991.199218863643,38434.80710450112
15696,-32500,2279,-18207,-5123,11801,22296,-26681,28165,-21821,14,-1,35758,2020-11-02 15:12:46,2020-11-02 15:13:16,2,DF:DC:EF:28:D6:3E,14,14,-9087.81341910317,-13709.115543479946,-33502.3952617583
15697,-13307,22251,22245,29947,32279,-20726,9414,-25853,-27969,14,-1,35784,2020-11-02 15:12:46,2020-11-02 15:13:16,2,DF:DC:EF:28:D6:3E,14,14,-15825.392969718685,28567.481945620624,-10023.93074799592
15698,-15619,-15637,-5149,-3847,4378,22534,3525,-8448,-23108,14,-1,35809,2020-11-02 15:12:46,2020-11-02 15:13:16,2,DF:DC:EF:28:D6:3E,14,14,14518.14317808581,7113.406858378976,-15924.951884629587
15699,-7681,-8471,26344,8697,19736,-17150,7876,-13315,15802,14,-1,35835,2020-11-02 15:12:46,2020-11-02 15:13:16,2,DF:DC:EF:28:D6:3E,14,14,25677.402311243124,8161.10158564745,-9941.296165757714
15700,3332,-26391,14825,-30984,4120,-21252,22467,29434,22085,14,-1,35860,2020-11-02 15:12:46,2020-11-02 15:13:16,2,DF:DC:EF:28:D6:3E,14,14,-21796.014758346635,-21170.80094232558,-2024.5142909750148
15701,769,30698,-9750,-22537,23573,-27403,19650,-9226,1861,14,-1,35886,2020-11-02 15:12:46,2020-11-02 15:13:16,2,DF:DC:EF:28:D6:3E,14,14,-11352.08278966224,-29014.869582056766,8202.964371060698
15702,-9726,-25622,-27155,-8714,22803,15346,-25152,28403,-10171,14,-1,35912,2020-11-02 15:12:46,2020-11-02 15:13:16,2,DF:DC:EF:28:D6:3E,14,14,35491.64775879007,13757.921706194471,-6287.965862836317
15703,3843,-2326,1778,18935,6162,7662,7358,7152,15547,14,-1,35937,2020-11-02 15:12:46,2020-11-02 15:13:16,2,DF:DC:EF:28:D6:3E,14,14,1988.091998815418,2271.1013340001255,-3772.240439705424
15704,26368,-24082,9718,27898,16657,16364,-25158,11245,-14402,14,1,35963,2020-11-02 15:12:46,2020-11-02 15:13:16,2,DF:DC:EF:28:D6:3E,14,14,10303.464246431546,2360.884217184873,-35467.147083400356
15705,-15619,-25101,28409,-23809,-1008,11502,17731,-17942,29891,14,1,35988,2020-11-02 15:12:46,2020-11-02 15:13:16,2,DF:DC:EF:28:D6:3E,14,14,25638.497749246828,-13201.105756620007,29145.889640983674
15706,-29699,-7177,8699,-9981,-25073,26353,17983,-9240,-20280,14,1,36014,2020-11-02 15:12:46,2020-11-02 15:13:16,2,DF:DC:EF:28:D6:3E,14,14,8697.388110496238,-4697.205012870294,-30191.128434069255
15707,20994,8185,6141,26629,12047,-21261,12347,32743,16846,14,1,36040,2020-11-02 15:12:46,2020-11-02 15:13:16,2,DF:DC:EF:28:D6:3E,14,14,7646.677817240976,4895.03394809988,21517.925155699017
15708,31749,24312,17665,29191,-22773,-22031,-26058,-5146,-32556,14,1,36065,2020-11-02 15:12:46,2020-11-02 15:13:16,2,DF:DC:EF:28:D6:3E,14,14,37064.4024788723,22144.846210525022,6852.767703370644
15709,30211,-1289,-28924,29963,14085,1519,-462,-15385,12250,14,1,36091,2020-11-02 15:12:46,2020-11-02 15:13:16,2,DF:DC:EF:28:D6:3E,14,14,-4540.907018920246,13019.527224364912,39507.41566212022
15710,768,-31498,-6906,-32494,22017,2798,-6863,-29207,10974,14,1,36116,2020-11-02 15:12:46,2020-11-02 15:13:16,2,DF:DC:EF:28:D6:3E,14,14,31127.251193835153,6224.363710085632,5723.477397566725
15711,7673,-19723,-4867,6426,17920,14320,6195,-32533,5601,14,1,36168,2020-11-02 15:12:46,2020-11-02 15:13:16,2,DF:DC:EF:28:D6:3E,14,14,-16259.722387088688,-6560.94309557729,-12811.510472672755
15712,-9,-20491,-31498,11549,-16642,504,4150,-12564,-11806,14,1,36170,2020-11-02 15:12:46,2020-11-02 15:13:16,2,DF:DC:EF:28:D6:3E,14,14,-30552.85467539572,-17519.374168522416,13099.609380720462
15713,-18695,13045,19188,23325,17403,16894,32058,-24083,-30,14,1,36193,2020-11-02 15:12:46,2020-11-02 15:13:16,2,DF:DC:EF:28:D6:3E,14,14,6872.106449715025,22100.21219160409,18767.23655815792
15714,-15619,-24590,-20233,-16097,28920,-30723,29247,-20754,-23326,14,-1,36219,2020-11-02 15:12:46,2020-11-02 15:13:16,2,DF:DC:EF:28:D6:3E,14,14,11500.873116965107,27038.095305375322,-19866.224346989296
15715,-16,15604,-14106,-7650,-28937,30202,2884,10480,16611,14,-1,36245,2020-11-02 15:12:46,2020-11-02 15:13:16,2,DF:DC:EF:28:D6:3E,14,14,-9245.504087658228,-17294.585207235483,-7608.040790819054
15716,26083,-24837,10717,-30957,-18700,-15867,15803,-7695,8931,14,-1,36270,2020-11-02 15:12:46,2020-11-02 15:13:16,2,DF:DC:EF:28:D6:3E,14,14,19412.646863854105,31327.050331738872,7336.1165647769785
15717,7657,-3850,-27939,12042,11509,-3051,-27970,31476,-22304,14,-1,36296,2020-11-02 15:12:46,2020-11-02 15:13:16,2,DF:DC:EF:28:D6:3E,14,14,15759.4717500207,-21653.554092544517,11696.26074100385
15718,30192,-8212,27108,30731,-30210,25887,10434,-21514,17628,14,-1,36321,2020-11-02 15:12:46,2020-11-02 15:13:16,2,DF:DC:EF:28:D6:3E,14,14,34516.7350191753,22602.75319731674,-3398.2382961212534
15719,-10767,-33,476,-8437,5374,15399,-9531,29945,7383,14,-1,36347,2020-11-02 15:12:46,2020-11-02 15:13:16,2,DF:DC:EF:28:D6:3E,14,14,-2119.8622676770397,-2593.163793948946,-10243.907433388466
15720,16637,1756,-6192,8972,10242,-7377,-11064,-23299,32465,14,-1,36398,2020-11-02 15:12:46,2020-11-02 15:13:16,2,DF:DC:EF:28:D6:3E,14,14,-8206.721916919341,12719.380860815016,-9438.28559092637
15721,15116,19162,-31272,27401,14607,-13008,-25142,28161,-14390,14,-1,36400,2020-11-02 15:12:46,2020-11-02 15:13:16,2,DF:DC:EF:28:D6:3E,14,14,25247.619088503943,28393.79147612971,-11400.176313192498
15722,8982,10979,15326,-7677,31504,-2018,-11830,-28669,-24636,14,-1,36424,2020-11-02 15:12:46,2020-11-02 15:13:16,2,DF:DC:EF:28:D6:3E,14,14,1500.6459096135877,-16067.943568656037,-13254.067010862931
15723,-22517,-29722,26077,26109,31763,10000,5834,-24317,24512,14,-1,36449,2020-11-02 15:12:46,2020-11-02 15:13:16,2,DF:DC:EF:28:D6:3E,14,14,-32978.06285422189,19955.864833680193,24179.192110632575
15724,28934,-28953,-28187,2041,26390,26888,-15416,8962,-6212,14,-1,36475,2020-11-02 15:12:46,2020-11-02 15:13:16,2,DF:DC:EF:28:D6:3E,14,14,14320.508754501516,-47440.03410239383,-3784.9342630957426
15725,-23037,10216,496,-11271,-26601,-16637,-25657,-15617,7098,14,-1,36500,2020-11-02 15:12:46,2020-11-02 15:13:16,2,DF:DC:EF:28:D6:3E,14,14,7475.482247787481,-1411.4244029190274,-24030.0038975831
15726,-8957,-19735,-6924,15102,5144,-20736,18631,-3844,25412,14,-1,36526,2020-11-02 15:12:46,2020-11-02 15:13:16,2,DF:DC:EF:28:D6:3E,14,14,21380.199139145963,-6630.568492053802,4069.7046874000043
15727,-30207,4842,-15631,-26623,-10986,-5124,-10553,-9223,28738,14,1,36552,2020-11-02 15:12:46,2020-11-02 15:13:16,2,DF:DC:EF:28:D6:3E,14,14,-11745.293269699498,2559.2330174296367,-32182.827507402915
15728,-21247,-6168,29678,22784,-7147,-21510,-26168,-12298,-10432,14,1,36577,2020-11-02 15:12:46,2020-11-02 15:13:16,2,DF:DC:EF:28:D6:3E,14,14,1093.9655805619386,-35811.89768493325,-9304.522583798607
15729,13827,-26136,12789,12288,29716,-11274,15817,-23565,32575,14,1,36603,2020-11-02 15:12:46,2020-11-02 15:13:16,2,DF:DC:EF:28:D6:3E,14,14,-9529.792216818214,29562.48117397524,8548.550353283912
15730,-3071,-5399,26872,8196,-13806,-15374,7626,19440,-16834,14,1,36628,2020-11-02 15:12:46,2020-11-02 15:13:16,2,DF:DC:EF:28:D6:3E,14,14,-25064.594065580382,6579.2391637398105,-9442.688301219365
15731,11778,-16149,2811,7689,-31983,-23568,-25653,-11028,15166,14,1,36654,2020-11-02 15:12:46,2020-11-02 15:13:16,2,DF:DC:EF:28:D6:3E,14,14,-15235.190020219317,13036.264095102126,2314.7374560759295
15732,-2046,16878,2555,22027,17676,8943,22989,-26647,11070,14,1,36680,2020-11-02 15:12:46,2020-11-02 15:13:16,2,DF:DC:EF:28:D6:3E,14,14,2472.83014443463,-12988.565409226481,10989.235855464236
15733,-29694,-8464,-20995,7180,-15352,1517,24014,-31258,5183,14,1,36705,2020-11-02 15:12:46,2020-11-02 15:13:16,2,DF:DC:EF:28:D6:3E,14,14,10878.953153431114,-10356.628782000342,34184.08365829474
15734,-28669,-17166,28672,-27891,-6140,29419,-25395,-26909,578,14,1,36731,2020-11-02 15:12:46,2020-11-02 15:13:16,2,DF:DC:EF:28:D6:3E,14,14,-5275.957647233241,-10478.594749724154,42438.544084071196
15735,2,21491,-15360,23311,-24320,-536,8391,1761,23486,14,1,36757,2020-11-02 15:12:46,2020-11-02 15:13:16,2,DF:DC:EF:28:D6:3E,14,14,18568.07641779272,-16039.72605462829,9785.009516371878
15736,-9474,5108,-11010,25871,18172,-14360,-4799,-26656,-9262,14,1,36782,2020-11-02 15:12:46,2020-11-02 15:13:16,2,DF:DC:EF:28:D6:3E,14,14,3142.1079866047357,4560.423435876092,14366.563106255679
15737,-14341,9717,20478,-15604,-11529,-11543,-10953,-3358,23263,14,1,36808,2020-11-02 15:12:46,2020-11-02 15:13:16,2,DF:DC:EF:28:D6:3E,14,14,26388.15548574699,-3841.7546422500363,2887.7370601894363
15738,-7688,30197,-4866,-4343,-32016,22509,17206,20966,-12318,14,1,36833,2020-11-02 15:12:46,2020-11-02 15:13:16,2,DF:DC:EF:28:D6:3E,14,14,-30259.343764904013,4069.164749187149,-7902.918585012563
15739,-21255,4083,29951,-32503,-20249,-25873,-11465,27626,-22046,14,1,36859,2020-11-02 15:12:46,2020-11-02 15:13:16,2,DF:DC:EF:28:D6:3E,14,14,-22270.656617898007,-28967.972017089534,-5512.056424311451
15740,-22540,5368,16888,-5104,7143,-28692,-4039,14831,-24094,14,1,36885,2020-11-02 15:12:46,2020-11-02 15:13:16,2,DF:DC:EF:28:D6:3E,14,14,-20231.152016384076,15211.632167107431,13467.676225042724
15741,-32540,-15363,14826,-2025,6389,-4109,-25540,-7694,-11805,14,1,36910,2020-11-02 15:12:46,2020-11-02 15:13:16,2,DF:DC:EF:28:D6:3E,14,14,-1220.009072375593,165.98885736029342,-38899.45591602219
15742,-3863,9723,-10515,2073,27136,16903,-31168,-26381,-25373,14,1,36936,2020-11-02 15:12:46,2020-11-02 15:13:16,2,DF:DC:EF:28:D6:3E,14,14,-14505.387792176072,-2850.8233559318314,-1221.1691905149169
15743,23286,24820,12528,-15593,13310,21777,-19643,28403,-1824,14,1,36961,2020-11-02 15:12:46,2020-11-02 15:13:16,2,DF:DC:EF:28:D6:3E,14,14,-3183.6316916421147,-22803.66230464904,28019.251502270723
15744,-17933,-7694,-19224,6166,23797,-1009,4798,-6924,8158,14,1,36987,2020-11-02 15:12:46,2020-11-02 15:13:16,2,DF:DC:EF:28:D6:3E,14,14,9979.32523366036,1301.7020739091895,-25476.870698569128
15745,27368,3057,18397,-9453,10998,7188,16066,30455,-11813,14,1,37013,2020-11-02 15:12:46,2020-11-02 15:13:16,2,DF:DC:EF:28:D6:3E,14,14,-21544.30856609674,-3819.9946789058263,24860.665539400623
15746,12777,5862,-2864,27667,-13310,-20190,27078,10234,-297,14,1,37038,2020-11-02 15:12:46,2020-11-02 15:13:16,2,DF:DC:EF:28:D6:3E,14,14,4745.6241018079445,-5999.1412520644,-12136.994072756183
15747,-5121,10970,31443,-17139,-30189,-17616,14794,-4868,21713,14,1,37064,2020-11-02 15:12:46,2020-11-02 15:13:16,2,DF:DC:EF:28:D6:3E,14,14,9748.75052289273,32101.683745451835,-3109.912209274071
15748,-18413,-23844,26075,-31994,4380,-10197,16844,16383,26057,14,1,37089,2020-11-02 15:12:46,2020-11-02 15:13:16,2,DF:DC:EF:28:D6:3E,14,14,3892.958582604342,25600.381414548458,30281.11416219306
15749,-1004,32480,31962,2559,17437,-23265,-26676,25088,29890,14,1,37115,2020-11-02 15:12:46,2020-11-02 15:13:16,2,DF:DC:EF:28:D6:3E,14,14,-44159.462191720995,-10835.726672388055,-3171.243670748332
15750,-30702,-27680,-29217,-28936,-28130,20754,-17205,-13569,-25412,14,-1,37141,2020-11-02 15:12:46,2020-11-02 15:13:16,2,DF:DC:EF:28:D6:3E,14,14,-6456.376455119651,-28140.238245163368,-41579.68840161289
15751,-16114,2016,18663,25844,32540,1286,25290,-24323,-6588,14,-1,37166,2020-11-02 15:12:46,2020-11-02 15:13:16,2,DF:DC:EF:28:D6:3E,14,14,10855.122659920085,6796.54451875234,21166.154956503247
15752,-20730,-21792,19435,-21773,-1509,16637,6089,25338,322,14,-1,37192,2020-11-02 15:12:46,2020-11-02 15:13:16,2,DF:DC:EF:28:D6:3E,14,14,19480.760715551158,-28128.25643921997,-10566.19802165941
15753,-16636,-9504,20718,3060,18970,-24071,-3385,-17674,-2497,14,-1,37217,2020-11-02 15:12:46,2020-11-02 15:13:16,2,DF:DC:EF:28:D6:3E,14,14,13545.790846460679,-9504.0,-22858.33699865198
15754,-28152,6113,-26126,-22026,16665,14323,199,-19214,-18882,14,-1,37243,2020-11-02 15:12:46,2020-11-02 15:13:16,2,DF:DC:EF:28:D6:3E,14,14,-30378.694998593153,-10505.172229852873,21891.733499281854
15755,-4604,16355,-2317,-8198,-32236,32492,-14651,-31762,7487,14,-1,37269,2020-11-02 15:12:46,2020-11-02 15:13:16,2,DF:DC:EF:28:D6:3E,14,14,-411.17944656265627,-17136.553227620487,469.89886109065395
15756,-2046,-539,-30989,4094,-27629,-4631,-16445,27626,14913,14,-1,37294,2020-11-02 15:12:46,2020-11-02 15:13:16,2,DF:DC:EF:28:D6:3E,14,14,29077.713538481563,3637.2371085298428,-10298.147386318553
15757,22274,-9495,-18441,2049,-9455,10985,9408,-25114,25157,14,-1,37320,2020-11-02 15:12:46,2020-11-02 15:13:16,2,DF:DC:EF:28:D6:3E,14,14,26258.9860124678,14511.684653687465,-5121.839914420593
15758,14338,-1042,23290,15110,-32241,-31255,-22459,-19229,5313,14,-1,37345,2020-11-02 15:12:46,2020-11-02 15:13:16,2,DF:DC:EF:28:D6:3E,14,14,-10961.470220385854,4318.257169171971,24703.986189044248
15759,11777,20722,-32517,-9974,-28659,2282,-19655,-30494,-2610,14,-1,37371,2020-11-02 15:12:46,2020-11-02 15:13:16,2,DF:DC:EF:28:D6:3E,14,14,31405.811301798116,-25103.423816637132,-2991.2256949526964
15760,3328,-15628,-26885,-19187,-13559,-1302,28463,-22045,-22565,14,-1,37397,2020-11-02 15:12:46,2020-11-02 15:13:16,2,DF:DC:EF:28:D6:3E,14,14,5939.44725470804,11080.556127063217,-28636.64497149662
15761,-17153,-24330,13307,13,3590,24044,14635,-6171,23522,14,1,37422,2020-11-02 15:12:46,2020-11-02 15:13:16,2,DF:DC:EF:28:D6:3E,14,14,-10651.062645086844,-9310.245319712558,-29378.98491468359
15762,2303,-26633,-29186,-9205,27650,-4883,7722,24552,-21275,14,1,37448,2020-11-02 15:12:46,2020-11-02 15:13:16,2,DF:DC:EF:28:D6:3E,14,14,-25680.30665529109,-13932.737854030958,26699.13406800051
15763,-27137,16119,-30974,-17394,24063,17647,-14806,-12310,19175,14,1,37473,2020-11-02 15:12:46,2020-11-02 15:13:16,2,DF:DC:EF:28:D6:3E,14,14,-7849.620921154892,36343.89962349755,-23940.175804519517
15764,-31489,-13323,-26366,-12012,25853,16880,-16340,7917,23016,14,1,37499,2020-11-02 15:12:46,2020-11-02 15:13:16,2,DF:DC:EF:28:D6:3E,14,14,-15525.407165272574,10220.469619502986,38970.87552402845
15765,27388,4340,11006,-24807,6652,-6416,-13265,27119,16361,14,1,37525,2020-11-02 15:12:46,2020-11-02 15:13:16,2,DF:DC:EF:28:D6:3E,14,14,-2693.214757858348,-13823.767128811569,26300.574834714975
15766,13048,-27917,-27141,-15334,-15878,15860,24627,30193,3562,14,1,37550,2020-11-02 15:12:46,2020-11-02 15:13:16,2,DF:DC:EF:28:D6:3E,14,14,-33570.43320436233,-2292.607561503024,23537.481578121013
15767,-13325,21747,6647,29211,-19977,2296,25911,19187,23018,14,1,37576,2020-11-02 15:12:46,2020-11-02 15:13:16,2,DF:DC:EF:28:D6:3E,14,14,-13654.445406951694,-1758.445554626751,22475.19149773788
15768,4846,19953,18161,20509,27384,-22273,-1221,-14860,5098,14,1,37601,2020-11-02 15:12:46,2020-11-02 15:13:16,2,DF:DC:EF:28:D6:3E,14,14,-18530.398138488657,19953.0,-3151.1873681354
15769,-28950,-18450,28900,-737,-13831,-13303,-32703,-29195,-21784,14,1,37627,2020-11-02 15:12:46,2020-11-02 15:13:16,2,DF:DC:EF:28:D6:3E,14,14,12493.649278114945,35060.450322175035,25067.67940838868
15770,-19738,-5138,23248,-28903,17142,-13807,-28486,-7690,2278,14,1,37653,2020-11-02 15:12:46,2020-11-02 15:13:16,2,DF:DC:EF:28:D6:3E,14,14,5394.446707368448,-14235.723486921475,-26920.276995701104
15771,-9495,-15124,-18990,-29426,-773,-24038,-19010,-14600,29922,14,1,37678,2020-11-02 15:12:46,2020-11-02 15:13:16,2,DF:DC:EF:28:D6:3E,14,14,7509.039468235206,17951.555057359168,-17345.503690786507
15772,-6674,-19735,20189,-9973,10504,36,10946,-7687,21981,14,1,37704,2020-11-02 15:12:46,2020-11-02 15:13:16,2,DF:DC:EF:28:D6:3E,14,14,2725.1049864678826,27542.387416643942,-8694.763953335445
15773,-21259,-23575,8410,29450,-12022,25899,30661,25851,-7210,14,-1,37730,2020-11-02 15:12:46,2020-11-02 15:13:16,2,DF:DC:EF:28:D6:3E,14,14,-1552.5534479673888,4966.933839265144,-32424.88168101107
15774,18941,-16157,24272,6917,-21237,15664,-22841,-515,208,14,-1,37755,2020-11-02 15:12:46,2020-11-02 15:13:16,2,DF:DC:EF:28:D6:3E,14,14,18941.0,19420.573603202494,-21749.021907262737
15775,-32498,-23589,-4136,-20994,-9964,-21967,712,32000,24008,14,-1,37781,2020-11-02 15:12:46,2020-11-02 15:13:16,2,DF:DC:EF:28:D6:3E,14,14,-14419.053628568687,19393.785587889128,-32336.347877078577
15776,-1769,-20005,-15135,-5381,-5094,-16604,18375,1281,-15168,14,-1,37806,2020-11-02 15:12:46,2020-11-02 15:13:16,2,DF:DC:EF:28:D6:3E,14,14,20686.741447875105,-7521.985447466901,12160.430674810097
15777,-21228,-16670,16863,17658,-23783,273,31430,-22273,28347,14,-1,37832,2020-11-02 15:12:46,2020-11-02 15:13:16,2,DF:DC:EF:28:D6:3E,14,14,-3161.839560741304,-21165.324711692643,-23556.516156697362
15778,27657,-13596,-31518,31990,-20198,21509,-31547,-5892,-15804,14,-1,37858,2020-11-02 15:12:46,2020-11-02 15:13:16,2,DF:DC:EF:28:D6:3E,14,14,10060.478891025361,-41376.589066250745,11397.79938083894
15779,27910,-5658,13549,-9226,-24292,-23809,-28476,21753,26690,14,-1,37883,2020-11-02 15:12:46,2020-11-02 15:13:16,2,DF:DC:EF:28:D6:3E,14,14,14311.226066760852,26599.162671166174,9068.065871998528
15780,-30716,-7706,-13072,15100,24864,-27397,-32316,-3084,27200,14,-1,37909,2020-11-02 15:12:46,2020-11-02 15:13:16,2,DF:DC:EF:28:D6:3E,14,14,27909.58554045078,16481.28478416551,-11097.502548929438
15781,14084,8679,-30480,-29183,21790,20727,32453,18928,-20930,14,-1,37934,2020-11-02 15:12:46,2020-11-02 15:13:16,2,DF:DC:EF:28:D6:3E,14,14,12396.920551996827,28803.815594797525,14811.18040563876
15782,-250,-10267,-28689,21762,8986,-17678,-12858,-10773,28221,14,-1,37960,2020-11-02 15:12:46,2020-11-02 15:13:16,2,DF:DC:EF:28:D6:3E,14,14,-4719.293454542396,27909.21637203723,11284.344056644251
15783,27397,-18201,-21003,-30461,16147,-13332,-314,-19737,-16067,14,-1,37986,2020-11-02 15:12:46,2020-11-02 15:13:16,2,DF:DC:EF:28:D6:3E,14,14,-6496.48060456634,29541.896809426315,24659.077266915338
15784,-9978,-10776,-25353,-10747,273,13287,8644,-17181,-21439,14,-1,38011,2020-11-02 15:12:46,2020-11-02 15:13:16,2,DF:DC:EF:28:D6:3E,14,14,-22415.65090930547,-18863.590512974275,401.01904066980387
15785,-22013,26091,-21512,-22777,-9204,228,-1726,-13600,21188,14,-1,38037,2020-11-02 15:12:46,2020-11-02 15:13:16,2,DF:DC:EF:28:D6:3E,14,14,-32115.978714999128,-21776.723458935252,-11064.213508911605
15786,2049,-24593,4859,4360,-7161,13028,-14546,4578,7898,14,-1,38062,2020-11-02 15:12:46,2020-11-02 15:13:16,2,DF:DC:EF:28:D6:3E,14,14,-11222.637583455751,9640.99429538341,20340.294139141424
15787,2304,-12044,-5125,24328,-15868,16614,-6104,31717,-25887,14,-1,38088,2020-11-02 15:12:46,2020-11-02 15:13:16,2,DF:DC:EF:28:D6:3E,14,14,12378.099974757306,2221.6430706236733,4298.711444335726
15788,16639,-25864,-4866,-1272,26116,24553,21543,-9496,-10012,14,-1,38114,2020-11-02 15:12:46,2020-11-02 15:13:16,2,DF:DC:EF:28:D6:3E,14,14,26450.454448011522,7467.238052641604,14631.97144471137
15789,-5891,17146,-28928,14347,10243,7405,16167,-14101,-10266,14,-1,38139,2020-11-02 15:12:46,2020-11-02 15:13:16,2,DF:DC:EF:28:D6:3E,14,14,3880.5805530746566,29434.459545014695,-16854.43760153368
15790,-6147,-19718,-20480,26637,-9217,-8208,24872,13294,-6937,14,-1,38165,2020-11-02 15:12:46,2020-11-02 15:13:16,2,DF:DC:EF:28:D6:3E,14,14,13093.443925809073,-25223.8852110715,-6191.354780690732
15791,-30467,-18439,25854,7952,-9475,15347,22570,14832,25320,14,-1,38190,2020-11-02 15:12:46,2020-11-02 15:13:16,2,DF:DC:EF:28:D6:3E,14,14,19525.735672802002,261.87132865708554,39437.81428835901
15792,23289,18169,15101,30740,21502,-29706,-4308,-7951,-12312,14,-1,38216,2020-11-02 15:12:46,2020-11-02 15:13:16,2,DF:DC:EF:28:D6:3E,14,14,16572.607571949473,-7448.261783634654,27756.122886105877
15793,2294,-17160,24315,-28902,-16128,-24325,22576,-11534,21481,14,-1,38242,2020-11-02 15:12:46,2020-11-02 15:13:16,2,DF:DC:EF:28:D6:3E,14,14,-24817.26202805565,-10156.36589448106,13111.025827457172
15794,-28172,5113,6133,-27360,-5632,28161,-6348,-9230,32233,14,-1,38267,2020-11-02 15:12:46,2020-11-02 15:13:16,2,DF:DC:EF:28:D6:3E,14,14,3516.1293126938026,16045.866252849517,-24240.15372995973
15795,14059,20468,-18463,-30172,-9217,-13045,1083,28914,29160,14,-1,38293,2020-11-02 15:12:46,2020-11-02 15:13:16,2,DF:DC:EF:28:D6:3E,14,14,25780.639625337415,-14995.587607604779,8244.261447281518
15796,-2571,25835,-4133,13854,-25338,-27102,-958,5105,-13597,14,-1,38319,2020-11-02 15:12:46,2020-11-02 15:13:16,2,DF:DC:EF:28:D6:3E,14,14,24561.61253880419,-8413.349837826596,-4133.0
15797,-13815,-13846,-21529,23319,12813,4391,-20289,-18449,-21029,14,1,38344,2020-11-02 15:12:46,2020-11-02 15:13:16,2,DF:DC:EF:28:D6:3E,14,14,-8783.580204317075,-12029.18446809493,-24984.21945602609
15798,25607,5876,-3100,24592,-8707,27415,-17978,-5392,-23595,14,1,38370,2020-11-02 15:12:46,2020-11-02 15:13:16,2,DF:DC:EF:28:D6:3E,14,14,-12004.303898916603,23467.76529368946,2239.755572101601
15799,3322,-20486,-18214,-32762,30698,11,-28984,12020,10197,14,1,38395,2020-11-02 15:12:46,2020-11-02 15:13:16,2,DF:DC:EF:28:D6:3E,14,14,-22743.66781299153,-13850.38202530493,7304.393757554643
15800,12267,-16396,19922,-29952,23023,-23789,-24120,12536,30165,14,1,38421,2020-11-02 15:12:46,2020-11-02 15:13:16,2,DF:DC:EF:28:D6:3E,14,14,-12188.205362288278,25832.443865108886,-571.5618975102807
15801,-7687,-19493,5333,10752,7427,-15833,25801,6652,6354,14,1,38446,2020-11-02 15:12:46,2020-11-02 15:13:16,2,DF:DC:EF:28:D6:3E,14,14,-11239.535531680414,13547.52644370814,12555.68697001969
15802,26898,-8748,30434,-28929,6417,-26582,2506,511,-16181,14,1,38472,2020-11-02 15:12:46,2020-11-02 15:13:16,2,DF:DC:EF:28:D6:3E,14,14,-19148.051499316098,-20817.829660642787,30434.0
15803,-18664,-27172,-23584,20221,19216,8218,-2103,22528,13254,14,1,38498,2020-11-02 15:12:46,2020-11-02 15:13:16,2,DF:DC:EF:28:D6:3E,14,14,18403.20224257613,25082.530104227913,25981.846870254267
15804,14866,13795,-11809,-21771,-24818,-17400,-7992,-5633,-2878,14,1,38523,2020-11-02 15:12:46,2020-11-02 15:13:16,2,DF:DC:EF:28:D6:3E,14,14,14866.0,-2483.4605501454625,-17988.522165421797
15805,27404,-12572,29413,1263,12302,-6911,-19258,29182,12481,14,1,38549,2020-11-02 15:12:46,2020-11-02 15:13:16,2,DF:DC:EF:28:D6:3E,14,14,-29238.379521007806,24004.59145998529,18521.763437230064
15806,21770,15079,-6681,5614,24846,10239,11460,-30980,4800,14,1,38574,2020-11-02 15:12:46,2020-11-02 15:13:16,2,DF:DC:EF:28:D6:3E,14,14,21989.49537221894,-200.06203967198053,-16197.745844883602
15807,-18424,24040,-14872,-13330,8207,-20228,-20031,21242,30399,14,1,38600,2020-11-02 15:12:46,2020-11-02 15:13:16,2,DF:DC:EF:28:D6:3E,14,14,-19206.909549956737,-26370.04490821709,-8617.256934686038
15808,-7417,-6936,-29464,14832,1810,-29704,17855,-24073,32703,14,1,38626,2020-11-02 15:12:46,2020-11-02 15:13:16,2,DF:DC:EF:28:D6:3E,14,14,17998.716489669197,-21979.871129615807,-12813.225622379068
15809,-9724,23531,-1302,-24590,14101,-26125,-19524,21492,-30016,14,1,38677,2020-11-02 15:12:46,2020-11-02 15:13:16,2,DF:DC:EF:28:D6:3E,14,14,25164.22070651212,2296.1481432310143,3383.643145824223
15810,-25855,9710,-7443,-22283,-28397,-14351,-14151,10993,-16446,14,1,38679,2020-11-02 15:12:46,2020-11-02 15:13:16,2,DF:DC:EF:28:D6:3E,14,14,-2007.7710392482322,21586.191945196093,18659.275086645448
15811,-7422,2033,25329,-27912,26899,-23567,9283,24302,-11579,14,1,38703,2020-11-02 15:12:46,2020-11-02 15:13:16,2,DF:DC:EF:28:D6:3E,14,14,-15551.646020511727,14596.079420937807,-15680.503358960694
15812,-29949,-30477,-14859,1276,-16879,-529,15167,14060,3018,14,1,38728,2020-11-02 15:12:46,2020-11-02 15:13:16,2,DF:DC:EF:28:D6:3E,14,14,-7113.20256988953,26194.157602650062,36191.828741958416
15813,14338,-12043,9977,3328,-24304,-5650,-18630,-8982,-32561,14,1,38754,2020-11-02 15:12:46,2020-11-02 15:13:16,2,DF:DC:EF:28:D6:3E,14,14,-8633.435902016688,17808.586958924407,7646.609513516226
15814,21248,-19465,-2566,4,-31474,26095,20278,29418,26837,14,1,38780,2020-11-02 15:12:46,2020-11-02 15:13:16,2,DF:DC:EF:28:D6:3E,14,14,10788.627572477637,-17543.898927766135,20316.623994027683
15815,-6402,-20998,2044,8453,-32244,-2319,-12494,-21014,-23078,14,1,38805,2020-11-02 15:12:46,2020-11-02 15:13:16,2,DF:DC:EF:28:D6:3E,14,14,-10479.717243314893,-4078.337138614242,-18963.70841064501
15816,17663,7676,28160,21766,-14841,17397,-27600,15595,32222,14,1,38831,2020-11-02 15:12:46,2020-11-02 15:13:16,2,DF:DC:EF:28:D6:3E,14,14,-30581.763819520856,10564.217370177415,-10818.557114638115
15817,5634,-15108,26625,265,-31739,1270,-23505,-2325,14817,14,-1,38856,2020-11-02 15:12:46,2020-11-02 15:13:16,2,DF:DC:EF:28:D6:3E,14,14,6998.112989824345,9398.731735499827,-28837.033504605846
15818,-16127,25084,-7678,2572,28162,13814,-19409,-6932,17635,14,-1,38882,2020-11-02 15:12:46,2020-11-02 15:13:16,2,DF:DC:EF:28:D6:3E,14,14,15666.863361478945,23945.21514472842,-11376.068437092723
15819,-25345,-13062,-15614,8720,-11521,16117,-11984,7918,-18716,14,-1,38907,2020-11-02 15:12:46,2020-11-02 15:13:16,2,DF:DC:EF:28:D6:3E,14,14,-2986.841870979416,8424.86879770509,31255.11520342261
15820,-15876,-8969,23551,-11245,19454,-24075,-10958,31983,-5147,14,-1,38933,2020-11-02 15:12:46,2020-11-02 15:13:16,2,DF:DC:EF:28:D6:3E,14,14,-23942.554307200575,14971.511781879424,-9473.535043044742
15821,-12552,26101,24061,-13549,19192,23543,-28363,1777,30950,14,-1,38959,2020-11-02 15:12:46,2020-11-02 15:13:16,2,DF:DC:EF:28:D6:3E,14,14,-37381.95663716768,2031.6020095474478,4025.9827684328666
15822,24309,12532,-28166,-9965,-17169,27125,-16328,-31501,17126,14,-1,38984,2020-11-02 15:12:46,2020-11-02 15:13:16,2,DF:DC:EF:28:D6:3E,14,14,25030.786626750538,19382.5662003807,-23218.051368147724
15823,-17684,-15882,-16142,534,28397,-20497,-8901,3319,-19738,14,-1,39010,2020-11-02 15:12:46,2020-11-02 15:13:16,2,DF:DC:EF:28:D6:3E,14,14,14379.228512481572,24437.864716369855,4642.682359395501
15824,23003,5116,-19223,-7914,-25361,-25614,1087,-21254,-5145,14,-1,39035,2020-11-02 15:12:46,2020-11-02 15:13:16,2,DF:DC:EF:28:D6:3E,14,14,-20060.04748436522,5116.0,22276.809307551488
15825,18901,22780,17637,-11753,28917,-23801,-21950,509,-20761,14,-1,39061,2020-11-02 15:12:46,2020-11-02 15:13:16,2,DF:DC:EF:28:D6:3E,14,14,-21543.152375557034,17195.00472174089,-20675.211446145833
15826,24797,27376,-1823,-14310,-4612,-32482,23482,2558,13540,14,-1,39087,2020-11-02 15:12:46,2020-11-02 15:13:16,2,DF:DC:EF:28:D6:3E,14,14,7206.422469671867,30568.578655952642,-19526.63279071548
15827,-31259,-13593,13273,-7909,-13313,-4313,4799,11519,-25378,14,-1,39112,2020-11-02 15:12:46,2020-11-02 15:13:16,2,DF:DC:EF:28:D6:3E,14,14,-6104.491521593475,27863.645929971222,22900.211303653763
15828,-794,32736,18379,-13548,12800,-17108,-13630,28673,27608,14,-1,39138,2020-11-02 15:12:46,2020-11-02 15:13:16,2,DF:DC:EF:28:D6:3E,14,14,-20966.624783713665,-29001.41287369337,-11374.64151120976
15829,-8720,-13351,29386,32523,25858,-32721,17092,32004,-7471,14,-1,39163,2020-11-02 15:12:46,2020-11-02 15:13:16,2,DF:DC:EF:28:D6:3E,14,14,-6520.127698878952,-29017.346999692247,-15274.36103049037
15830,27902,28376,-22825,23049,12,1840,-2109,-16378,-24630,14,-1,39189,2020-11-02 15:12:46,2020-11-02 15:13:16,2,DF:DC:EF:28:D6:3E,14,14,-27451.542711311027,-11628.055003406158,34869.7683474787
15831,2061,6368,-10018,-25080,-25834,-5336,5315,-5626,-8510,14,-1,39215,2020-11-02 15:12:46,2020-11-02 15:13:16,2,DF:DC:EF:28:D6:3E,14,14,6472.050283650921,1706.3733840792395,-10018.0
15832,-18164,13540,-7466,8957,-30443,4375,3010,23557,1469,14,-1,39240,2020-11-02 15:12:46,2020-11-02 15:13:16,2,DF:DC:EF:28:D6:3E,14,14,17523.07015933564,13540.0,-8866.457251405482
15833,4360,6619,24799,20458,-30192,-26617,23231,15107,10426,14,-1,39266,2020-11-02 15:12:46,2020-11-02 15:13:16,2,DF:DC:EF:28:D6:3E,14,14,-23557.200506725178,-9959.651655418493,4865.676231385199
15834,-21499,-18215,-27410,-796,-21747,22270,-32581,10753,17222,14,-1,39291,2020-11-02 15:12:46,2020-11-02 15:13:16,2,DF:DC:EF:28:D6:3E,14,14,29547.487599994645,-25542.566671361023,4452.481371913827
15835,18692,9186,13298,15601,-26859,-9990,12613,26366,15546,14,-1,39317,2020-11-02 15:12:46,2020-11-02 15:13:16,2,DF:DC:EF:28:D6:3E,14,14,20443.2959879747,-6426.756568527313,12303.605697394105
15836,-28932,-17687,-26382,11777,-9445,-19463,26948,28922,28091,14,-1,39343,2020-11-02 15:12:46,2020-11-02 15:13:16,2,DF:DC:EF:28:D6:3E,14,14,18202.213476350316,33933.55121973524,-19055.026716826622
15837,7933,19184,-793,-18167,-3812,4348,19269,19958,-30532,14,-1,39368,2020-11-02 15:12:46,2020-11-02 15:13:16,2,DF:DC:EF:28:D6:3E,14,14,16016.62006335097,-12413.999087813125,-4576.866001319893
15838,-25344,1524,-11033,-14582,10522,23035,1210,8178,15037,14,-1,39394,2020-11-02 15:12:46,2020-11-02 15:13:16,2,DF:DC:EF:28:D6:3E,14,14,8176.190981707945,-21527.4721183361,15365.085298328144
15839,-9984,5879,-22552,26631,-25836,-3081,-18502,-20242,24510,14,-1,39419,2020-11-02 15:12:46,2020-11-02 15:13:16,2,DF:DC:EF:28:D6:3E,14,14,-11291.038611762564,700.1033876463939,-22690.480455783498
15840,-19708,-21256,14062,-23293,2067,17651,-11079,-14869,-25664,14,1,39445,2020-11-02 15:12:46,2020-11-02 15:13:16,2,DF:DC:EF:28:D6:3E,14,14,9522.353440108505,-11557.735405620902,-28525.535599797433
15841,23807,2554,-31501,-16383,-17904,31470,11587,18153,5829,14,1,39471,2020-11-02 15:12:46,2020-11-02 15:13:16,2,DF:DC:EF:28:D6:3E,14,14,-34766.20663724742,-3097.9229535131926,-18636.60149894045
15842,2049,-8453,-13830,10239,-28659,-12557,830,10215,2507,14,1,39496,2020-11-02 15:12:46,2020-11-02 15:13:16,2,DF:DC:EF:28:D6:3E,14,14,-10530.46429516939,-8453.0,-9196.554938027752
15843,22782,7421,-23292,29444,-16629,28401,-27336,29158,26577,14,1,39522,2020-11-02 15:12:46,2020-11-02 15:13:16,2,DF:DC:EF:28:D6:3E,14,14,18508.34384747612,1882.3810991653538,27757.987650784373
15844,-14077,8955,-26366,-32244,4617,-29200,26932,-13082,-27689,14,1,39547,2020-11-02 15:12:46,2020-11-02 15:13:16,2,DF:DC:EF:28:D6:3E,14,14,21916.93690823909,14106.219934156796,-17151.74468470962
15845,-2050,13047,1789,24083,-28668,30700,4402,13800,7645,14,1,39573,2020-11-02 15:12:46,2020-11-02 15:13:16,2,DF:DC:EF:28:D6:3E,14,14,-9638.811850167798,9136.032636636499,1119.5730344098097
15846,16378,-777,7672,8469,1279,-30738,16434,22506,-22048,14,1,39599,2020-11-02 15:12:46,2020-11-02 15:13:16,2,DF:DC:EF:28:D6:3E,14,14,15657.742401423831,8951.991586734788,1548.917855047112
15847,31226,30200,26102,17943,-14083,13295,-10701,30700,-1822,14,1,39624,2020-11-02 15:12:46,2020-11-02 15:13:16,2,DF:DC:EF:28:D6:3E,14,14,19702.544373477816,38281.20528267354,26735.305259468154
15848,16374,26873,12530,21015,-12294,19184,5942,-21522,-6940,14,1,39650,2020-11-02 15:12:46,2020-11-02 15:13:16,2,DF:DC:EF:28:D6:3E,14,14,-7653.126439180251,19277.719444214068,-26778.08980745436
15849,-11021,19707,6386,-8682,-29961,-23312,-22216,4337,24806,14,1,39676,2020-11-02 15:12:46,2020-11-02 15:13:16,2,DF:DC:EF:28:D6:3E,14,14,-6879.220818261126,20504.106290049625,-9103.144082126248
15850,14312,1280,-12825,-25836,16374,-24843,29499,-29965,-30233,14,1,39701,2020-11-02 15:12:46,2020-11-02 15:13:16,2,DF:DC:EF:28:D6:3E,14,14,11273.039207564472,-3966.4267479346377,-15104.251549745282
15851,30180,-14844,-28443,29453,12021,29188,14654,21493,4583,14,1,39727,2020-11-02 15:12:46,2020-11-02 15:13:16,2,DF:DC:EF:28:D6:3E,14,14,-30112.394559370383,32040.430352908646,-2614.4792409217935
15852,24301,27650,24302,9994,32756,-5617,-3776,-27402,-27932,14,-1,39755,2020-11-02 15:12:46,2020-11-02 15:13:16,2,DF:DC:EF:28:D6:3E,14,14,-22564.679210776485,-16175.472581667806,-34275.904712705465
15853,-4367,17144,-7188,8206,-272,-27884,12612,17144,7649,14,-1,39778,2020-11-02 15:12:46,2020-11-02 15:13:16,2,DF:DC:EF:28:D6:3E,14,14,10613.824930597897,15422.54061233125,-3761.2139534479884
15854,4340,-2571,-32033,7951,-24086,-23021,-10822,12027,-18467,14,-1,39804,2020-11-02 15:12:46,2020-11-02 15:13:16,2,DF:DC:EF:28:D6:3E,14,14,11420.770062351005,30258.46817107454,2355.8109268309263
15855,9958,10489,-8762,-26354,-13848,23568,31165,9471,-29733,14,-1,39829,2020-11-02 15:12:46,2020-11-02 15:13:16,2,DF:DC:EF:28:D6:3E,14,14,3735.9730109286147,-6501.559658356159,-15156.7066564755
15856,-29206,-1553,-8251,-5624,-21008,-484,1215,-9726,-18216,14,-1,39855,2020-11-02 15:12:46,2020-11-02 15:13:16,2,DF:DC:EF:28:D6:3E,14,14,8529.495448290067,2784.5488484766506,-29034.035908017446
15857,-15868,6382,-1578,25864,-27908,3110,19135,30725,-22317,14,-1,39880,2020-11-02 15:12:46,2020-11-02 15:13:16,2,DF:DC:EF:28:D6:3E,14,14,5933.955879055521,7002.92645234344,-14517.596933669529
15858,-13300,4083,218,-22263,-18422,-26590,17855,-4091,-7475,14,-1,39906,2020-11-02 15:12:46,2020-11-02 15:13:16,2,DF:DC:EF:28:D6:3E,14,14,-10613.25080857252,8990.964931605533,360.3746286495408
15859,-28918,3317,-21286,24581,3092,-12771,9151,31236,28104,14,-1,39932,2020-11-02 15:12:46,2020-11-02 15:13:16,2,DF:DC:EF:28:D6:3E,14,14,14814.43267540446,-12991.994788609827,-30200.789143971782
15860,30985,-10768,-12067,-11777,7704,10777,-16450,-2815,-28989,14,-1,39957,2020-11-02 15:12:46,2020-11-02 15:13:16,2,DF:DC:EF:28:D6:3E,14,14,15014.055825500896,27870.897440009187,14812.958568673308
15861,-7927,-26133,-14621,23805,-20967,-28653,26046,-8194,30143,14,-1,39983,2020-11-02 15:12:46,2020-11-02 15:13:16,2,DF:DC:EF:28:D6:3E,14,14,-2447.5302415558963,29483.858090122012,9179.12669256809
15862,1544,3304,-18204,-22530,4379,-9458,-26434,28155,6332,14,-1,40008,2020-11-02 15:12:46,2020-11-02 15:13:16,2,DF:DC:EF:28:D6:3E,14,14,-16208.765741910851,-3742.37153562609,-8243.575462940385
15863,10248,7397,5350,20483,10268,8458,-17217,-15625,-16059,14,-1,40034,2020-11-02 15:12:46,2020-11-02 15:13:16,2,DF:DC:EF:28:D6:3E,14,14,-6596.706181060267,1368.7824783104088,11956.986036950602
15864,-6133,-7707,-6938,-24827,-994,-25342,-19263,-16909,11075,14,-1,40060,2020-11-02 15:12:46,2020-11-02 15:13:16,2,DF:DC:EF:28:D6:3E,14,14,-8126.300061212367,-346.5914506355384,-8887.66019160759
15865,6666,18407,30699,-20985,-1505,-25353,-7229,5359,24641,14,-1,40085,2020-11-02 15:12:46,2020-11-02 15:13:16,2,DF:DC:EF:28:D6:3E,14,14,22719.435733342696,-28430.68616993082,1097.7840704870705
15866,7430,-21274,25581,-2295,-13028,-27922,-16187,7914,-11712,14,-1,40111,2020-11-02 15:12:46,2020-11-02 15:13:16,2,DF:DC:EF:28:D6:3E,14,14,24484.28182222141,-23670.372937209766,-1552.0714105498237
15867,8197,17385,-18449,24586,-23787,14057,710,26341,21058,14,-1,40136,2020-11-02 15:12:46,2020-11-02 15:13:16,2,DF:DC:EF:28:D6:3E,14,14,-10971.595929336096,-15996.776085075791,18262.581215351864
15868,770,32491,21746,-14838,-24302,-7451,10688,9953,29373,14,-1,40162,2020-11-02 15:12:46,2020-11-02 15:13:16,2,DF:DC:EF:28:D6:3E,14,14,8735.338332798285,-32151.60235578465,20472.294135417455
15869,-31748,9457,13301,-6645,32272,1767,-32464,-20257,-14885,14,-1,40188,2020-11-02 15:12:46,2020-11-02 15:13:16,2,DF:DC:EF:28:D6:3E,14,14,-21483.968783987555,-22740.192193777377,-17193.303879089515
15870,28667,15094,29684,5643,-22003,3052,-9950,27874,29675,14,-1,40213,2020-11-02 15:12:46,2020-11-02 15:13:16,2,DF:DC:EF:28:D6:3E,14,14,25740.889434881825,29788.898275193802,19513.936856804292
15871,16124,13562,6395,7434,2058,2545,29215,8165,-20752,14,-1,40239,2020-11-02 15:12:46,2020-11-02 15:13:16,2,DF:DC:EF:28:D6:3E,14,14,2106.223156702539,-9779.99035358441,-19614.353359159355
15872,7427,-27399,26117,12556,-28152,12784,-8162,-25625,7155,14,1,40265,2020-11-02 15:12:46,2020-11-02 15:13:16,2,DF:DC:EF:28:D6:3E,14,14,6538.686040453978,23459.217693308274,-29914.443151801177
15873,-22016,-29196,-22517,2838,31235,-15893,-13024,30186,-2573,14,1,40290,2020-11-02 15:12:46,2020-11-02 15:13:16,2,DF:DC:EF:28:D6:3E,14,14,-40687.965481852756,-8324.827120003507,-10923.034348092693
15874,22778,-16144,-7932,-223,9469,-19478,22821,-24339,-11021,14,1,40316,2020-11-02 15:12:46,2020-11-02 15:13:16,2,DF:DC:EF:28:D6:3E,14,14,8625.65039926727,18218.630803642573,-20882.104559411302
15875,30708,-27408,-6411,15398,-32258,11759,-6870,-28688,5108,14,1,40341,2020-11-02 15:12:46,2020-11-02 15:13:16,2,DF:DC:EF:28:D6:3E,14,14,27504.807401590086,-20203.2760828374,-23887.106445153324
15876,26095,-21517,-12044,15908,32510,2295,7984,23026,-7180,14,1,40367,2020-11-02 15:12:46,2020-11-02 15:13:16,2,DF:DC:EF:28:D6:3E,14,14,-406.0408267706971,-2127.210244118418,35837.10866440418
15877,2031,21237,-19214,-22752,-28932,-20737,26421,5875,-5900,14,1,40392,2020-11-02 15:12:46,2020-11-02 15:13:16,2,DF:DC:EF:28:D6:3E,14,14,-24921.147010174223,-13792.668517228385,-3607.166875976406
15878,7408,-782,19182,-4832,31993,15364,827,-24845,-8717,14,1,40418,2020-11-02 15:12:46,2020-11-02 15:13:16,2,DF:DC:EF:28:D6:3E,14,14,4569.2829384199395,-8563.574435655548,-18144.584820646938
15879,-15126,-17934,29665,-5346,3067,7433,-5056,16116,16626,14,1,40444,2020-11-02 15:12:46,2020-11-02 15:13:16,2,DF:DC:EF:28:D6:3E,14,14,2462.573745628426,37714.543645109836,1409.0369719942828
15880,31976,2798,-15142,-27626,-19714,-17643,-7495,-24076,18415,14,1,40469,2020-11-02 15:12:46,2020-11-02 15:13:16,2,DF:DC:EF:28:D6:3E,14,14,30170.1350382624,7042.657519442964,-17312.92785281694
15881,-15637,-1312,-38,-15091,22018,-24287,191,23797,14058,14,1,40495,2020-11-02 15:12:46,2020-11-02 15:13:16,2,DF:DC:EF:28:D6:3E,14,14,-3072.4168772806684,9866.086679195498,-11809.282161537256
15882,-268,-2604,29667,21257,-3579,1834,-28221,-5130,-22045,14,1,40520,2020-11-02 15:12:46,2020-11-02 15:13:16,2,DF:DC:EF:28:D6:3E,14,14,-2662.9181759294215,20580.136390007832,-21362.35899794262
15883,6397,-15919,15071,-21749,32005,-27860,-25657,-19207,-1828,14,1,40546,2020-11-02 15:12:46,2020-11-02 15:13:16,2,DF:DC:EF:28:D6:3E,14,14,-3242.651119490506,-1000.4176062579481,22582.19629111296
15884,19460,468,-18739,-30711,-7418,1582,-27958,-26371,-42,14,-1,40572,2020-11-02 15:12:46,2020-11-02 15:13:16,2,DF:DC:EF:28:D6:3E,14,14,-3182.065762356897,13875.816745011096,-22965.12382163235
15885,28177,-44,3798,-4100,11541,-22740,4299,-11008,25808,14,-1,40597,2020-11-02 15:12:46,2020-11-02 15:13:16,2,DF:DC:EF:28:D6:3E,14,14,-7895.449805359275,-9074.204849483274,25762.196096619293
15886,15383,-2853,-30232,-20234,-3559,-31969,30665,-20479,-30519,14,-1,40623,2020-11-02 15:12:46,2020-11-02 15:13:16,2,DF:DC:EF:28:D6:3E,14,14,24489.31660395515,-22266.227396452716,7952.270858107455
15887,6418,24801,-21785,13559,-28647,6418,-8249,-17920,29124,14,-1,40648,2020-11-02 15:12:46,2020-11-02 15:13:16,2,DF:DC:EF:28:D6:3E,14,14,-5224.586687735118,277.00232097726166,33218.8728534927
15888,-16117,25826,8424,25077,-6120,-16888,-30010,11262,27328,14,-1,40674,2020-11-02 15:12:46,2020-11-02 15:13:16,2,DF:DC:EF:28:D6:3E,14,14,-9812.955291568414,-10210.99319258525,28233.761128596685
15889,-22776,24037,-21775,26868,11808,20995,22213,-29446,13245,14,-1,40700,2020-11-02 15:12:46,2020-11-02 15:13:16,2,DF:DC:EF:28:D6:3E,14,14,11576.420806937214,24503.73502365154,28917.600543464592
15890,-23290,-11031,7668,-1801,-21482,9213,-21052,-14602,3003,14,-1,40725,2020-11-02 15:12:46,2020-11-02 15:13:16,2,DF:DC:EF:28:D6:3E,14,14,15179.276663901594,12002.715451802576,-18666.270831202255
15891,-19973,-10256,-24847,20217,17698,20477,-27452,-22798,-5563,14,-1,40751,2020-11-02 15:12:46,2020-11-02 15:13:16,2,DF:DC:EF:28:D6:3E,14,14,18576.518899803315,25508.040576493295,-11213.049786441763
15892,9734,-13075,1005,31998,20511,-8706,31686,-12051,23618,14,-1,40779,2020-11-02 15:12:46,2020-11-02 15:13:16,2,DF:DC:EF:28:D6:3E,14,14,8191.657095555899,13684.262224881713,3514.8438641715056
15893,7440,-7700,-6151,-29187,8725,-18953,-32312,-1303,23103,14,-1,40802,2020-11-02 15:12:46,2020-11-02 15:13:16,2,DF:DC:EF:28:D6:3E,14,14,-2052.2348004311234,-8058.337349565025,-9128.523017690472
15894,-20729,-27410,-21767,15871,790,-8210,23497,-795,18494,14,-1,40828,2020-11-02 15:12:46,2020-11-02 15:13:16,2,DF:DC:EF:28:D6:3E,14,14,20317.910989908873,-4353.88703445815,34971.81709172855
15895,-17148,3824,-17662,32257,-13047,20460,-4922,29154,-4544,14,-1,40853,2020-11-02 15:12:46,2020-11-02 15:13:16,2,DF:DC:EF:28:D6:3E,14,14,12072.281382776948,3824.0,-21453.674981575
15896,15105,9464,-11007,32005,29957,24815,-11076,30688,14783,14,-1,40879,2020-11-02 15:12:46,2020-11-02 15:13:16,2,DF:DC:EF:28:D6:3E,14,14,-3561.8609431911436,17752.005899394055,10538.586393309504
15897,-21763,-6150,-18174,-5878,14588,-15114,17727,-26912,-9782,14,-1,40905,2020-11-02 15:12:46,2020-11-02 15:13:16,2,DF:DC:EF:28:D6:3E,14,14,21969.460281597836,-18199.986177147992,5277.145353969054
15898,3840,8957,-4618,21518,-17408,-9728,-23233,8929,-28980,14,-1,40930,2020-11-02 15:12:46,2020-11-02 15:13:16,2,DF:DC:EF:28:D6:3E,14,14,5189.9032629245885,9225.594271421547,2062.204514736267
15899,-27133,14588,29691,-13300,21513,-16888,-17735,-4129,-11577,14,-1,40956,2020-11-02 15:12:46,2020-11-02 15:13:16,2,DF:DC:EF:28:D6:3E,14,14,1969.1800009230287,28938.31126728621,-31452.525894141167
15900,-7928,32251,15101,-9462,-31487,9224,968,-27425,15035,14,-1,40981,2020-11-02 15:12:46,2020-11-02 15:13:16,2,DF:DC:EF:28:D6:3E,14,14,-36238.18377086056,1682.7888480184429,-3870.7421358601487
15901,-9464,3067,-7941,-1527,27381,-29696,-13112,-21024,700,14,-1,41007,2020-11-02 15:12:46,2020-11-02 15:13:16,2,DF:DC:EF:28:D6:3E,14,14,9296.498325097313,-8497.053214112824,-1846.20463871094
15902,16644,23033,22262,-28151,-28175,-30981,23747,17378,7107,14,-1,41033,2020-11-02 15:12:46,2020-11-02 15:13:16,2,DF:DC:EF:28:D6:3E,14,14,-12849.797438259156,-16694.66884703942,29313.976306250224
